requirements.started,requirements.stopped,key_resp_3.keys,key_resp_3.rt,key_resp_3.duration,Subject ID,Age,Gender,date,expName,psychopyVersion,OS,frameRate,instructions1.started,instructions1.stopped,key_resp.keys,key_resp.rt,key_resp.duration,example.started,example.stopped,enter_2.keys,enter_2.rt,enter_2.duration,instructions2.started,instructions2.stopped,enter_3.keys,enter_3.rt,enter_3.duration,image.started,image.stopped,slider_2.started,slider_2.stopped,next.keys,next.rt,next.duration,slider.response,trial_block_1.thisRepN,trial_block_1.thisTrialN,trial_block_1.thisN,trial_block_1.thisIndex,trial_block_1.ran,Path,Width,Height,Index,Duration,trial_block_2.thisRepN,trial_block_2.thisTrialN,trial_block_2.thisN,trial_block_2.thisIndex,trial_block_2.ran,rest_break.started,rest_break.stopped,end_break.started,end_break.stopped,key_resp_5.keys,key_resp_5.rt,key_resp_5.duration,trial_block_3.thisRepN,trial_block_3.thisTrialN,trial_block_3.thisN,trial_block_3.thisIndex,trial_block_3.ran,trial_block_4.thisRepN,trial_block_4.thisTrialN,trial_block_4.thisN,trial_block_4.thisIndex,trial_block_4.ran,questions_intro.started,questions_intro.stopped,enter_12.keys,enter_12.rt,enter_12.duration,question2.started,question2.stopped,question_doingbest.response,question_doingbest.rt,enter_15.keys,enter_15.rt,enter_15.duration,pattern.started,pattern.stopped,pattern_2.text,enter_17.keys,enter_17.rt,enter_17.duration,thankyou.started,thankyou.stopped,enter_14.keys,enter_14.rt,enter_14.duration
1E-04,10.9297,return,10.9233,,SPR24_073,21,Female,2024-04-19_11h31.22.981,jersey_experiment_5_v0,2023.2.2,Win32,84.74576271,,,,,,,,,,,,,,,,,,,,,,,,,,,,,,,,,,,,,,,,,,,,,,,,,,,,,,,,,,,,,,,,,,,,,,,,,,,,,,
,,,,,SPR24_073,21,Female,2024-04-19_11h31.22.981,jersey_experiment_5_v0,2023.2.2,Win32,84.74576271,10.9298,19.7769,return,8.8268,,,,,,,,,,,,,,,,,,,,,,,,,,,,,,,,,,,,,,,,,,,,,,,,,,,,,,,,,,,,,,,,,,,,,,,,,,
,,,,,SPR24_073,21,Female,2024-04-19_11h31.22.981,jersey_experiment_5_v0,2023.2.2,Win32,84.74576271,,,,,,19.777,24.9449,return,5.135,,,,,,,,,,,,,,,,,,,,,,,,,,,,,,,,,,,,,,,,,,,,,,,,,,,,,,,,,,,,,,,,,,,,,
,,,,,SPR24_073,21,Female,2024-04-19_11h31.22.981,jersey_experiment_5_v0,2023.2.2,Win32,84.74576271,,,,,,,,,,,24.945,43.9659,return,19.0056,,,,,,,,,,,,,,,,,,,,,,,,,,,,,,,,,,,,,,,,,,,,,,,,,,,,,,,,,,,,,,,,
,,,,,SPR24_073,21,Female,2024-04-19_11h31.22.981,jersey_experiment_5_v0,2023.2.2,Win32,84.74576271,,,,,,,,,,,,,,,,43.9732,45.0245,45.0247,56.7899,return,2.8096,,49.86979167,0,0,0,28,1,FBP-YG-19.png,0.43,1.2,29,0.25,,,,,,,,,,,,,,,,,,,,,,,,,,,,,,,,,,,,,,,,,,,,,
,,,,,SPR24_073,21,Female,2024-04-19_11h31.22.981,jersey_experiment_5_v0,2023.2.2,Win32,84.74576271,,,,,,,,,,,,,,,,56.7947,57.8369,57.8369,64.0604,return,2.2901,,75.13020833,0,1,1,52,1,FBP-PT-18.png,0.4,1.2,53,0.25,,,,,,,,,,,,,,,,,,,,,,,,,,,,,,,,,,,,,,,,,,,,,
,,,,,SPR24_073,21,Female,2024-04-19_11h31.22.981,jersey_experiment_5_v0,2023.2.2,Win32,84.74576271,,,,,,,,,,,,,,,,64.0651,65.3667,65.3667,69.3902,return,1.5473,,25.52083333,0,2,2,40,1,FBP-RB-19.png,0.35,1.2,41,0.5,,,,,,,,,,,,,,,,,,,,,,,,,,,,,,,,,,,,,,,,,,,,,
,,,,,SPR24_073,21,Female,2024-04-19_11h31.22.981,jersey_experiment_5_v0,2023.2.2,Win32,84.74576271,,,,,,,,,,,,,,,,69.3905,70.4373,70.4373,76.1787,return,3.0841,,74.86979167,0,3,3,47,1,FBP-PT-17.png,0.4,1.2,48,0.25,,,,,,,,,,,,,,,,,,,,,,,,,,,,,,,,,,,,,,,,,,,,,
,,,,,SPR24_073,21,Female,2024-04-19_11h31.22.981,jersey_experiment_5_v0,2023.2.2,Win32,84.74576271,,,,,,,,,,,,,,,,76.1789,77.4728,77.4728,81.12,return,1.0395,,99.47916667,0,4,4,44,1,FBP-RB-19.png,0.45,1.2,45,0.5,,,,,,,,,,,,,,,,,,,,,,,,,,,,,,,,,,,,,,,,,,,,,
,,,,,SPR24_073,21,Female,2024-04-19_11h31.22.981,jersey_experiment_5_v0,2023.2.2,Win32,84.74576271,,,,,,,,,,,,,,,,81.1202,82.1672,82.1672,85.826,return,1.047,,25,0,5,5,20,1,FBP-YG-18.png,0.35,1.2,21,0.25,,,,,,,,,,,,,,,,,,,,,,,,,,,,,,,,,,,,,,,,,,,,,
,,,,,SPR24_073,21,Female,2024-04-19_11h31.22.981,jersey_experiment_5_v0,2023.2.2,Win32,84.74576271,,,,,,,,,,,,,,,,85.8262,87.1203,87.1203,90.544,return,1.2163,,99.609375,0,6,6,34,1,FBP-RB-17.png,0.45,1.2,35,0.5,,,,,,,,,,,,,,,,,,,,,,,,,,,,,,,,,,,,,,,,,,,,,
,,,,,SPR24_073,21,Female,2024-04-19_11h31.22.981,jersey_experiment_5_v0,2023.2.2,Win32,84.74576271,,,,,,,,,,,,,,,,90.5442,91.591,91.591,95.6028,return,1.2003,,75.13020833,0,7,7,29,1,FBP-YG-19.png,0.45,1.2,30,0.25,,,,,,,,,,,,,,,,,,,,,,,,,,,,,,,,,,,,,,,,,,,,,
,,,,,SPR24_073,21,Female,2024-04-19_11h31.22.981,jersey_experiment_5_v0,2023.2.2,Win32,84.74576271,,,,,,,,,,,,,,,,95.603,96.897,96.8971,102.415,return,1.2148,,63.02083333,0,8,8,12,1,FBP-OG-91.png,0.4,1.2,13,0.5,,,,,,,,,,,,,,,,,,,,,,,,,,,,,,,,,,,,,,,,,,,,,
,,,,,SPR24_073,21,Female,2024-04-19_11h31.22.981,jersey_experiment_5_v0,2023.2.2,Win32,84.74576271,,,,,,,,,,,,,,,,102.4152,103.462,103.462,114.1093,return,6.4405,,49.609375,0,9,9,27,1,FBP-YG-19.png,0.4,1.2,28,0.25,,,,,,,,,,,,,,,,,,,,,,,,,,,,,,,,,,,,,,,,,,,,,
,,,,,SPR24_073,21,Female,2024-04-19_11h31.22.981,jersey_experiment_5_v0,2023.2.2,Win32,84.74576271,,,,,,,,,,,,,,,,114.1136,115.1565,115.1565,119.6038,return,1.5905,,99.609375,0,10,10,54,1,FBP-PT-18.png,0.45,1.2,55,0.25,,,,,,,,,,,,,,,,,,,,,,,,,,,,,,,,,,,,,,,,,,,,,
,,,,,SPR24_073,21,Female,2024-04-19_11h31.22.981,jersey_experiment_5_v0,2023.2.2,Win32,84.74576271,,,,,,,,,,,,,,,,119.604,120.8979,120.898,124.6394,return,1.25,,24.73958333,0,11,11,31,1,FBP-RB-17.png,0.37,1.2,32,0.5,,,,,,,,,,,,,,,,,,,,,,,,,,,,,,,,,,,,,,,,,,,,,
,,,,,SPR24_073,21,Female,2024-04-19_11h31.22.981,jersey_experiment_5_v0,2023.2.2,Win32,84.74576271,,,,,,,,,,,,,,,,124.6396,125.6863,125.6863,129.251,return,1.1911,,50.13020833,0,12,12,17,1,FBP-YG-17.png,0.4,1.2,18,0.25,,,,,,,,,,,,,,,,,,,,,,,,,,,,,,,,,,,,,,,,,,,,,
,,,,,SPR24_073,21,Female,2024-04-19_11h31.22.981,jersey_experiment_5_v0,2023.2.2,Win32,84.74576271,,,,,,,,,,,,,,,,129.2512,130.2982,130.2982,133.7454,return,1.1296,,74.47916667,0,13,13,57,1,FBP-PT-19.png,0.4,1.2,58,0.25,,,,,,,,,,,,,,,,,,,,,,,,,,,,,,,,,,,,,,,,,,,,,
,,,,,SPR24_073,21,Female,2024-04-19_11h31.22.981,jersey_experiment_5_v0,2023.2.2,Win32,84.74576271,,,,,,,,,,,,,,,,133.7456,135.0396,135.0397,139.028,return,0.9887,,99.609375,0,14,14,38,1,FBP-RB-18.png,0.43,1.2,39,0.5,,,,,,,,,,,,,,,,,,,,,,,,,,,,,,,,,,,,,,,,,,,,,
,,,,,SPR24_073,21,Female,2024-04-19_11h31.22.981,jersey_experiment_5_v0,2023.2.2,Win32,84.74576271,,,,,,,,,,,,,,,,139.0281,140.0752,140.0752,143.44,return,0.9193,,24.21875,0,15,15,55,1,FBP-PT-19.png,0.35,1.2,56,0.25,,,,,,,,,,,,,,,,,,,,,,,,,,,,,,,,,,,,,,,,,,,,,
,,,,,SPR24_073,21,Female,2024-04-19_11h31.22.981,jersey_experiment_5_v0,2023.2.2,Win32,84.74576271,,,,,,,,,,,,,,,,143.4401,144.4868,144.4869,147.2753,return,0.9147,,24.86979167,0,16,16,21,1,FBP-YG-18.png,0.37,1.2,22,0.25,,,,,,,,,,,,,,,,,,,,,,,,,,,,,,,,,,,,,,,,,,,,,
,,,,,SPR24_073,21,Female,2024-04-19_11h31.22.981,jersey_experiment_5_v0,2023.2.2,Win32,84.74576271,,,,,,,,,,,,,,,,147.2754,148.5695,148.5696,155.2167,return,0.9776,,99.73958333,0,17,17,8,1,FBP-OG-81.png,0.43,1.2,9,0.5,,,,,,,,,,,,,,,,,,,,,,,,,,,,,,,,,,,,,,,,,,,,,
,,,,,SPR24_073,21,Female,2024-04-19_11h31.22.981,jersey_experiment_5_v0,2023.2.2,Win32,84.74576271,,,,,,,,,,,,,,,,155.2169,156.2639,156.2639,158.958,return,1.0882,,99.21875,0,18,18,59,1,FBP-PT-19.png,0.45,1.2,60,0.25,,,,,,,,,,,,,,,,,,,,,,,,,,,,,,,,,,,,,,,,,,,,,
,,,,,SPR24_073,21,Female,2024-04-19_11h31.22.981,jersey_experiment_5_v0,2023.2.2,Win32,84.74576271,,,,,,,,,,,,,,,,158.9582,160.2522,160.2522,163.3934,return,0.7062,,99.86979167,0,19,19,4,1,FBP-OG-71.png,0.45,1.2,5,0.5,,,,,,,,,,,,,,,,,,,,,,,,,,,,,,,,,,,,,,,,,,,,,
,,,,,SPR24_073,21,Female,2024-04-19_11h31.22.981,jersey_experiment_5_v0,2023.2.2,Win32,84.74576271,,,,,,,,,,,,,,,,163.3936,164.6878,164.6878,168.3702,return,0.9768,,25,0,20,20,1,1,FBP-OG-71.png,0.37,1.2,2,0.5,,,,,,,,,,,,,,,,,,,,,,,,,,,,,,,,,,,,,,,,,,,,,
,,,,,SPR24_073,21,Female,2024-04-19_11h31.22.981,jersey_experiment_5_v0,2023.2.2,Win32,84.74576271,,,,,,,,,,,,,,,,168.3705,169.4173,169.4173,173.4057,return,0.7925,,99.73958333,0,21,21,48,1,FBP-PT-17.png,0.43,1.2,49,0.25,,,,,,,,,,,,,,,,,,,,,,,,,,,,,,,,,,,,,,,,,,,,,
,,,,,SPR24_073,21,Female,2024-04-19_11h31.22.981,jersey_experiment_5_v0,2023.2.2,Win32,84.74576271,,,,,,,,,,,,,,,,173.406,174.4527,174.4527,177.8411,return,0.8615,,74.609375,0,22,22,22,1,FBP-YG-18.png,0.4,1.2,23,0.25,,,,,,,,,,,,,,,,,,,,,,,,,,,,,,,,,,,,,,,,,,,,,
,,,,,SPR24_073,21,Female,2024-04-19_11h31.22.981,jersey_experiment_5_v0,2023.2.2,Win32,84.74576271,,,,,,,,,,,,,,,,177.8413,179.1353,179.1354,181.6766,return,0.8049,,99.609375,0,23,23,14,1,FBP-OG-91.png,0.45,1.2,15,0.5,,,,,,,,,,,,,,,,,,,,,,,,,,,,,,,,,,,,,,,,,,,,,
,,,,,SPR24_073,21,Female,2024-04-19_11h31.22.981,jersey_experiment_5_v0,2023.2.2,Win32,84.74576271,,,,,,,,,,,,,,,,181.6769,182.9707,182.9708,185.7238,return,0.7592,,75,0,24,24,2,1,FBP-OG-71.png,0.4,1.2,3,0.5,,,,,,,,,,,,,,,,,,,,,,,,,,,,,,,,,,,,,,,,,,,,,
,,,,,SPR24_073,21,Female,2024-04-19_11h31.22.981,jersey_experiment_5_v0,2023.2.2,Win32,84.74576271,,,,,,,,,,,,,,,,185.724,187.018,187.018,190.2533,return,1.4986,,24.609375,0,25,25,0,1,FBP-OG-71.png,0.35,1.2,1,0.5,,,,,,,,,,,,,,,,,,,,,,,,,,,,,,,,,,,,,,,,,,,,,
,,,,,SPR24_073,21,Female,2024-04-19_11h31.22.981,jersey_experiment_5_v0,2023.2.2,Win32,84.74576271,,,,,,,,,,,,,,,,190.2534,191.5474,191.5474,197.83,return,1.0453,,99.609375,0,26,26,33,1,FBP-RB-17.png,0.43,1.2,34,0.5,,,,,,,,,,,,,,,,,,,,,,,,,,,,,,,,,,,,,,,,,,,,,
,,,,,SPR24_073,21,Female,2024-04-19_11h31.22.981,jersey_experiment_5_v0,2023.2.2,Win32,84.74576271,,,,,,,,,,,,,,,,197.8302,199.1241,199.1241,201.6538,return,0.7672,,74.73958333,0,27,27,42,1,FBP-RB-19.png,0.4,1.2,43,0.5,,,,,,,,,,,,,,,,,,,,,,,,,,,,,,,,,,,,,,,,,,,,,
,,,,,SPR24_073,21,Female,2024-04-19_11h31.22.981,jersey_experiment_5_v0,2023.2.2,Win32,84.74576271,,,,,,,,,,,,,,,,201.6539,202.7007,202.7008,204.948,return,0.6734,,99.47916667,0,28,28,23,1,FBP-YG-18.png,0.43,1.2,24,0.25,,,,,,,,,,,,,,,,,,,,,,,,,,,,,,,,,,,,,,,,,,,,,
,,,,,SPR24_073,21,Female,2024-04-19_11h31.22.981,jersey_experiment_5_v0,2023.2.2,Win32,84.74576271,,,,,,,,,,,,,,,,204.9483,206.2423,206.2423,207.6657,return,0.6944,,99.47916667,0,29,29,39,1,FBP-RB-18.png,0.45,1.2,40,0.5,,,,,,,,,,,,,,,,,,,,,,,,,,,,,,,,,,,,,,,,,,,,,
,,,,,SPR24_073,21,Female,2024-04-19_11h31.22.981,jersey_experiment_5_v0,2023.2.2,Win32,84.74576271,,,,,,,,,,,,,,,,207.6659,208.7128,208.7128,210.254,return,0.5708,,99.47916667,0,30,30,49,1,FBP-PT-17.png,0.45,1.2,50,0.25,,,,,,,,,,,,,,,,,,,,,,,,,,,,,,,,,,,,,,,,,,,,,
,,,,,SPR24_073,21,Female,2024-04-19_11h31.22.981,jersey_experiment_5_v0,2023.2.2,Win32,84.74576271,,,,,,,,,,,,,,,,210.2541,211.3011,211.3012,212.8543,return,0.7202,,99.47916667,0,31,31,53,1,FBP-PT-18.png,0.43,1.2,54,0.25,,,,,,,,,,,,,,,,,,,,,,,,,,,,,,,,,,,,,,,,,,,,,
,,,,,SPR24_073,21,Female,2024-04-19_11h31.22.981,jersey_experiment_5_v0,2023.2.2,Win32,84.74576271,,,,,,,,,,,,,,,,212.8545,213.9011,213.9011,216.0308,return,1.0056,,100,0,32,32,24,1,FBP-YG-18.png,0.45,1.2,25,0.25,,,,,,,,,,,,,,,,,,,,,,,,,,,,,,,,,,,,,,,,,,,,,
,,,,,SPR24_073,21,Female,2024-04-19_11h31.22.981,jersey_experiment_5_v0,2023.2.2,Win32,84.74576271,,,,,,,,,,,,,,,,216.0311,217.0778,217.0778,219.925,return,0.7861,,25,0,33,33,16,1,FBP-YG-17.png,0.37,1.2,17,0.25,,,,,,,,,,,,,,,,,,,,,,,,,,,,,,,,,,,,,,,,,,,,,
,,,,,SPR24_073,21,Female,2024-04-19_11h31.22.981,jersey_experiment_5_v0,2023.2.2,Win32,84.74576271,,,,,,,,,,,,,,,,219.9253,220.972,220.9721,222.4426,return,0.6214,,25,0,34,34,56,1,FBP-PT-19.png,0.37,1.2,57,0.25,,,,,,,,,,,,,,,,,,,,,,,,,,,,,,,,,,,,,,,,,,,,,
,,,,,SPR24_073,21,Female,2024-04-19_11h31.22.981,jersey_experiment_5_v0,2023.2.2,Win32,84.74576271,,,,,,,,,,,,,,,,222.4427,223.7369,223.7369,225.8192,return,1.3007,,25,0,35,35,6,1,FBP-OG-81.png,0.37,1.2,7,0.5,,,,,,,,,,,,,,,,,,,,,,,,,,,,,,,,,,,,,,,,,,,,,
,,,,,SPR24_073,21,Female,2024-04-19_11h31.22.981,jersey_experiment_5_v0,2023.2.2,Win32,84.74576271,,,,,,,,,,,,,,,,225.8194,227.1135,227.1135,229.5371,return,0.7535,,99.21875,0,36,36,9,1,FBP-OG-81.png,0.45,1.2,10,0.5,,,,,,,,,,,,,,,,,,,,,,,,,,,,,,,,,,,,,,,,,,,,,
,,,,,SPR24_073,21,Female,2024-04-19_11h31.22.981,jersey_experiment_5_v0,2023.2.2,Win32,84.74576271,,,,,,,,,,,,,,,,229.5374,230.8312,230.8313,233.3137,return,0.7554,,25.13020833,0,37,37,30,1,FBP-RB-17.png,0.35,1.2,31,0.5,,,,,,,,,,,,,,,,,,,,,,,,,,,,,,,,,,,,,,,,,,,,,
,,,,,SPR24_073,21,Female,2024-04-19_11h31.22.981,jersey_experiment_5_v0,2023.2.2,Win32,84.74576271,,,,,,,,,,,,,,,,233.3138,234.6078,234.6078,235.9491,return,0.6757,,25.13020833,0,38,38,36,1,FBP-RB-18.png,0.37,1.2,37,0.5,,,,,,,,,,,,,,,,,,,,,,,,,,,,,,,,,,,,,,,,,,,,,
,,,,,SPR24_073,21,Female,2024-04-19_11h31.22.981,jersey_experiment_5_v0,2023.2.2,Win32,84.74576271,,,,,,,,,,,,,,,,235.9493,236.9962,236.9962,238.5964,return,0.8477,,25.13020833,0,39,39,46,1,FBP-PT-17.png,0.37,1.2,47,0.25,,,,,,,,,,,,,,,,,,,,,,,,,,,,,,,,,,,,,,,,,,,,,
,,,,,SPR24_073,21,Female,2024-04-19_11h31.22.981,jersey_experiment_5_v0,2023.2.2,Win32,84.74576271,,,,,,,,,,,,,,,,238.5965,239.8904,239.8904,244.9259,return,2.112,,50,0,40,40,5,1,FBP-OG-81.png,0.35,1.2,6,0.5,,,,,,,,,,,,,,,,,,,,,,,,,,,,,,,,,,,,,,,,,,,,,
,,,,,SPR24_073,21,Female,2024-04-19_11h31.22.981,jersey_experiment_5_v0,2023.2.2,Win32,84.74576271,,,,,,,,,,,,,,,,244.9263,246.2201,246.2201,248.2908,return,0.7065,,99.21875,0,41,41,3,1,FBP-OG-71.png,0.43,1.2,4,0.5,,,,,,,,,,,,,,,,,,,,,,,,,,,,,,,,,,,,,,,,,,,,,
,,,,,SPR24_073,21,Female,2024-04-19_11h31.22.981,jersey_experiment_5_v0,2023.2.2,Win32,84.74576271,,,,,,,,,,,,,,,,248.291,249.3379,249.3379,251.9261,return,0.9505,,25.26041667,0,42,42,15,1,FBP-YG-17.png,0.35,1.2,16,0.25,,,,,,,,,,,,,,,,,,,,,,,,,,,,,,,,,,,,,,,,,,,,,
,,,,,SPR24_073,21,Female,2024-04-19_11h31.22.981,jersey_experiment_5_v0,2023.2.2,Win32,84.74576271,,,,,,,,,,,,,,,,251.9263,253.2202,253.2202,254.6086,return,0.7656,,24.86979167,0,43,43,35,1,FBP-RB-18.png,0.35,1.2,36,0.5,,,,,,,,,,,,,,,,,,,,,,,,,,,,,,,,,,,,,,,,,,,,,
,,,,,SPR24_073,21,Female,2024-04-19_11h31.22.981,jersey_experiment_5_v0,2023.2.2,Win32,84.74576271,,,,,,,,,,,,,,,,254.6088,255.9026,255.9026,258.2088,return,0.8364,,99.609375,0,44,44,13,1,FBP-OG-91.png,0.43,1.2,14,0.5,,,,,,,,,,,,,,,,,,,,,,,,,,,,,,,,,,,,,,,,,,,,,
,,,,,SPR24_073,21,Female,2024-04-19_11h31.22.981,jersey_experiment_5_v0,2023.2.2,Win32,84.74576271,,,,,,,,,,,,,,,,258.209,259.5028,259.5028,263.9735,return,2.6119,,99.34895833,0,45,45,43,1,FBP-RB-19.png,0.43,1.2,44,0.5,,,,,,,,,,,,,,,,,,,,,,,,,,,,,,,,,,,,,,,,,,,,,
,,,,,SPR24_073,21,Female,2024-04-19_11h31.22.981,jersey_experiment_5_v0,2023.2.2,Win32,84.74576271,,,,,,,,,,,,,,,,263.9737,265.0207,265.0207,267.1737,return,0.8709,,25.13020833,0,46,46,26,1,FBP-YG-19.png,0.37,1.2,27,0.25,,,,,,,,,,,,,,,,,,,,,,,,,,,,,,,,,,,,,,,,,,,,,
,,,,,SPR24_073,21,Female,2024-04-19_11h31.22.981,jersey_experiment_5_v0,2023.2.2,Win32,84.74576271,,,,,,,,,,,,,,,,267.1739,268.2208,268.2209,272.3974,return,0.7832,,99.86979167,0,47,47,58,1,FBP-PT-19.png,0.43,1.2,59,0.25,,,,,,,,,,,,,,,,,,,,,,,,,,,,,,,,,,,,,,,,,,,,,
,,,,,SPR24_073,21,Female,2024-04-19_11h31.22.981,jersey_experiment_5_v0,2023.2.2,Win32,84.74576271,,,,,,,,,,,,,,,,272.3978,273.4446,273.4447,275.7152,return,0.7301,,25.390625,0,48,48,50,1,FBP-PT-18.png,0.35,1.2,51,0.25,,,,,,,,,,,,,,,,,,,,,,,,,,,,,,,,,,,,,,,,,,,,,
,,,,,SPR24_073,21,Female,2024-04-19_11h31.22.981,jersey_experiment_5_v0,2023.2.2,Win32,84.74576271,,,,,,,,,,,,,,,,275.7154,277.0093,277.0094,279.174,return,0.6588,,74.08854167,0,49,49,37,1,FBP-RB-18.png,0.4,1.2,38,0.5,,,,,,,,,,,,,,,,,,,,,,,,,,,,,,,,,,,,,,,,,,,,,
,,,,,SPR24_073,21,Female,2024-04-19_11h31.22.981,jersey_experiment_5_v0,2023.2.2,Win32,84.74576271,,,,,,,,,,,,,,,,279.1741,280.4682,280.4683,282.8803,return,0.8021,,25,0,50,50,10,1,FBP-OG-91.png,0.35,1.2,11,0.5,,,,,,,,,,,,,,,,,,,,,,,,,,,,,,,,,,,,,,,,,,,,,
,,,,,SPR24_073,21,Female,2024-04-19_11h31.22.981,jersey_experiment_5_v0,2023.2.2,Win32,84.74576271,,,,,,,,,,,,,,,,282.8806,283.9272,283.9272,285.2684,return,0.6585,,25,0,51,51,25,1,FBP-YG-19.png,0.35,1.2,26,0.25,,,,,,,,,,,,,,,,,,,,,,,,,,,,,,,,,,,,,,,,,,,,,
,,,,,SPR24_073,21,Female,2024-04-19_11h31.22.981,jersey_experiment_5_v0,2023.2.2,Win32,84.74576271,,,,,,,,,,,,,,,,285.2687,286.3156,286.3157,291.9393,return,1.3886,,50,0,52,52,51,1,FBP-PT-18.png,0.37,1.2,52,0.25,,,,,,,,,,,,,,,,,,,,,,,,,,,,,,,,,,,,,,,,,,,,,
,,,,,SPR24_073,21,Female,2024-04-19_11h31.22.981,jersey_experiment_5_v0,2023.2.2,Win32,84.74576271,,,,,,,,,,,,,,,,291.9396,292.9862,292.9862,295.0689,return,0.8189,,99.73958333,0,53,53,18,1,FBP-YG-17.png,0.43,1.2,19,0.25,,,,,,,,,,,,,,,,,,,,,,,,,,,,,,,,,,,,,,,,,,,,,
,,,,,SPR24_073,21,Female,2024-04-19_11h31.22.981,jersey_experiment_5_v0,2023.2.2,Win32,84.74576271,,,,,,,,,,,,,,,,295.069,296.1159,296.1159,297.8454,return,0.602,,99.73958333,0,54,54,19,1,FBP-YG-17.png,0.45,1.2,20,0.25,,,,,,,,,,,,,,,,,,,,,,,,,,,,,,,,,,,,,,,,,,,,,
,,,,,SPR24_073,21,Female,2024-04-19_11h31.22.981,jersey_experiment_5_v0,2023.2.2,Win32,84.74576271,,,,,,,,,,,,,,,,297.8455,299.1396,299.1396,301.5043,return,0.7329,,24.86979167,0,55,55,41,1,FBP-RB-19.png,0.37,1.2,42,0.5,,,,,,,,,,,,,,,,,,,,,,,,,,,,,,,,,,,,,,,,,,,,,
,,,,,SPR24_073,21,Female,2024-04-19_11h31.22.981,jersey_experiment_5_v0,2023.2.2,Win32,84.74576271,,,,,,,,,,,,,,,,301.5045,302.7985,302.7985,304.1631,return,0.8713,,24.86979167,0,56,56,11,1,FBP-OG-91.png,0.37,1.2,12,0.5,,,,,,,,,,,,,,,,,,,,,,,,,,,,,,,,,,,,,,,,,,,,,
,,,,,SPR24_073,21,Female,2024-04-19_11h31.22.981,jersey_experiment_5_v0,2023.2.2,Win32,84.74576271,,,,,,,,,,,,,,,,304.1634,305.4574,305.4575,310.3399,return,3.3085,,61.84895833,0,57,57,32,1,FBP-RB-17.png,0.4,1.2,33,0.5,,,,,,,,,,,,,,,,,,,,,,,,,,,,,,,,,,,,,,,,,,,,,
,,,,,SPR24_073,21,Female,2024-04-19_11h31.22.981,jersey_experiment_5_v0,2023.2.2,Win32,84.74576271,,,,,,,,,,,,,,,,310.3402,311.634,311.6341,316.0815,return,0.7066,,74.47916667,0,58,58,7,1,FBP-OG-81.png,0.4,1.2,8,0.5,,,,,,,,,,,,,,,,,,,,,,,,,,,,,,,,,,,,,,,,,,,,,
,,,,,SPR24_073,21,Female,2024-04-19_11h31.22.981,jersey_experiment_5_v0,2023.2.2,Win32,84.74576271,,,,,,,,,,,,,,,,316.0817,317.1283,317.1283,319.5404,return,1.0825,,24.21875,0,59,59,45,1,FBP-PT-17.png,0.35,1.2,46,0.25,,,,,,,,,,,,,,,,,,,,,,,,,,,,,,,,,,,,,,,,,,,,,
,,,,,SPR24_073,21,Female,2024-04-19_11h31.22.981,jersey_experiment_5_v0,2023.2.2,Win32,84.74576271,,,,,,,,,,,,,,,,319.5424,320.8345,320.8345,322.6934,return,0.7056,,98.30729167,,,,,,FBP-OG-17.png,0.45,1.2,5,0.5,0,0,0,4,1,,,,,,,,,,,,,,,,,,,,,,,,,,,,,,,,,,,,,,,,
,,,,,SPR24_073,21,Female,2024-04-19_11h31.22.981,jersey_experiment_5_v0,2023.2.2,Win32,84.74576271,,,,,,,,,,,,,,,,322.6938,323.9877,323.9878,326.9169,return,0.7999,,24.73958333,,,,,,FBP-OG-19.png,0.35,1.2,11,0.5,0,1,1,10,1,,,,,,,,,,,,,,,,,,,,,,,,,,,,,,,,,,,,,,,,
,,,,,SPR24_073,21,Female,2024-04-19_11h31.22.981,jersey_experiment_5_v0,2023.2.2,Win32,84.74576271,,,,,,,,,,,,,,,,326.9173,328.2112,328.2112,329.4111,return,0.6596,,25,,,,,,FBP-RB-91.png,0.37,1.2,42,0.5,0,2,2,41,1,,,,,,,,,,,,,,,,,,,,,,,,,,,,,,,,,,,,,,,,
,,,,,SPR24_073,21,Female,2024-04-19_11h31.22.981,jersey_experiment_5_v0,2023.2.2,Win32,84.74576271,,,,,,,,,,,,,,,,329.4114,330.7053,330.7053,333.0348,return,1.8209,,50.13020833,,,,,,FBP-OG-19.png,0.37,1.2,12,0.5,0,3,3,11,1,,,,,,,,,,,,,,,,,,,,,,,,,,,,,,,,,,,,,,,,
,,,,,SPR24_073,21,Female,2024-04-19_11h31.22.981,jersey_experiment_5_v0,2023.2.2,Win32,84.74576271,,,,,,,,,,,,,,,,333.0348,334.3291,334.3291,337.5526,return,0.709,,99.86979167,,,,,,FBP-OG-17.png,0.43,1.2,4,0.5,0,4,4,3,1,,,,,,,,,,,,,,,,,,,,,,,,,,,,,,,,,,,,,,,,
,,,,,SPR24_073,21,Female,2024-04-19_11h31.22.981,jersey_experiment_5_v0,2023.2.2,Win32,84.74576271,,,,,,,,,,,,,,,,337.5528,338.5997,338.5997,341.0586,return,0.7071,,25,,,,,,FBP-YG-91.png,0.35,1.2,26,0.25,0,5,5,25,1,,,,,,,,,,,,,,,,,,,,,,,,,,,,,,,,,,,,,,,,
,,,,,SPR24_073,21,Female,2024-04-19_11h31.22.981,jersey_experiment_5_v0,2023.2.2,Win32,84.74576271,,,,,,,,,,,,,,,,341.0589,342.3528,342.3528,343.5883,return,0.7436,,25,,,,,,FBP-OG-17.png,0.37,1.2,2,0.5,0,6,6,1,1,,,,,,,,,,,,,,,,,,,,,,,,,,,,,,,,,,,,,,,,
,,,,,SPR24_073,21,Female,2024-04-19_11h31.22.981,jersey_experiment_5_v0,2023.2.2,Win32,84.74576271,,,,,,,,,,,,,,,,343.5884,344.6352,344.6352,347.1179,return,0.7238,,49.08854167,,,,,,FBP-YG-71.png,0.37,1.2,17,0.25,0,7,7,16,1,,,,,,,,,,,,,,,,,,,,,,,,,,,,,,,,,,,,,,,,
,,,,,SPR24_073,21,Female,2024-04-19_11h31.22.981,jersey_experiment_5_v0,2023.2.2,Win32,84.74576271,,,,,,,,,,,,,,,,347.118,348.1648,348.1648,350.0825,return,0.6113,,99.47916667,,,,,,FBP-YG-91.png,0.43,1.2,29,0.25,0,8,8,28,1,,,,,,,,,,,,,,,,,,,,,,,,,,,,,,,,,,,,,,,,
,,,,,SPR24_073,21,Female,2024-04-19_11h31.22.981,jersey_experiment_5_v0,2023.2.2,Win32,84.74576271,,,,,,,,,,,,,,,,350.0827,351.1299,351.13,356.0475,return,0.7808,,50,,,,,,FBP-YG-91.png,0.37,1.2,27,0.25,0,9,9,26,1,,,,,,,,,,,,,,,,,,,,,,,,,,,,,,,,,,,,,,,,
,,,,,SPR24_073,21,Female,2024-04-19_11h31.22.981,jersey_experiment_5_v0,2023.2.2,Win32,84.74576271,,,,,,,,,,,,,,,,356.0476,357.3417,357.3417,360.4006,return,0.7419,,99.86979167,,,,,,FBP-OG-19.png,0.45,1.2,15,0.5,0,10,10,14,1,,,,,,,,,,,,,,,,,,,,,,,,,,,,,,,,,,,,,,,,
,,,,,SPR24_073,21,Female,2024-04-19_11h31.22.981,jersey_experiment_5_v0,2023.2.2,Win32,84.74576271,,,,,,,,,,,,,,,,360.4008,361.4478,361.4478,363.1654,return,0.7335,,99.86979167,,,,,,FBP-YG-81.png,0.45,1.2,25,0.25,0,11,11,24,1,,,,,,,,,,,,,,,,,,,,,,,,,,,,,,,,,,,,,,,,
,,,,,SPR24_073,21,Female,2024-04-19_11h31.22.981,jersey_experiment_5_v0,2023.2.2,Win32,84.74576271,,,,,,,,,,,,,,,,363.1657,364.4596,364.4596,368.3185,return,0.6762,,25,,,,,,FBP-OG-18.png,0.37,1.2,7,0.5,0,12,12,6,1,,,,,,,,,,,,,,,,,,,,,,,,,,,,,,,,,,,,,,,,
,,,,,SPR24_073,21,Female,2024-04-19_11h31.22.981,jersey_experiment_5_v0,2023.2.2,Win32,84.74576271,,,,,,,,,,,,,,,,368.3187,369.6129,369.6129,372.8481,return,0.9212,,75.26041667,,,,,,FBP-OG-18.png,0.4,1.2,8,0.5,0,13,13,7,1,,,,,,,,,,,,,,,,,,,,,,,,,,,,,,,,,,,,,,,,
,,,,,SPR24_073,21,Female,2024-04-19_11h31.22.981,jersey_experiment_5_v0,2023.2.2,Win32,84.74576271,,,,,,,,,,,,,,,,372.8484,373.8951,373.8951,375.8364,return,0.7367,,25.52083333,,,,,,FBP-PT-91.png,0.35,1.2,56,0.25,0,14,14,55,1,,,,,,,,,,,,,,,,,,,,,,,,,,,,,,,,,,,,,,,,
,,,,,SPR24_073,21,Female,2024-04-19_11h31.22.981,jersey_experiment_5_v0,2023.2.2,Win32,84.74576271,,,,,,,,,,,,,,,,375.8366,376.8835,376.8836,380.3306,return,0.9126,,99.609375,,,,,,FBP-PT-81.png,0.43,1.2,54,0.25,0,15,15,53,1,,,,,,,,,,,,,,,,,,,,,,,,,,,,,,,,,,,,,,,,
,,,,,SPR24_073,21,Female,2024-04-19_11h31.22.981,jersey_experiment_5_v0,2023.2.2,Win32,84.74576271,,,,,,,,,,,,,,,,380.3309,381.3778,381.3779,382.8132,return,0.7481,,99.609375,,,,,,FBP-PT-71.png,0.43,1.2,49,0.25,0,16,16,48,1,,,,,,,,,,,,,,,,,,,,,,,,,,,,,,,,,,,,,,,,
,,,,,SPR24_073,21,Female,2024-04-19_11h31.22.981,jersey_experiment_5_v0,2023.2.2,Win32,84.74576271,,,,,,,,,,,,,,,,382.8134,384.1073,384.1074,386.4133,return,0.6773,,73.95833333,,,,,,FBP-RB-81.png,0.4,1.2,38,0.5,0,17,17,37,1,,,,,,,,,,,,,,,,,,,,,,,,,,,,,,,,,,,,,,,,
,,,,,SPR24_073,21,Female,2024-04-19_11h31.22.981,jersey_experiment_5_v0,2023.2.2,Win32,84.74576271,,,,,,,,,,,,,,,,386.4135,387.4603,387.4604,389.8251,return,0.7675,,99.34895833,,,,,,FBP-PT-71.png,0.45,1.2,50,0.25,0,18,18,49,1,,,,,,,,,,,,,,,,,,,,,,,,,,,,,,,,,,,,,,,,
,,,,,SPR24_073,21,Female,2024-04-19_11h31.22.981,jersey_experiment_5_v0,2023.2.2,Win32,84.74576271,,,,,,,,,,,,,,,,389.8254,390.8721,390.8721,392.8488,return,0.7795,,25.13020833,,,,,,FBP-PT-71.png,0.35,1.2,46,0.25,0,19,19,45,1,,,,,,,,,,,,,,,,,,,,,,,,,,,,,,,,,,,,,,,,
,,,,,SPR24_073,21,Female,2024-04-19_11h31.22.981,jersey_experiment_5_v0,2023.2.2,Win32,84.74576271,,,,,,,,,,,,,,,,392.849,393.8958,393.8959,396.5548,return,1.2299,,75.390625,,,,,,FBP-PT-91.png,0.43,1.2,59,0.25,0,20,20,58,1,,,,,,,,,,,,,,,,,,,,,,,,,,,,,,,,,,,,,,,,
,,,,,SPR24_073,21,Female,2024-04-19_11h31.22.981,jersey_experiment_5_v0,2023.2.2,Win32,84.74576271,,,,,,,,,,,,,,,,396.555,397.8489,397.8489,400.2256,return,0.8379,,99.34895833,,,,,,FBP-RB-81.png,0.45,1.2,40,0.5,0,21,21,39,1,,,,,,,,,,,,,,,,,,,,,,,,,,,,,,,,,,,,,,,,
,,,,,SPR24_073,21,Female,2024-04-19_11h31.22.981,jersey_experiment_5_v0,2023.2.2,Win32,84.74576271,,,,,,,,,,,,,,,,400.2258,401.2725,401.2725,404.5787,return,1.6148,,24.609375,,,,,,FBP-PT-71.png,0.37,1.2,47,0.25,0,22,22,46,1,,,,,,,,,,,,,,,,,,,,,,,,,,,,,,,,,,,,,,,,
,,,,,SPR24_073,21,Female,2024-04-19_11h31.22.981,jersey_experiment_5_v0,2023.2.2,Win32,84.74576271,,,,,,,,,,,,,,,,404.5789,405.8727,405.8727,407.9787,return,0.5972,,75.13020833,,,,,,FBP-RB-81.png,0.43,1.2,39,0.5,0,23,23,38,1,,,,,,,,,,,,,,,,,,,,,,,,,,,,,,,,,,,,,,,,
,,,,,SPR24_073,21,Female,2024-04-19_11h31.22.981,jersey_experiment_5_v0,2023.2.2,Win32,84.74576271,,,,,,,,,,,,,,,,407.9789,409.0259,409.0259,410.3787,return,0.644,,75.13020833,,,,,,FBP-PT-91.png,0.4,1.2,58,0.25,0,24,24,57,1,,,,,,,,,,,,,,,,,,,,,,,,,,,,,,,,,,,,,,,,
,,,,,SPR24_073,21,Female,2024-04-19_11h31.22.981,jersey_experiment_5_v0,2023.2.2,Win32,84.74576271,,,,,,,,,,,,,,,,410.3789,411.673,411.673,413.0729,return,0.5794,,75.13020833,,,,,,FBP-OG-19.png,0.43,1.2,14,0.5,0,25,25,13,1,,,,,,,,,,,,,,,,,,,,,,,,,,,,,,,,,,,,,,,,
,,,,,SPR24_073,21,Female,2024-04-19_11h31.22.981,jersey_experiment_5_v0,2023.2.2,Win32,84.74576271,,,,,,,,,,,,,,,,413.0731,414.3672,414.3672,416.7084,return,1.3647,,25,,,,,,FBP-RB-91.png,0.35,1.2,41,0.5,0,26,26,40,1,,,,,,,,,,,,,,,,,,,,,,,,,,,,,,,,,,,,,,,,
,,,,,SPR24_073,21,Female,2024-04-19_11h31.22.981,jersey_experiment_5_v0,2023.2.2,Win32,84.74576271,,,,,,,,,,,,,,,,416.7087,417.7556,417.7557,420.4144,return,0.7701,,75,,,,,,FBP-PT-81.png,0.4,1.2,53,0.25,0,27,27,52,1,,,,,,,,,,,,,,,,,,,,,,,,,,,,,,,,,,,,,,,,
,,,,,SPR24_073,21,Female,2024-04-19_11h31.22.981,jersey_experiment_5_v0,2023.2.2,Win32,84.74576271,,,,,,,,,,,,,,,,420.4147,421.4615,421.4616,422.838,return,0.7199,,75,,,,,,FBP-YG-71.png,0.4,1.2,18,0.25,0,28,28,17,1,,,,,,,,,,,,,,,,,,,,,,,,,,,,,,,,,,,,,,,,
,,,,,SPR24_073,21,Female,2024-04-19_11h31.22.981,jersey_experiment_5_v0,2023.2.2,Win32,84.74576271,,,,,,,,,,,,,,,,422.8383,423.8852,423.8852,426.5912,return,0.663,,99.609375,,,,,,FBP-YG-81.png,0.43,1.2,24,0.25,0,29,29,23,1,,,,,,,,,,,,,,,,,,,,,,,,,,,,,,,,,,,,,,,,
,,,,,SPR24_073,21,Female,2024-04-19_11h31.22.981,jersey_experiment_5_v0,2023.2.2,Win32,84.74576271,,,,,,,,,,,,,,,,426.5915,427.6382,427.6383,429.5207,return,0.6501,,75.13020833,,,,,,FBP-PT-91.png,0.37,1.2,57,0.25,0,30,30,56,1,,,,,,,,,,,,,,,,,,,,,,,,,,,,,,,,,,,,,,,,
,,,,,SPR24_073,21,Female,2024-04-19_11h31.22.981,jersey_experiment_5_v0,2023.2.2,Win32,84.74576271,,,,,,,,,,,,,,,,429.521,430.8149,430.8149,432.015,return,0.7083,,75.13020833,,,,,,FBP-RB-91.png,0.4,1.2,43,0.5,0,31,31,42,1,,,,,,,,,,,,,,,,,,,,,,,,,,,,,,,,,,,,,,,,
,,,,,SPR24_073,21,Female,2024-04-19_11h31.22.981,jersey_experiment_5_v0,2023.2.2,Win32,84.74576271,,,,,,,,,,,,,,,,432.0152,433.0619,433.0619,436.4621,return,0.888,,50.13020833,,,,,,FBP-YG-81.png,0.37,1.2,22,0.25,0,32,32,21,1,,,,,,,,,,,,,,,,,,,,,,,,,,,,,,,,,,,,,,,,
,,,,,SPR24_073,21,Female,2024-04-19_11h31.22.981,jersey_experiment_5_v0,2023.2.2,Win32,84.74576271,,,,,,,,,,,,,,,,436.4623,437.5091,437.5091,439.6151,return,0.6849,,25.13020833,,,,,,FBP-YG-71.png,0.35,1.2,16,0.25,0,33,33,15,1,,,,,,,,,,,,,,,,,,,,,,,,,,,,,,,,,,,,,,,,
,,,,,SPR24_073,21,Female,2024-04-19_11h31.22.981,jersey_experiment_5_v0,2023.2.2,Win32,84.74576271,,,,,,,,,,,,,,,,439.6154,440.6622,440.6623,443.0389,return,0.8053,,99.47916667,,,,,,FBP-YG-91.png,0.45,1.2,30,0.25,0,34,34,29,1,,,,,,,,,,,,,,,,,,,,,,,,,,,,,,,,,,,,,,,,
,,,,,SPR24_073,21,Female,2024-04-19_11h31.22.981,jersey_experiment_5_v0,2023.2.2,Win32,84.74576271,,,,,,,,,,,,,,,,443.039,444.3329,444.3331,448.0508,return,0.6599,,99.47916667,,,,,,FBP-RB-71.png,0.43,1.2,34,0.5,0,35,35,33,1,,,,,,,,,,,,,,,,,,,,,,,,,,,,,,,,,,,,,,,,
,,,,,SPR24_073,21,Female,2024-04-19_11h31.22.981,jersey_experiment_5_v0,2023.2.2,Win32,84.74576271,,,,,,,,,,,,,,,,448.051,449.3451,449.3451,451.4863,return,0.7114,,24.73958333,,,,,,FBP-RB-71.png,0.35,1.2,31,0.5,0,36,36,30,1,,,,,,,,,,,,,,,,,,,,,,,,,,,,,,,,,,,,,,,,
,,,,,SPR24_073,21,Female,2024-04-19_11h31.22.981,jersey_experiment_5_v0,2023.2.2,Win32,84.74576271,,,,,,,,,,,,,,,,451.4866,452.7803,452.7803,454.6276,return,0.7675,,23.95833333,,,,,,FBP-OG-18.png,0.35,1.2,6,0.5,0,37,37,5,1,,,,,,,,,,,,,,,,,,,,,,,,,,,,,,,,,,,,,,,,
,,,,,SPR24_073,21,Female,2024-04-19_11h31.22.981,jersey_experiment_5_v0,2023.2.2,Win32,84.74576271,,,,,,,,,,,,,,,,454.6278,455.6745,455.6745,458.404,return,0.6822,,74.86979167,,,,,,FBP-YG-91.png,0.4,1.2,28,0.25,0,38,38,27,1,,,,,,,,,,,,,,,,,,,,,,,,,,,,,,,,,,,,,,,,
,,,,,SPR24_073,21,Female,2024-04-19_11h31.22.981,jersey_experiment_5_v0,2023.2.2,Win32,84.74576271,,,,,,,,,,,,,,,,458.4041,459.6983,459.6983,461.8395,return,0.7806,,99.73958333,,,,,,FBP-OG-18.png,0.43,1.2,9,0.5,0,39,39,8,1,,,,,,,,,,,,,,,,,,,,,,,,,,,,,,,,,,,,,,,,
,,,,,SPR24_073,21,Female,2024-04-19_11h31.22.981,jersey_experiment_5_v0,2023.2.2,Win32,84.74576271,,,,,,,,,,,,,,,,461.8398,463.1335,463.1335,465.0984,return,1.3714,,99.73958333,,,,,,FBP-RB-91.png,0.43,1.2,44,0.5,0,40,40,43,1,,,,,,,,,,,,,,,,,,,,,,,,,,,,,,,,,,,,,,,,
,,,,,SPR24_073,21,Female,2024-04-19_11h31.22.981,jersey_experiment_5_v0,2023.2.2,Win32,84.74576271,,,,,,,,,,,,,,,,465.0986,466.3926,466.3927,467.6515,return,0.6828,,99.73958333,,,,,,FBP-OG-18.png,0.45,1.2,10,0.5,0,41,41,9,1,,,,,,,,,,,,,,,,,,,,,,,,,,,,,,,,,,,,,,,,
,,,,,SPR24_073,21,Female,2024-04-19_11h31.22.981,jersey_experiment_5_v0,2023.2.2,Win32,84.74576271,,,,,,,,,,,,,,,,467.6517,468.6986,468.6986,470.1928,return,0.7089,,99.73958333,,,,,,FBP-YG-81.png,0.4,1.2,23,0.25,0,42,42,22,1,,,,,,,,,,,,,,,,,,,,,,,,,,,,,,,,,,,,,,,,
,,,,,SPR24_073,21,Female,2024-04-19_11h31.22.981,jersey_experiment_5_v0,2023.2.2,Win32,84.74576271,,,,,,,,,,,,,,,,470.193,471.4869,471.487,473.6282,return,0.6666,,49.47916667,,,,,,FBP-RB-81.png,0.37,1.2,37,0.5,0,43,43,36,1,,,,,,,,,,,,,,,,,,,,,,,,,,,,,,,,,,,,,,,,
,,,,,SPR24_073,21,Female,2024-04-19_11h31.22.981,jersey_experiment_5_v0,2023.2.2,Win32,84.74576271,,,,,,,,,,,,,,,,473.6283,474.9222,474.9222,476.3342,return,0.7585,,49.47916667,,,,,,FBP-RB-71.png,0.37,1.2,32,0.5,0,44,44,31,1,,,,,,,,,,,,,,,,,,,,,,,,,,,,,,,,,,,,,,,,
,,,,,SPR24_073,21,Female,2024-04-19_11h31.22.981,jersey_experiment_5_v0,2023.2.2,Win32,84.74576271,,,,,,,,,,,,,,,,476.3345,477.3812,477.3812,480.6051,return,0.5453,,99.609375,,,,,,FBP-YG-71.png,0.45,1.2,20,0.25,0,45,45,19,1,,,,,,,,,,,,,,,,,,,,,,,,,,,,,,,,,,,,,,,,
,,,,,SPR24_073,21,Female,2024-04-19_11h31.22.981,jersey_experiment_5_v0,2023.2.2,Win32,84.74576271,,,,,,,,,,,,,,,,480.6053,481.8989,481.8989,484.052,return,0.659,,74.21875,,,,,,FBP-RB-71.png,0.4,1.2,33,0.5,0,46,46,32,1,,,,,,,,,,,,,,,,,,,,,,,,,,,,,,,,,,,,,,,,
,,,,,SPR24_073,21,Female,2024-04-19_11h31.22.981,jersey_experiment_5_v0,2023.2.2,Win32,84.74576271,,,,,,,,,,,,,,,,484.0523,485.0991,485.0992,488.5228,return,0.9599,,99.47916667,,,,,,FBP-PT-81.png,0.45,1.2,55,0.25,0,47,47,54,1,,,,,,,,,,,,,,,,,,,,,,,,,,,,,,,,,,,,,,,,
,,,,,SPR24_073,21,Female,2024-04-19_11h31.22.981,jersey_experiment_5_v0,2023.2.2,Win32,84.74576271,,,,,,,,,,,,,,,,488.5229,489.8169,489.817,491.4523,return,0.6879,,74.86979167,,,,,,FBP-OG-17.png,0.4,1.2,3,0.5,0,48,48,2,1,,,,,,,,,,,,,,,,,,,,,,,,,,,,,,,,,,,,,,,,
,,,,,SPR24_073,21,Female,2024-04-19_11h31.22.981,jersey_experiment_5_v0,2023.2.2,Win32,84.74576271,,,,,,,,,,,,,,,,491.4526,492.4994,492.4994,494.7702,return,0.9419,,99.47916667,,,,,,FBP-PT-91.png,0.45,1.2,60,0.25,0,49,49,59,1,,,,,,,,,,,,,,,,,,,,,,,,,,,,,,,,,,,,,,,,
,,,,,SPR24_073,21,Female,2024-04-19_11h31.22.981,jersey_experiment_5_v0,2023.2.2,Win32,84.74576271,,,,,,,,,,,,,,,,494.7704,495.817,495.817,497.8291,return,0.767,,74.47916667,,,,,,FBP-PT-71.png,0.4,1.2,48,0.25,0,50,50,47,1,,,,,,,,,,,,,,,,,,,,,,,,,,,,,,,,,,,,,,,,
,,,,,SPR24_073,21,Female,2024-04-19_11h31.22.981,jersey_experiment_5_v0,2023.2.2,Win32,84.74576271,,,,,,,,,,,,,,,,497.8293,498.876,498.876,501.1232,return,0.7052,,25,,,,,,FBP-PT-81.png,0.35,1.2,51,0.25,0,51,51,50,1,,,,,,,,,,,,,,,,,,,,,,,,,,,,,,,,,,,,,,,,
,,,,,SPR24_073,21,Female,2024-04-19_11h31.22.981,jersey_experiment_5_v0,2023.2.2,Win32,84.74576271,,,,,,,,,,,,,,,,501.1234,502.4174,502.4174,504.8292,return,1.0272,,99.47916667,,,,,,FBP-RB-71.png,0.45,1.2,35,0.5,0,52,52,34,1,,,,,,,,,,,,,,,,,,,,,,,,,,,,,,,,,,,,,,,,
,,,,,SPR24_073,21,Female,2024-04-19_11h31.22.981,jersey_experiment_5_v0,2023.2.2,Win32,84.74576271,,,,,,,,,,,,,,,,504.8294,505.8763,505.8764,508.4529,return,0.9035,,75.52083333,,,,,,FBP-YG-81.png,0.35,1.2,21,0.25,0,53,53,20,1,,,,,,,,,,,,,,,,,,,,,,,,,,,,,,,,,,,,,,,,
,,,,,SPR24_073,21,Female,2024-04-19_11h31.22.981,jersey_experiment_5_v0,2023.2.2,Win32,84.74576271,,,,,,,,,,,,,,,,508.4531,509.747,509.747,511.8531,return,0.7803,,24.609375,,,,,,FBP-RB-81.png,0.35,1.2,36,0.5,0,54,54,35,1,,,,,,,,,,,,,,,,,,,,,,,,,,,,,,,,,,,,,,,,
,,,,,SPR24_073,21,Female,2024-04-19_11h31.22.981,jersey_experiment_5_v0,2023.2.2,Win32,84.74576271,,,,,,,,,,,,,,,,511.8534,513.1472,513.1472,514.3823,return,0.7816,,24.609375,,,,,,FBP-OG-17.png,0.35,1.2,1,0.5,0,55,55,0,1,,,,,,,,,,,,,,,,,,,,,,,,,,,,,,,,,,,,,,,,
,,,,,SPR24_073,21,Female,2024-04-19_11h31.22.981,jersey_experiment_5_v0,2023.2.2,Win32,84.74576271,,,,,,,,,,,,,,,,514.3826,515.6765,515.6765,517.6768,return,0.76,,74.609375,,,,,,FBP-OG-19.png,0.4,1.2,13,0.5,0,56,56,12,1,,,,,,,,,,,,,,,,,,,,,,,,,,,,,,,,,,,,,,,,
,,,,,SPR24_073,21,Female,2024-04-19_11h31.22.981,jersey_experiment_5_v0,2023.2.2,Win32,84.74576271,,,,,,,,,,,,,,,,517.677,518.7238,518.7239,520.8767,return,0.8065,,99.34895833,,,,,,FBP-YG-71.png,0.43,1.2,19,0.25,0,57,57,18,1,,,,,,,,,,,,,,,,,,,,,,,,,,,,,,,,,,,,,,,,
,,,,,SPR24_073,21,Female,2024-04-19_11h31.22.981,jersey_experiment_5_v0,2023.2.2,Win32,84.74576271,,,,,,,,,,,,,,,,520.8769,522.171,522.1711,524.3829,return,1.8167,,99.34895833,,,,,,FBP-RB-91.png,0.45,1.2,45,0.5,0,58,58,44,1,,,,,,,,,,,,,,,,,,,,,,,,,,,,,,,,,,,,,,,,
,,,,,SPR24_073,21,Female,2024-04-19_11h31.22.981,jersey_experiment_5_v0,2023.2.2,Win32,84.74576271,,,,,,,,,,,,,,,,524.383,525.43,525.4301,529.3595,return,2.5191,,74.609375,,,,,,FBP-PT-81.png,0.37,1.2,52,0.25,0,59,59,51,1,,,,,,,,,,,,,,,,,,,,,,,,,,,,,,,,,,,,,,,,
,,,,,SPR24_073,21,Female,2024-04-19_11h31.22.981,jersey_experiment_5_v0,2023.2.2,Win32,84.74576271,,,,,,,,,,,,,,,,,,,,,,,,,,,,,,,,,,,,,,,529.3599,649.3521,,,,,,,,,,,,,,,,,,,,,,,,,,,,,,,,,,,,,,
,,,,,SPR24_073,21,Female,2024-04-19_11h31.22.981,jersey_experiment_5_v0,2023.2.2,Win32,84.74576271,,,,,,,,,,,,,,,,,,,,,,,,,,,,,,,,,,,,,,,,,649.3522,652.9287,return,3.5652,,,,,,,,,,,,,,,,,,,,,,,,,,,,,,,,,,
,,,,,SPR24_073,21,Female,2024-04-19_11h31.22.981,jersey_experiment_5_v0,2023.2.2,Win32,84.74576271,,,,,,,,,,,,,,,,652.9351,653.9876,653.9877,658.2229,return,0.9317,,75,,,,,,FBP-OG-91.png,0.43,1.2,14,0.25,,,,,,,,,,,,,0,0,0,13,1,,,,,,,,,,,,,,,,,,,,,,,,,,,,
,,,,,SPR24_073,21,Female,2024-04-19_11h31.22.981,jersey_experiment_5_v0,2023.2.2,Win32,84.74576271,,,,,,,,,,,,,,,,658.2232,659.517,659.5171,662.0583,return,1.468,,25,,,,,,FBP-PT-19.png,0.35,1.2,56,0.5,,,,,,,,,,,,,0,1,1,55,1,,,,,,,,,,,,,,,,,,,,,,,,,,,,
,,,,,SPR24_073,21,Female,2024-04-19_11h31.22.981,jersey_experiment_5_v0,2023.2.2,Win32,84.74576271,,,,,,,,,,,,,,,,662.0585,663.1055,663.1055,664.8116,return,0.841,,24.86979167,,,,,,FBP-RB-17.png,0.35,1.2,31,0.25,,,,,,,,,,,,,0,2,2,30,1,,,,,,,,,,,,,,,,,,,,,,,,,,,,
,,,,,SPR24_073,21,Female,2024-04-19_11h31.22.981,jersey_experiment_5_v0,2023.2.2,Win32,84.74576271,,,,,,,,,,,,,,,,664.8118,665.8586,665.8586,667.541,return,0.6921,,25.26041667,,,,,,FBP-RB-18.png,0.35,1.2,36,0.25,,,,,,,,,,,,,0,3,3,35,1,,,,,,,,,,,,,,,,,,,,,,,,,,,,
,,,,,SPR24_073,21,Female,2024-04-19_11h31.22.981,jersey_experiment_5_v0,2023.2.2,Win32,84.74576271,,,,,,,,,,,,,,,,667.5412,668.588,668.5881,672.7412,return,0.7622,,74.73958333,,,,,,FBP-RB-17.png,0.4,1.2,33,0.25,,,,,,,,,,,,,0,4,4,32,1,,,,,,,,,,,,,,,,,,,,,,,,,,,,
,,,,,SPR24_073,21,Female,2024-04-19_11h31.22.981,jersey_experiment_5_v0,2023.2.2,Win32,84.74576271,,,,,,,,,,,,,,,,672.7413,673.7882,673.7882,675.3412,return,0.8412,,74.34895833,,,,,,FBP-RB-19.png,0.4,1.2,43,0.25,,,,,,,,,,,,,0,5,5,42,1,,,,,,,,,,,,,,,,,,,,,,,,,,,,
,,,,,SPR24_073,21,Female,2024-04-19_11h31.22.981,jersey_experiment_5_v0,2023.2.2,Win32,84.74576271,,,,,,,,,,,,,,,,675.3414,676.6354,676.6354,678.0473,return,0.8723,,74.47916667,,,,,,FBP-YG-19.png,0.4,1.2,28,0.5,,,,,,,,,,,,,0,6,6,27,1,,,,,,,,,,,,,,,,,,,,,,,,,,,,
,,,,,SPR24_073,21,Female,2024-04-19_11h31.22.981,jersey_experiment_5_v0,2023.2.2,Win32,84.74576271,,,,,,,,,,,,,,,,678.0476,679.3414,679.3414,682.2238,return,0.9774,,50.390625,,,,,,FBP-YG-17.png,0.37,1.2,17,0.5,,,,,,,,,,,,,0,7,7,16,1,,,,,,,,,,,,,,,,,,,,,,,,,,,,
,,,,,SPR24_073,21,Female,2024-04-19_11h31.22.981,jersey_experiment_5_v0,2023.2.2,Win32,84.74576271,,,,,,,,,,,,,,,,682.224,683.518,683.518,686.5062,return,1.0211,,25.65104167,,,,,,FBP-PT-19.png,0.37,1.2,57,0.5,,,,,,,,,,,,,0,8,8,56,1,,,,,,,,,,,,,,,,,,,,,,,,,,,,
,,,,,SPR24_073,21,Female,2024-04-19_11h31.22.981,jersey_experiment_5_v0,2023.2.2,Win32,84.74576271,,,,,,,,,,,,,,,,686.5064,687.8005,687.8005,691.7301,return,1.0836,,99.34895833,,,,,,FBP-PT-17.png,0.43,1.2,49,0.5,,,,,,,,,,,,,0,9,9,48,1,,,,,,,,,,,,,,,,,,,,,,,,,,,,
,,,,,SPR24_073,21,Female,2024-04-19_11h31.22.981,jersey_experiment_5_v0,2023.2.2,Win32,84.74576271,,,,,,,,,,,,,,,,691.7304,693.0241,693.0241,695.5536,return,0.9084,,75.390625,,,,,,FBP-PT-18.png,0.4,1.2,53,0.5,,,,,,,,,,,,,0,10,10,52,1,,,,,,,,,,,,,,,,,,,,,,,,,,,,
,,,,,SPR24_073,21,Female,2024-04-19_11h31.22.981,jersey_experiment_5_v0,2023.2.2,Win32,84.74576271,,,,,,,,,,,,,,,,695.5538,696.8479,696.8479,699.2008,return,1.0728,,99.34895833,,,,,,FBP-PT-18.png,0.45,1.2,55,0.5,,,,,,,,,,,,,0,11,11,54,1,,,,,,,,,,,,,,,,,,,,,,,,,,,,
,,,,,SPR24_073,21,Female,2024-04-19_11h31.22.981,jersey_experiment_5_v0,2023.2.2,Win32,84.74576271,,,,,,,,,,,,,,,,699.201,700.248,700.248,702.401,return,0.7674,,75.13020833,,,,,,FBP-RB-18.png,0.4,1.2,38,0.25,,,,,,,,,,,,,0,12,12,37,1,,,,,,,,,,,,,,,,,,,,,,,,,,,,
,,,,,SPR24_073,21,Female,2024-04-19_11h31.22.981,jersey_experiment_5_v0,2023.2.2,Win32,84.74576271,,,,,,,,,,,,,,,,702.4012,703.6953,703.6953,706.4128,return,0.839,,99.86979167,,,,,,FBP-YG-17.png,0.45,1.2,20,0.5,,,,,,,,,,,,,0,13,13,19,1,,,,,,,,,,,,,,,,,,,,,,,,,,,,
,,,,,SPR24_073,21,Female,2024-04-19_11h31.22.981,jersey_experiment_5_v0,2023.2.2,Win32,84.74576271,,,,,,,,,,,,,,,,706.4129,707.7071,707.7072,709.8248,return,1.3069,,99.47916667,,,,,,FBP-PT-19.png,0.45,1.2,60,0.5,,,,,,,,,,,,,0,14,14,59,1,,,,,,,,,,,,,,,,,,,,,,,,,,,,
,,,,,SPR24_073,21,Female,2024-04-19_11h31.22.981,jersey_experiment_5_v0,2023.2.2,Win32,84.74576271,,,,,,,,,,,,,,,,709.825,711.1189,711.1189,713.919,return,0.7199,,99.73958333,,,,,,FBP-PT-17.png,0.45,1.2,50,0.5,,,,,,,,,,,,,0,15,15,49,1,,,,,,,,,,,,,,,,,,,,,,,,,,,,
,,,,,SPR24_073,21,Female,2024-04-19_11h31.22.981,jersey_experiment_5_v0,2023.2.2,Win32,84.74576271,,,,,,,,,,,,,,,,713.9192,715.2132,715.2132,718.5074,return,1.1137,,24.609375,,,,,,FBP-PT-17.png,0.35,1.2,46,0.5,,,,,,,,,,,,,0,16,16,45,1,,,,,,,,,,,,,,,,,,,,,,,,,,,,
,,,,,SPR24_073,21,Female,2024-04-19_11h31.22.981,jersey_experiment_5_v0,2023.2.2,Win32,84.74576271,,,,,,,,,,,,,,,,718.5076,719.5545,719.5545,722.7664,return,0.7342,,99.34895833,,,,,,FBP-RB-19.png,0.43,1.2,44,0.25,,,,,,,,,,,,,0,17,17,43,1,,,,,,,,,,,,,,,,,,,,,,,,,,,,
,,,,,SPR24_073,21,Female,2024-04-19_11h31.22.981,jersey_experiment_5_v0,2023.2.2,Win32,84.74576271,,,,,,,,,,,,,,,,722.7667,724.0605,724.0606,726.7313,return,0.7727,,75.52083333,,,,,,FBP-YG-17.png,0.43,1.2,19,0.5,,,,,,,,,,,,,0,18,18,18,1,,,,,,,,,,,,,,,,,,,,,,,,,,,,
,,,,,SPR24_073,21,Female,2024-04-19_11h31.22.981,jersey_experiment_5_v0,2023.2.2,Win32,84.74576271,,,,,,,,,,,,,,,,726.7314,727.7784,727.7784,729.649,return,1.1437,,75.52083333,,,,,,FBP-RB-19.png,0.45,1.2,45,0.25,,,,,,,,,,,,,0,19,19,44,1,,,,,,,,,,,,,,,,,,,,,,,,,,,,
,,,,,SPR24_073,21,Female,2024-04-19_11h31.22.981,jersey_experiment_5_v0,2023.2.2,Win32,84.74576271,,,,,,,,,,,,,,,,729.6492,730.696,730.696,733.8374,return,1.0997,,25.26041667,,,,,,FBP-OG-91.png,0.37,1.2,12,0.25,,,,,,,,,,,,,0,20,20,11,1,,,,,,,,,,,,,,,,,,,,,,,,,,,,
,,,,,SPR24_073,21,Female,2024-04-19_11h31.22.981,jersey_experiment_5_v0,2023.2.2,Win32,84.74576271,,,,,,,,,,,,,,,,733.8376,735.1315,735.1316,738.414,return,0.9699,,99.86979167,,,,,,FBP-YG-18.png,0.45,1.2,25,0.5,,,,,,,,,,,,,0,21,21,24,1,,,,,,,,,,,,,,,,,,,,,,,,,,,,
,,,,,SPR24_073,21,Female,2024-04-19_11h31.22.981,jersey_experiment_5_v0,2023.2.2,Win32,84.74576271,,,,,,,,,,,,,,,,738.4142,739.4611,739.4611,741.8023,return,0.9357,,25.390625,,,,,,FBP-OG-81.png,0.37,1.2,7,0.25,,,,,,,,,,,,,0,22,22,6,1,,,,,,,,,,,,,,,,,,,,,,,,,,,,
,,,,,SPR24_073,21,Female,2024-04-19_11h31.22.981,jersey_experiment_5_v0,2023.2.2,Win32,84.74576271,,,,,,,,,,,,,,,,741.8025,742.8496,742.8496,745.485,return,1.1239,,75.78125,,,,,,FBP-OG-81.png,0.45,1.2,10,0.25,,,,,,,,,,,,,0,23,23,9,1,,,,,,,,,,,,,,,,,,,,,,,,,,,,
,,,,,SPR24_073,21,Female,2024-04-19_11h31.22.981,jersey_experiment_5_v0,2023.2.2,Win32,84.74576271,,,,,,,,,,,,,,,,745.4852,746.7791,746.7791,748.9084,return,0.9808,,25.65104167,,,,,,FBP-YG-17.png,0.35,1.2,16,0.5,,,,,,,,,,,,,0,24,24,15,1,,,,,,,,,,,,,,,,,,,,,,,,,,,,
,,,,,SPR24_073,21,Female,2024-04-19_11h31.22.981,jersey_experiment_5_v0,2023.2.2,Win32,84.74576271,,,,,,,,,,,,,,,,748.9086,750.2026,750.2026,752.3321,return,1.007,,24.609375,,,,,,FBP-YG-18.png,0.37,1.2,22,0.5,,,,,,,,,,,,,0,25,25,21,1,,,,,,,,,,,,,,,,,,,,,,,,,,,,
,,,,,SPR24_073,21,Female,2024-04-19_11h31.22.981,jersey_experiment_5_v0,2023.2.2,Win32,84.74576271,,,,,,,,,,,,,,,,752.3323,753.3791,753.3791,756.1912,return,0.9808,,74.73958333,,,,,,FBP-OG-71.png,0.4,1.2,3,0.25,,,,,,,,,,,,,0,26,26,2,1,,,,,,,,,,,,,,,,,,,,,,,,,,,,
,,,,,SPR24_073,21,Female,2024-04-19_11h31.22.981,jersey_experiment_5_v0,2023.2.2,Win32,84.74576271,,,,,,,,,,,,,,,,756.1914,757.2381,757.2381,759.4384,return,0.7932,,99.609375,,,,,,FBP-RB-18.png,0.45,1.2,40,0.25,,,,,,,,,,,,,0,27,27,39,1,,,,,,,,,,,,,,,,,,,,,,,,,,,,
,,,,,SPR24_073,21,Female,2024-04-19_11h31.22.981,jersey_experiment_5_v0,2023.2.2,Win32,84.74576271,,,,,,,,,,,,,,,,759.4386,760.4854,760.4854,761.6501,return,0.6355,,99.34895833,,,,,,FBP-RB-17.png,0.45,1.2,35,0.25,,,,,,,,,,,,,0,28,28,34,1,,,,,,,,,,,,,,,,,,,,,,,,,,,,
,,,,,SPR24_073,21,Female,2024-04-19_11h31.22.981,jersey_experiment_5_v0,2023.2.2,Win32,84.74576271,,,,,,,,,,,,,,,,761.6504,762.9442,762.9442,765.0855,return,0.7326,,75.13020833,,,,,,FBP-PT-17.png,0.4,1.2,48,0.5,,,,,,,,,,,,,0,29,29,47,1,,,,,,,,,,,,,,,,,,,,,,,,,,,,
,,,,,SPR24_073,21,Female,2024-04-19_11h31.22.981,jersey_experiment_5_v0,2023.2.2,Win32,84.74576271,,,,,,,,,,,,,,,,765.0858,766.1328,766.1328,767.568,return,0.7799,,74.86979167,,,,,,FBP-OG-71.png,0.37,1.2,2,0.25,,,,,,,,,,,,,0,30,30,1,1,,,,,,,,,,,,,,,,,,,,,,,,,,,,
,,,,,SPR24_073,21,Female,2024-04-19_11h31.22.981,jersey_experiment_5_v0,2023.2.2,Win32,84.74576271,,,,,,,,,,,,,,,,767.5681,768.6152,768.6152,774.2389,return,0.8959,,49.47916667,,,,,,FBP-OG-71.png,0.35,1.2,1,0.25,,,,,,,,,,,,,0,31,31,0,1,,,,,,,,,,,,,,,,,,,,,,,,,,,,
,,,,,SPR24_073,21,Female,2024-04-19_11h31.22.981,jersey_experiment_5_v0,2023.2.2,Win32,84.74576271,,,,,,,,,,,,,,,,774.2392,775.2858,775.2859,778.3802,return,0.7112,,75.26041667,,,,,,FBP-OG-91.png,0.4,1.2,13,0.25,,,,,,,,,,,,,0,32,32,12,1,,,,,,,,,,,,,,,,,,,,,,,,,,,,
,,,,,SPR24_073,21,Female,2024-04-19_11h31.22.981,jersey_experiment_5_v0,2023.2.2,Win32,84.74576271,,,,,,,,,,,,,,,,778.3804,779.6742,779.6742,781.1097,return,0.8612,,74.08854167,,,,,,FBP-YG-19.png,0.37,1.2,27,0.5,,,,,,,,,,,,,0,33,33,26,1,,,,,,,,,,,,,,,,,,,,,,,,,,,,
,,,,,SPR24_073,21,Female,2024-04-19_11h31.22.981,jersey_experiment_5_v0,2023.2.2,Win32,84.74576271,,,,,,,,,,,,,,,,781.1099,782.4039,782.4039,785.3803,return,0.6587,,99.609375,,,,,,FBP-YG-19.png,0.43,1.2,29,0.5,,,,,,,,,,,,,0,34,34,28,1,,,,,,,,,,,,,,,,,,,,,,,,,,,,
,,,,,SPR24_073,21,Female,2024-04-19_11h31.22.981,jersey_experiment_5_v0,2023.2.2,Win32,84.74576271,,,,,,,,,,,,,,,,785.3805,786.4275,786.4276,792.3336,return,3.1235,,49.34895833,,,,,,FBP-OG-91.png,0.35,1.2,11,0.25,,,,,,,,,,,,,0,35,35,10,1,,,,,,,,,,,,,,,,,,,,,,,,,,,,
,,,,,SPR24_073,21,Female,2024-04-19_11h31.22.981,jersey_experiment_5_v0,2023.2.2,Win32,84.74576271,,,,,,,,,,,,,,,,792.3338,793.6279,793.6279,796.1806,return,0.6592,,75.13020833,,,,,,FBP-PT-17.png,0.37,1.2,47,0.5,,,,,,,,,,,,,0,36,36,46,1,,,,,,,,,,,,,,,,,,,,,,,,,,,,
,,,,,SPR24_073,21,Female,2024-04-19_11h31.22.981,jersey_experiment_5_v0,2023.2.2,Win32,84.74576271,,,,,,,,,,,,,,,,796.1807,797.2279,797.228,801.1221,return,0.66,,99.08854167,,,,,,FBP-OG-81.png,0.43,1.2,9,0.25,,,,,,,,,,,,,0,37,37,8,1,,,,,,,,,,,,,,,,,,,,,,,,,,,,
,,,,,SPR24_073,21,Female,2024-04-19_11h31.22.981,jersey_experiment_5_v0,2023.2.2,Win32,84.74576271,,,,,,,,,,,,,,,,801.1222,802.4162,802.4163,804.5575,return,0.6409,,49.73958333,,,,,,FBP-YG-18.png,0.35,1.2,21,0.5,,,,,,,,,,,,,0,38,38,20,1,,,,,,,,,,,,,,,,,,,,,,,,,,,,
,,,,,SPR24_073,21,Female,2024-04-19_11h31.22.981,jersey_experiment_5_v0,2023.2.2,Win32,84.74576271,,,,,,,,,,,,,,,,804.5576,805.8517,805.8517,806.8635,return,0.6011,,49.73958333,,,,,,FBP-YG-19.png,0.35,1.2,26,0.5,,,,,,,,,,,,,0,39,39,25,1,,,,,,,,,,,,,,,,,,,,,,,,,,,,
,,,,,SPR24_073,21,Female,2024-04-19_11h31.22.981,jersey_experiment_5_v0,2023.2.2,Win32,84.74576271,,,,,,,,,,,,,,,,806.8636,807.9107,807.9107,809.0753,return,0.6685,,49.73958333,,,,,,FBP-RB-19.png,0.35,1.2,41,0.25,,,,,,,,,,,,,0,40,40,40,1,,,,,,,,,,,,,,,,,,,,,,,,,,,,
,,,,,SPR24_073,21,Female,2024-04-19_11h31.22.981,jersey_experiment_5_v0,2023.2.2,Win32,84.74576271,,,,,,,,,,,,,,,,809.0755,810.3694,810.3694,814.1814,return,0.6587,,99.47916667,,,,,,FBP-YG-18.png,0.43,1.2,24,0.5,,,,,,,,,,,,,0,41,41,23,1,,,,,,,,,,,,,,,,,,,,,,,,,,,,
,,,,,SPR24_073,21,Female,2024-04-19_11h31.22.981,jersey_experiment_5_v0,2023.2.2,Win32,84.74576271,,,,,,,,,,,,,,,,814.1815,815.4756,815.4756,817.2522,return,0.6358,,74.34895833,,,,,,FBP-PT-18.png,0.37,1.2,52,0.5,,,,,,,,,,,,,0,42,42,51,1,,,,,,,,,,,,,,,,,,,,,,,,,,,,
,,,,,SPR24_073,21,Female,2024-04-19_11h31.22.981,jersey_experiment_5_v0,2023.2.2,Win32,84.74576271,,,,,,,,,,,,,,,,817.2525,818.2992,818.2993,819.5346,return,0.6282,,74.34895833,,,,,,FBP-OG-81.png,0.35,1.2,6,0.25,,,,,,,,,,,,,0,43,43,5,1,,,,,,,,,,,,,,,,,,,,,,,,,,,,
,,,,,SPR24_073,21,Female,2024-04-19_11h31.22.981,jersey_experiment_5_v0,2023.2.2,Win32,84.74576271,,,,,,,,,,,,,,,,819.5349,820.5816,820.5816,822.0289,return,0.6531,,74.34895833,,,,,,FBP-RB-18.png,0.37,1.2,37,0.25,,,,,,,,,,,,,0,44,44,36,1,,,,,,,,,,,,,,,,,,,,,,,,,,,,
,,,,,SPR24_073,21,Female,2024-04-19_11h31.22.981,jersey_experiment_5_v0,2023.2.2,Win32,84.74576271,,,,,,,,,,,,,,,,822.0291,823.0757,823.0757,825.3937,return,0.7769,,98.828125,,,,,,FBP-OG-91.png,0.45,1.2,15,0.25,,,,,,,,,,,,,0,45,45,14,1,,,,,,,,,,,,,,,,,,,,,,,,,,,,
,,,,,SPR24_073,21,Female,2024-04-19_11h31.22.981,jersey_experiment_5_v0,2023.2.2,Win32,84.74576271,,,,,,,,,,,,,,,,825.3939,826.4407,826.4407,827.6996,return,0.7436,,98.828125,,,,,,FBP-RB-18.png,0.43,1.2,39,0.25,,,,,,,,,,,,,0,46,46,38,1,,,,,,,,,,,,,,,,,,,,,,,,,,,,
,,,,,SPR24_073,21,Female,2024-04-19_11h31.22.981,jersey_experiment_5_v0,2023.2.2,Win32,84.74576271,,,,,,,,,,,,,,,,827.6999,828.9936,828.9937,830.1702,return,0.7266,,98.828125,,,,,,FBP-YG-19.png,0.45,1.2,30,0.5,,,,,,,,,,,,,0,47,47,29,1,,,,,,,,,,,,,,,,,,,,,,,,,,,,
,,,,,SPR24_073,21,Female,2024-04-19_11h31.22.981,jersey_experiment_5_v0,2023.2.2,Win32,84.74576271,,,,,,,,,,,,,,,,830.1704,831.2173,831.2174,833.0761,return,0.7296,,73.95833333,,,,,,FBP-RB-17.png,0.37,1.2,32,0.25,,,,,,,,,,,,,0,48,48,31,1,,,,,,,,,,,,,,,,,,,,,,,,,,,,
,,,,,SPR24_073,21,Female,2024-04-19_11h31.22.981,jersey_experiment_5_v0,2023.2.2,Win32,84.74576271,,,,,,,,,,,,,,,,833.0763,834.1232,834.1232,835.4411,return,0.659,,73.95833333,,,,,,FBP-OG-81.png,0.4,1.2,8,0.25,,,,,,,,,,,,,0,49,49,7,1,,,,,,,,,,,,,,,,,,,,,,,,,,,,
,,,,,SPR24_073,21,Female,2024-04-19_11h31.22.981,jersey_experiment_5_v0,2023.2.2,Win32,84.74576271,,,,,,,,,,,,,,,,835.4413,836.4882,836.4882,838.594,return,0.6353,,99.08854167,,,,,,FBP-OG-71.png,0.45,1.2,5,0.25,,,,,,,,,,,,,0,50,50,4,1,,,,,,,,,,,,,,,,,,,,,,,,,,,,
,,,,,SPR24_073,21,Female,2024-04-19_11h31.22.981,jersey_experiment_5_v0,2023.2.2,Win32,84.74576271,,,,,,,,,,,,,,,,838.5942,839.8884,839.8884,841.7705,return,0.6646,,75.26041667,,,,,,FBP-PT-19.png,0.4,1.2,58,0.5,,,,,,,,,,,,,0,51,51,57,1,,,,,,,,,,,,,,,,,,,,,,,,,,,,
,,,,,SPR24_073,21,Female,2024-04-19_11h31.22.981,jersey_experiment_5_v0,2023.2.2,Win32,84.74576271,,,,,,,,,,,,,,,,841.7708,842.8177,842.8177,845.3473,return,0.6829,,75,,,,,,FBP-RB-17.png,0.43,1.2,34,0.25,,,,,,,,,,,,,0,52,52,33,1,,,,,,,,,,,,,,,,,,,,,,,,,,,,
,,,,,SPR24_073,21,Female,2024-04-19_11h31.22.981,jersey_experiment_5_v0,2023.2.2,Win32,84.74576271,,,,,,,,,,,,,,,,845.3476,846.6415,846.6415,848.1591,return,1.0393,,75,,,,,,FBP-YG-17.png,0.4,1.2,18,0.5,,,,,,,,,,,,,0,53,53,17,1,,,,,,,,,,,,,,,,,,,,,,,,,,,,
,,,,,SPR24_073,21,Female,2024-04-19_11h31.22.981,jersey_experiment_5_v0,2023.2.2,Win32,84.74576271,,,,,,,,,,,,,,,,848.1593,849.4532,849.4533,850.9004,return,1.0823,,75,,,,,,FBP-YG-18.png,0.4,1.2,23,0.5,,,,,,,,,,,,,0,54,54,22,1,,,,,,,,,,,,,,,,,,,,,,,,,,,,
,,,,,SPR24_073,21,Female,2024-04-19_11h31.22.981,jersey_experiment_5_v0,2023.2.2,Win32,84.74576271,,,,,,,,,,,,,,,,850.9006,852.1944,852.1945,853.8181,return,0.618,,75,,,,,,FBP-PT-19.png,0.43,1.2,59,0.5,,,,,,,,,,,,,0,55,55,58,1,,,,,,,,,,,,,,,,,,,,,,,,,,,,
,,,,,SPR24_073,21,Female,2024-04-19_11h31.22.981,jersey_experiment_5_v0,2023.2.2,Win32,84.74576271,,,,,,,,,,,,,,,,853.8183,854.8652,854.8653,858.3477,return,0.8404,,75,,,,,,FBP-RB-19.png,0.37,1.2,42,0.25,,,,,,,,,,,,,0,56,56,41,1,,,,,,,,,,,,,,,,,,,,,,,,,,,,
,,,,,SPR24_073,21,Female,2024-04-19_11h31.22.981,jersey_experiment_5_v0,2023.2.2,Win32,84.74576271,,,,,,,,,,,,,,,,858.3479,859.3948,859.3949,862.7714,return,0.6446,,99.47916667,,,,,,FBP-OG-71.png,0.43,1.2,4,0.25,,,,,,,,,,,,,0,57,57,3,1,,,,,,,,,,,,,,,,,,,,,,,,,,,,
,,,,,SPR24_073,21,Female,2024-04-19_11h31.22.981,jersey_experiment_5_v0,2023.2.2,Win32,84.74576271,,,,,,,,,,,,,,,,862.7716,864.0654,864.0655,866.4304,return,0.6049,,49.21875,,,,,,FBP-PT-18.png,0.35,1.2,51,0.5,,,,,,,,,,,,,0,58,58,50,1,,,,,,,,,,,,,,,,,,,,,,,,,,,,
,,,,,SPR24_073,21,Female,2024-04-19_11h31.22.981,jersey_experiment_5_v0,2023.2.2,Win32,84.74576271,,,,,,,,,,,,,,,,866.4307,867.7245,867.7245,872.8658,return,0.8341,,74.73958333,,,,,,FBP-PT-18.png,0.43,1.2,54,0.5,,,,,,,,,,,,,0,59,59,53,1,,,,,,,,,,,,,,,,,,,,,,,,,,,,
,,,,,SPR24_073,21,Female,2024-04-19_11h31.22.981,jersey_experiment_5_v0,2023.2.2,Win32,84.74576271,,,,,,,,,,,,,,,,872.8678,873.9129,873.9129,878.5957,return,4.0848,,86.84895833,,,,,,FBP-OG-17.png,0.43,1.2,4,0.25,,,,,,,,,,,,,,,,,,0,0,0,3,1,,,,,,,,,,,,,,,,,,,,,,,
,,,,,SPR24_073,21,Female,2024-04-19_11h31.22.981,jersey_experiment_5_v0,2023.2.2,Win32,84.74576271,,,,,,,,,,,,,,,,878.5962,879.8897,879.8897,882.9957,return,1.5534,,99.609375,,,,,,FBP-PT-71.png,0.45,1.2,50,0.5,,,,,,,,,,,,,,,,,,0,1,1,49,1,,,,,,,,,,,,,,,,,,,,,,,
,,,,,SPR24_073,21,Female,2024-04-19_11h31.22.981,jersey_experiment_5_v0,2023.2.2,Win32,84.74576271,,,,,,,,,,,,,,,,882.9959,884.2898,884.2899,885.9486,return,0.6885,,74.86979167,,,,,,FBP-YG-71.png,0.4,1.2,18,0.5,,,,,,,,,,,,,,,,,,0,2,2,17,1,,,,,,,,,,,,,,,,,,,,,,,
,,,,,SPR24_073,21,Female,2024-04-19_11h31.22.981,jersey_experiment_5_v0,2023.2.2,Win32,84.74576271,,,,,,,,,,,,,,,,885.9488,886.9957,886.9957,892.1136,return,0.9279,,25.13020833,,,,,,FBP-RB-71.png,0.35,1.2,31,0.25,,,,,,,,,,,,,,,,,,0,3,3,30,1,,,,,,,,,,,,,,,,,,,,,,,
,,,,,SPR24_073,21,Female,2024-04-19_11h31.22.981,jersey_experiment_5_v0,2023.2.2,Win32,84.74576271,,,,,,,,,,,,,,,,892.1138,893.1607,893.1607,897.0432,return,0.8149,,75,,,,,,FBP-RB-91.png,0.37,1.2,42,0.25,,,,,,,,,,,,,,,,,,0,4,4,41,1,,,,,,,,,,,,,,,,,,,,,,,
,,,,,SPR24_073,21,Female,2024-04-19_11h31.22.981,jersey_experiment_5_v0,2023.2.2,Win32,84.74576271,,,,,,,,,,,,,,,,897.0434,898.3374,898.3374,903.0904,return,2.282,,99.47916667,,,,,,FBP-YG-81.png,0.45,1.2,25,0.5,,,,,,,,,,,,,,,,,,0,5,5,24,1,,,,,,,,,,,,,,,,,,,,,,,
,,,,,SPR24_073,21,Female,2024-04-19_11h31.22.981,jersey_experiment_5_v0,2023.2.2,Win32,84.74576271,,,,,,,,,,,,,,,,903.0907,904.3846,904.3846,908.82,return,2.4241,,49.73958333,,,,,,FBP-PT-91.png,0.35,1.2,56,0.5,,,,,,,,,,,,,,,,,,0,6,6,55,1,,,,,,,,,,,,,,,,,,,,,,,
,,,,,SPR24_073,21,Female,2024-04-19_11h31.22.981,jersey_experiment_5_v0,2023.2.2,Win32,84.74576271,,,,,,,,,,,,,,,,908.8202,910.1143,910.1144,912.3966,return,0.7921,,75.390625,,,,,,FBP-YG-91.png,0.43,1.2,29,0.5,,,,,,,,,,,,,,,,,,0,7,7,28,1,,,,,,,,,,,,,,,,,,,,,,,
,,,,,SPR24_073,21,Female,2024-04-19_11h31.22.981,jersey_experiment_5_v0,2023.2.2,Win32,84.74576271,,,,,,,,,,,,,,,,912.397,913.6909,913.6909,915.044,return,0.8473,,75.13020833,,,,,,FBP-PT-71.png,0.4,1.2,48,0.5,,,,,,,,,,,,,,,,,,0,8,8,47,1,,,,,,,,,,,,,,,,,,,,,,,
,,,,,SPR24_073,21,Female,2024-04-19_11h31.22.981,jersey_experiment_5_v0,2023.2.2,Win32,84.74576271,,,,,,,,,,,,,,,,915.0442,916.3381,916.3381,918.0794,return,0.7211,,49.21875,,,,,,FBP-YG-81.png,0.35,1.2,21,0.5,,,,,,,,,,,,,,,,,,0,9,9,20,1,,,,,,,,,,,,,,,,,,,,,,,
,,,,,SPR24_073,21,Female,2024-04-19_11h31.22.981,jersey_experiment_5_v0,2023.2.2,Win32,84.74576271,,,,,,,,,,,,,,,,918.0798,919.1264,919.1264,926.9619,return,6.307,,87.76041667,,,,,,FBP-OG-18.png,0.43,1.2,9,0.25,,,,,,,,,,,,,,,,,,0,10,10,8,1,,,,,,,,,,,,,,,,,,,,,,,
,,,,,SPR24_073,21,Female,2024-04-19_11h31.22.981,jersey_experiment_5_v0,2023.2.2,Win32,84.74576271,,,,,,,,,,,,,,,,926.9621,928.256,928.256,930.4443,return,1.4049,,87.76041667,,,,,,FBP-PT-81.png,0.45,1.2,55,0.5,,,,,,,,,,,,,,,,,,0,11,11,54,1,,,,,,,,,,,,,,,,,,,,,,,
,,,,,SPR24_073,21,Female,2024-04-19_11h31.22.981,jersey_experiment_5_v0,2023.2.2,Win32,84.74576271,,,,,,,,,,,,,,,,930.4445,931.7386,931.7386,933.5974,return,0.1464,,85.15625,,,,,,FBP-YG-91.png,0.4,1.2,28,0.5,,,,,,,,,,,,,,,,,,0,12,12,27,1,,,,,,,,,,,,,,,,,,,,,,,
,,,,,SPR24_073,21,Female,2024-04-19_11h31.22.981,jersey_experiment_5_v0,2023.2.2,Win32,84.74576271,,,,,,,,,,,,,,,,933.5976,934.6445,934.6445,936.3504,return,0.9785,,74.86979167,,,,,,FBP-OG-18.png,0.37,1.2,7,0.25,,,,,,,,,,,,,,,,,,0,13,13,6,1,,,,,,,,,,,,,,,,,,,,,,,
,,,,,SPR24_073,21,Female,2024-04-19_11h31.22.981,jersey_experiment_5_v0,2023.2.2,Win32,84.74576271,,,,,,,,,,,,,,,,936.3505,937.6445,937.6445,938.5624,return,0.0949,,75.390625,,,,,,FBP-YG-71.png,0.35,1.2,16,0.5,,,,,,,,,,,,,,,,,,0,14,14,15,1,,,,,,,,,,,,,,,,,,,,,,,
,,,,,SPR24_073,21,Female,2024-04-19_11h31.22.981,jersey_experiment_5_v0,2023.2.2,Win32,84.74576271,,,,,,,,,,,,,,,,938.5626,939.8564,939.8564,940.3507,return,0.1217,,75.390625,,,,,,FBP-YG-91.png,0.35,1.2,26,0.5,,,,,,,,,,,,,,,,,,0,15,15,25,1,,,,,,,,,,,,,,,,,,,,,,,
,,,,,SPR24_073,21,Female,2024-04-19_11h31.22.981,jersey_experiment_5_v0,2023.2.2,Win32,84.74576271,,,,,,,,,,,,,,,,940.3508,941.3977,941.3978,942.9859,return,0.1268,,86.06770833,,,,,,FBP-RB-81.png,0.37,1.2,37,0.25,,,,,,,,,,,,,,,,,,0,16,16,36,1,,,,,,,,,,,,,,,,,,,,,,,
,,,,,SPR24_073,21,Female,2024-04-19_11h31.22.981,jersey_experiment_5_v0,2023.2.2,Win32,84.74576271,,,,,,,,,,,,,,,,942.9861,944.033,944.0331,946.0921,return,0.393,,99.86979167,,,,,,FBP-RB-81.png,0.43,1.2,39,0.25,,,,,,,,,,,,,,,,,,0,17,17,38,1,,,,,,,,,,,,,,,,,,,,,,,
,,,,,SPR24_073,21,Female,2024-04-19_11h31.22.981,jersey_experiment_5_v0,2023.2.2,Win32,84.74576271,,,,,,,,,,,,,,,,946.0923,947.1391,947.1391,948.7157,return,0.0749,,74.73958333,,,,,,FBP-OG-17.png,0.35,1.2,1,0.25,,,,,,,,,,,,,,,,,,0,18,18,0,1,,,,,,,,,,,,,,,,,,,,,,,
,,,,,SPR24_073,21,Female,2024-04-19_11h31.22.981,jersey_experiment_5_v0,2023.2.2,Win32,84.74576271,,,,,,,,,,,,,,,,948.7159,950.0098,950.0099,952.6098,return,0.4342,,99.86979167,,,,,,FBP-YG-71.png,0.45,1.2,20,0.5,,,,,,,,,,,,,,,,,,0,19,19,19,1,,,,,,,,,,,,,,,,,,,,,,,
,,,,,SPR24_073,21,Female,2024-04-19_11h31.22.981,jersey_experiment_5_v0,2023.2.2,Win32,84.74576271,,,,,,,,,,,,,,,,952.61,953.657,953.6571,954.7041,return,0.0598,,74.609375,,,,,,FBP-OG-18.png,0.35,1.2,6,0.25,,,,,,,,,,,,,,,,,,0,20,20,5,1,,,,,,,,,,,,,,,,,,,,,,,
,,,,,SPR24_073,21,Female,2024-04-19_11h31.22.981,jersey_experiment_5_v0,2023.2.2,Win32,84.74576271,,,,,,,,,,,,,,,,954.7043,955.7512,955.7513,957.316,return,0.1042,,99.34895833,,,,,,FBP-RB-71.png,0.4,1.2,33,0.25,,,,,,,,,,,,,,,,,,0,21,21,32,1,,,,,,,,,,,,,,,,,,,,,,,
,,,,,SPR24_073,21,Female,2024-04-19_11h31.22.981,jersey_experiment_5_v0,2023.2.2,Win32,84.74576271,,,,,,,,,,,,,,,,957.3162,958.61,958.61,959.8101,return,0.0807,,75.13020833,,,,,,FBP-PT-81.png,0.35,1.2,51,0.5,,,,,,,,,,,,,,,,,,0,22,22,50,1,,,,,,,,,,,,,,,,,,,,,,,
,,,,,SPR24_073,21,Female,2024-04-19_11h31.22.981,jersey_experiment_5_v0,2023.2.2,Win32,84.74576271,,,,,,,,,,,,,,,,959.8102,961.1042,961.1042,963.3867,return,0.1494,,88.02083333,,,,,,FBP-PT-91.png,0.4,1.2,58,0.5,,,,,,,,,,,,,,,,,,0,23,23,57,1,,,,,,,,,,,,,,,,,,,,,,,
,,,,,SPR24_073,21,Female,2024-04-19_11h31.22.981,jersey_experiment_5_v0,2023.2.2,Win32,84.74576271,,,,,,,,,,,,,,,,963.3868,964.6809,964.681,965.2339,return,0.1077,,88.02083333,,,,,,FBP-YG-81.png,0.37,1.2,22,0.5,,,,,,,,,,,,,,,,,,0,24,24,21,1,,,,,,,,,,,,,,,,,,,,,,,
,,,,,SPR24_073,21,Female,2024-04-19_11h31.22.981,jersey_experiment_5_v0,2023.2.2,Win32,84.74576271,,,,,,,,,,,,,,,,965.2341,966.2809,966.281,968.5282,return,0.6028,,88.02083333,,,,,,FBP-OG-19.png,0.4,1.2,13,0.25,,,,,,,,,,,,,,,,,,0,25,25,12,1,,,,,,,,,,,,,,,,,,,,,,,
,,,,,SPR24_073,21,Female,2024-04-19_11h31.22.981,jersey_experiment_5_v0,2023.2.2,Win32,84.74576271,,,,,,,,,,,,,,,,968.5284,969.8223,969.8223,971.1518,return,0.1207,,98.828125,,,,,,FBP-PT-81.png,0.43,1.2,54,0.5,,,,,,,,,,,,,,,,,,0,26,26,53,1,,,,,,,,,,,,,,,,,,,,,,,
,,,,,SPR24_073,21,Female,2024-04-19_11h31.22.981,jersey_experiment_5_v0,2023.2.2,Win32,84.74576271,,,,,,,,,,,,,,,,971.1519,972.4459,972.4459,973.9047,return,0.0491,,87.890625,,,,,,FBP-YG-71.png,0.37,1.2,17,0.5,,,,,,,,,,,,,,,,,,0,27,27,16,1,,,,,,,,,,,,,,,,,,,,,,,
,,,,,SPR24_073,21,Female,2024-04-19_11h31.22.981,jersey_experiment_5_v0,2023.2.2,Win32,84.74576271,,,,,,,,,,,,,,,,973.9049,974.9519,974.9519,976.3871,return,0.2351,,99.08854167,,,,,,FBP-RB-91.png,0.45,1.2,45,0.25,,,,,,,,,,,,,,,,,,0,28,28,44,1,,,,,,,,,,,,,,,,,,,,,,,
,,,,,SPR24_073,21,Female,2024-04-19_11h31.22.981,jersey_experiment_5_v0,2023.2.2,Win32,84.74576271,,,,,,,,,,,,,,,,976.3873,977.4345,977.4345,979.3755,return,0.2737,,99.08854167,,,,,,FBP-OG-19.png,0.45,1.2,15,0.25,,,,,,,,,,,,,,,,,,0,29,29,14,1,,,,,,,,,,,,,,,,,,,,,,,
,,,,,SPR24_073,21,Female,2024-04-19_11h31.22.981,jersey_experiment_5_v0,2023.2.2,Win32,84.74576271,,,,,,,,,,,,,,,,979.3758,980.4226,980.4227,982.305,return,0.3783,,98.828125,,,,,,FBP-RB-91.png,0.43,1.2,44,0.25,,,,,,,,,,,,,,,,,,0,30,30,43,1,,,,,,,,,,,,,,,,,,,,,,,
,,,,,SPR24_073,21,Female,2024-04-19_11h31.22.981,jersey_experiment_5_v0,2023.2.2,Win32,84.74576271,,,,,,,,,,,,,,,,982.3051,983.5993,983.5993,985.764,return,0.9037,,74.609375,,,,,,FBP-PT-71.png,0.37,1.2,47,0.5,,,,,,,,,,,,,,,,,,0,31,31,46,1,,,,,,,,,,,,,,,,,,,,,,,
,,,,,SPR24_073,21,Female,2024-04-19_11h31.22.981,jersey_experiment_5_v0,2023.2.2,Win32,84.74576271,,,,,,,,,,,,,,,,985.7642,987.0581,987.0581,991.7642,return,1.186,,99.73958333,,,,,,FBP-YG-71.png,0.43,1.2,19,0.5,,,,,,,,,,,,,,,,,,0,32,32,18,1,,,,,,,,,,,,,,,,,,,,,,,
,,,,,SPR24_073,21,Female,2024-04-19_11h31.22.981,jersey_experiment_5_v0,2023.2.2,Win32,84.74576271,,,,,,,,,,,,,,,,991.7643,993.0583,993.0583,994.576,return,0.9793,,98.30729167,,,,,,FBP-PT-91.png,0.45,1.2,60,0.5,,,,,,,,,,,,,,,,,,0,33,33,59,1,,,,,,,,,,,,,,,,,,,,,,,
,,,,,SPR24_073,21,Female,2024-04-19_11h31.22.981,jersey_experiment_5_v0,2023.2.2,Win32,84.74576271,,,,,,,,,,,,,,,,994.5762,995.6231,995.6232,998.1763,return,0.848,,75.13020833,,,,,,FBP-RB-81.png,0.35,1.2,36,0.25,,,,,,,,,,,,,,,,,,0,34,34,35,1,,,,,,,,,,,,,,,,,,,,,,,
,,,,,SPR24_073,21,Female,2024-04-19_11h31.22.981,jersey_experiment_5_v0,2023.2.2,Win32,84.74576271,,,,,,,,,,,,,,,,998.1766,999.4704,999.4704,1001.694,return,0.7901,,74.86979167,,,,,,FBP-PT-81.png,0.4,1.2,53,0.5,,,,,,,,,,,,,,,,,,0,35,35,52,1,,,,,,,,,,,,,,,,,,,,,,,
,,,,,SPR24_073,21,Female,2024-04-19_11h31.22.981,jersey_experiment_5_v0,2023.2.2,Win32,84.74576271,,,,,,,,,,,,,,,,1001.6942,1002.7412,1002.7412,1006.9411,return,2.533,,86.58854167,,,,,,FBP-RB-71.png,0.43,1.2,34,0.25,,,,,,,,,,,,,,,,,,0,36,36,33,1,,,,,,,,,,,,,,,,,,,,,,,
,,,,,SPR24_073,21,Female,2024-04-19_11h31.22.981,jersey_experiment_5_v0,2023.2.2,Win32,84.74576271,,,,,,,,,,,,,,,,1006.9412,1008.2354,1008.2354,1009.3767,return,0.8613,,86.58854167,,,,,,FBP-YG-81.png,0.43,1.2,24,0.5,,,,,,,,,,,,,,,,,,0,37,37,23,1,,,,,,,,,,,,,,,,,,,,,,,
,,,,,SPR24_073,21,Female,2024-04-19_11h31.22.981,jersey_experiment_5_v0,2023.2.2,Win32,84.74576271,,,,,,,,,,,,,,,,1009.3768,1010.6707,1010.6708,1014.1416,return,2.9228,,100,,,,,,FBP-YG-91.png,0.45,1.2,30,0.5,,,,,,,,,,,,,,,,,,0,38,38,29,1,,,,,,,,,,,,,,,,,,,,,,,
,,,,,SPR24_073,21,Female,2024-04-19_11h31.22.981,jersey_experiment_5_v0,2023.2.2,Win32,84.74576271,,,,,,,,,,,,,,,,1014.1418,1015.1886,1015.1886,1017.2122,return,0.6403,,99.73958333,,,,,,FBP-OG-17.png,0.45,1.2,5,0.25,,,,,,,,,,,,,,,,,,0,39,39,4,1,,,,,,,,,,,,,,,,,,,,,,,
,,,,,SPR24_073,21,Female,2024-04-19_11h31.22.981,jersey_experiment_5_v0,2023.2.2,Win32,84.74576271,,,,,,,,,,,,,,,,1017.2124,1018.5064,1018.5064,1020.8594,return,0.8053,,74.47916667,,,,,,FBP-YG-91.png,0.37,1.2,27,0.5,,,,,,,,,,,,,,,,,,0,40,40,26,1,,,,,,,,,,,,,,,,,,,,,,,
,,,,,SPR24_073,21,Female,2024-04-19_11h31.22.981,jersey_experiment_5_v0,2023.2.2,Win32,84.74576271,,,,,,,,,,,,,,,,1020.8596,1021.9063,1021.9063,1024.8478,return,1.4854,,99.73958333,,,,,,FBP-OG-18.png,0.4,1.2,8,0.25,,,,,,,,,,,,,,,,,,0,41,41,7,1,,,,,,,,,,,,,,,,,,,,,,,
,,,,,SPR24_073,21,Female,2024-04-19_11h31.22.981,jersey_experiment_5_v0,2023.2.2,Win32,84.74576271,,,,,,,,,,,,,,,,1024.8479,1025.8948,1025.8949,1028.8126,return,1.4155,,75.13020833,,,,,,FBP-OG-19.png,0.35,1.2,11,0.25,,,,,,,,,,,,,,,,,,0,42,42,10,1,,,,,,,,,,,,,,,,,,,,,,,
,,,,,SPR24_073,21,Female,2024-04-19_11h31.22.981,jersey_experiment_5_v0,2023.2.2,Win32,84.74576271,,,,,,,,,,,,,,,,1028.8128,1030.1069,1030.1069,1032.7892,return,1.6707,,75.13020833,,,,,,FBP-YG-81.png,0.4,1.2,23,0.5,,,,,,,,,,,,,,,,,,0,43,43,22,1,,,,,,,,,,,,,,,,,,,,,,,
,,,,,SPR24_073,21,Female,2024-04-19_11h31.22.981,jersey_experiment_5_v0,2023.2.2,Win32,84.74576271,,,,,,,,,,,,,,,,1032.7893,1034.0833,1034.0833,1036.7068,return,0.9031,,51.5625,,,,,,FBP-PT-91.png,0.37,1.2,57,0.5,,,,,,,,,,,,,,,,,,0,44,44,56,1,,,,,,,,,,,,,,,,,,,,,,,
,,,,,SPR24_073,21,Female,2024-04-19_11h31.22.981,jersey_experiment_5_v0,2023.2.2,Win32,84.74576271,,,,,,,,,,,,,,,,1036.7069,1038.0011,1038.0011,1042.8132,return,0.9679,,51.69270833,,,,,,FBP-PT-71.png,0.35,1.2,46,0.5,,,,,,,,,,,,,,,,,,0,45,45,45,1,,,,,,,,,,,,,,,,,,,,,,,
,,,,,SPR24_073,21,Female,2024-04-19_11h31.22.981,jersey_experiment_5_v0,2023.2.2,Win32,84.74576271,,,,,,,,,,,,,,,,1042.8135,1043.8602,1043.8602,1046.7662,return,0.8872,,51.69270833,,,,,,FBP-OG-19.png,0.37,1.2,12,0.25,,,,,,,,,,,,,,,,,,0,46,46,11,1,,,,,,,,,,,,,,,,,,,,,,,
,,,,,SPR24_073,21,Female,2024-04-19_11h31.22.981,jersey_experiment_5_v0,2023.2.2,Win32,84.74576271,,,,,,,,,,,,,,,,1046.7664,1047.8131,1047.8131,1050.4604,return,0.8183,,87.76041667,,,,,,FBP-OG-18.png,0.45,1.2,10,0.25,,,,,,,,,,,,,,,,,,0,47,47,9,1,,,,,,,,,,,,,,,,,,,,,,,
,,,,,SPR24_073,21,Female,2024-04-19_11h31.22.981,jersey_experiment_5_v0,2023.2.2,Win32,84.74576271,,,,,,,,,,,,,,,,1050.4606,1051.5073,1051.5074,1053.5666,return,0.9808,,99.21875,,,,,,FBP-RB-81.png,0.45,1.2,40,0.25,,,,,,,,,,,,,,,,,,0,48,48,39,1,,,,,,,,,,,,,,,,,,,,,,,
,,,,,SPR24_073,21,Female,2024-04-19_11h31.22.981,jersey_experiment_5_v0,2023.2.2,Win32,84.74576271,,,,,,,,,,,,,,,,1053.5667,1054.6134,1054.6135,1058.1548,return,0.9941,,74.34895833,,,,,,FBP-OG-17.png,0.37,1.2,2,0.25,,,,,,,,,,,,,,,,,,0,49,49,1,1,,,,,,,,,,,,,,,,,,,,,,,
,,,,,SPR24_073,21,Female,2024-04-19_11h31.22.981,jersey_experiment_5_v0,2023.2.2,Win32,84.74576271,,,,,,,,,,,,,,,,1058.155,1059.2019,1059.2019,1060.7784,return,0.9258,,73.828125,,,,,,FBP-RB-71.png,0.37,1.2,32,0.25,,,,,,,,,,,,,,,,,,0,50,50,31,1,,,,,,,,,,,,,,,,,,,,,,,
,,,,,SPR24_073,21,Female,2024-04-19_11h31.22.981,jersey_experiment_5_v0,2023.2.2,Win32,84.74576271,,,,,,,,,,,,,,,,1060.7786,1062.0724,1062.0725,1063.4727,return,0.7064,,73.828125,,,,,,FBP-PT-81.png,0.37,1.2,52,0.5,,,,,,,,,,,,,,,,,,0,51,51,51,1,,,,,,,,,,,,,,,,,,,,,,,
,,,,,SPR24_073,21,Female,2024-04-19_11h31.22.981,jersey_experiment_5_v0,2023.2.2,Win32,84.74576271,,,,,,,,,,,,,,,,1063.4729,1064.5197,1064.5197,1067.2021,return,0.9043,,84.63541667,,,,,,FBP-RB-81.png,0.4,1.2,38,0.25,,,,,,,,,,,,,,,,,,0,52,52,37,1,,,,,,,,,,,,,,,,,,,,,,,
,,,,,SPR24_073,21,Female,2024-04-19_11h31.22.981,jersey_experiment_5_v0,2023.2.2,Win32,84.74576271,,,,,,,,,,,,,,,,1067.2023,1068.2492,1068.2493,1070.3552,return,1.3646,,84.63541667,,,,,,FBP-RB-91.png,0.4,1.2,43,0.25,,,,,,,,,,,,,,,,,,0,53,53,42,1,,,,,,,,,,,,,,,,,,,,,,,
,,,,,SPR24_073,21,Female,2024-04-19_11h31.22.981,jersey_experiment_5_v0,2023.2.2,Win32,84.74576271,,,,,,,,,,,,,,,,1070.3554,1071.4023,1071.4024,1075.3085,return,1.3688,,99.73958333,,,,,,FBP-RB-71.png,0.45,1.2,35,0.25,,,,,,,,,,,,,,,,,,0,54,54,34,1,,,,,,,,,,,,,,,,,,,,,,,
,,,,,SPR24_073,21,Female,2024-04-19_11h31.22.981,jersey_experiment_5_v0,2023.2.2,Win32,84.74576271,,,,,,,,,,,,,,,,1075.3086,1076.3554,1076.3554,1079.7437,return,0.93,,88.93229167,,,,,,FBP-OG-19.png,0.43,1.2,14,0.25,,,,,,,,,,,,,,,,,,0,55,55,13,1,,,,,,,,,,,,,,,,,,,,,,,
,,,,,SPR24_073,21,Female,2024-04-19_11h31.22.981,jersey_experiment_5_v0,2023.2.2,Win32,84.74576271,,,,,,,,,,,,,,,,1079.7439,1081.0379,1081.038,1082.9324,return,1.0494,,88.80208333,,,,,,FBP-PT-91.png,0.43,1.2,59,0.5,,,,,,,,,,,,,,,,,,0,56,56,58,1,,,,,,,,,,,,,,,,,,,,,,,
,,,,,SPR24_073,21,Female,2024-04-19_11h31.22.981,jersey_experiment_5_v0,2023.2.2,Win32,84.74576271,,,,,,,,,,,,,,,,1082.9325,1083.9791,1083.9792,1086.4969,return,0.9055,,88.93229167,,,,,,FBP-OG-17.png,0.4,1.2,3,0.25,,,,,,,,,,,,,,,,,,0,57,57,2,1,,,,,,,,,,,,,,,,,,,,,,,
,,,,,SPR24_073,21,Female,2024-04-19_11h31.22.981,jersey_experiment_5_v0,2023.2.2,Win32,84.74576271,,,,,,,,,,,,,,,,1086.497,1087.5441,1087.5441,1090.4734,return,1.0064,,88.93229167,,,,,,FBP-RB-91.png,0.35,1.2,41,0.25,,,,,,,,,,,,,,,,,,0,58,58,40,1,,,,,,,,,,,,,,,,,,,,,,,
,,,,,SPR24_073,21,Female,2024-04-19_11h31.22.981,jersey_experiment_5_v0,2023.2.2,Win32,84.74576271,,,,,,,,,,,,,,,,1090.4735,1091.7677,1091.7677,1096.1326,return,1.0972,,99.08854167,,,,,,FBP-PT-71.png,0.43,1.2,49,0.5,,,,,,,,,,,,,,,,,,0,59,59,48,1,,,,,,,,,,,,,,,,,,,,,,,
,,,,,SPR24_073,21,Female,2024-04-19_11h31.22.981,jersey_experiment_5_v0,2023.2.2,Win32,84.74576271,,,,,,,,,,,,,,,,,,,,,,,,,,,,,,,,,,,,,,,,,,,,,,,,,,,,,,,,1096.133,1102.6979,return,6.5608,,,,,,,,,,,,,,,,,,,
,,,,,SPR24_073,21,Female,2024-04-19_11h31.22.981,jersey_experiment_5_v0,2023.2.2,Win32,84.74576271,,,,,,,,,,,,,,,,,,,,,,,,,,,,,,,,,,,,,,,,,,,,,,,,,,,,,,,,,,,,,1102.698,1107.4745,1,3.5311,return,1.2232,,,,,,,,,,,,
,,,,,SPR24_073,21,Female,2024-04-19_11h31.22.981,jersey_experiment_5_v0,2023.2.2,Win32,84.74576271,,,,,,,,,,,,,,,,,,,,,,,,,,,,,,,,,,,,,,,,,,,,,,,,,,,,,,,,,,,,,,,,,,,,1107.4747,1169.6815,it was a bunch of the same image back to back with different skin tones. i think it had to do with if we correctly identified the black football player as husky or slim vs the white especially since the intro photos were of the white football player,right,53.7817,,,,,,
,,,,,SPR24_073,21,Female,2024-04-19_11h31.22.981,jersey_experiment_5_v0,2023.2.2,Win32,84.74576271,,,,,,,,,,,,,,,,,,,,,,,,,,,,,,,,,,,,,,,,,,,,,,,,,,,,,,,,,,,,,,,,,,,,,,,,,,1169.6815,1174.6534,return,4.964,