requirements.started,requirements.stopped,key_resp_3.keys,key_resp_3.rt,key_resp_3.duration,Subject ID,Age,Gender,date,expName,psychopyVersion,OS,frameRate,instructions1.started,instructions1.stopped,key_resp.keys,key_resp.rt,key_resp.duration,example.started,example.stopped,enter_2.keys,enter_2.rt,enter_2.duration,instructions2.started,instructions2.stopped,enter_3.keys,enter_3.rt,enter_3.duration,image.started,image.stopped,slider_2.started,slider_2.stopped,next.keys,next.rt,next.duration,slider.response,trial_block_1.thisRepN,trial_block_1.thisTrialN,trial_block_1.thisN,trial_block_1.thisIndex,trial_block_1.ran,Path,Width,Height,Index,Duration,trial_block_2.thisRepN,trial_block_2.thisTrialN,trial_block_2.thisN,trial_block_2.thisIndex,trial_block_2.ran,rest_break.started,rest_break.stopped,end_break.started,end_break.stopped,key_resp_5.keys,key_resp_5.rt,key_resp_5.duration,trial_block_3.thisRepN,trial_block_3.thisTrialN,trial_block_3.thisN,trial_block_3.thisIndex,trial_block_3.ran,trial_block_4.thisRepN,trial_block_4.thisTrialN,trial_block_4.thisN,trial_block_4.thisIndex,trial_block_4.ran,questions_intro.started,questions_intro.stopped,enter_12.keys,enter_12.rt,enter_12.duration,question2.started,question2.stopped,question_doingbest.response,question_doingbest.rt,enter_15.keys,enter_15.rt,enter_15.duration,pattern.started,pattern.stopped,pattern_2.text,enter_17.keys,enter_17.rt,enter_17.duration,thankyou.started,thankyou.stopped,enter_14.keys,enter_14.rt,enter_14.duration
1E-04,15.8685,return,15.8598,,SPR24_070,18,Female,2024-04-19_09h32.54.295,jersey_experiment_5_v0,2023.2.2,Win32,84.74576271,,,,,,,,,,,,,,,,,,,,,,,,,,,,,,,,,,,,,,,,,,,,,,,,,,,,,,,,,,,,,,,,,,,,,,,,,,,,,,
,,,,,SPR24_070,18,Female,2024-04-19_09h32.54.295,jersey_experiment_5_v0,2023.2.2,Win32,84.74576271,15.8686,26.9042,return,11.0172,,,,,,,,,,,,,,,,,,,,,,,,,,,,,,,,,,,,,,,,,,,,,,,,,,,,,,,,,,,,,,,,,,,,,,,,,,
,,,,,SPR24_070,18,Female,2024-04-19_09h32.54.295,jersey_experiment_5_v0,2023.2.2,Win32,84.74576271,,,,,,26.9043,35.434,return,8.4915,,,,,,,,,,,,,,,,,,,,,,,,,,,,,,,,,,,,,,,,,,,,,,,,,,,,,,,,,,,,,,,,,,,,,
,,,,,SPR24_070,18,Female,2024-04-19_09h32.54.295,jersey_experiment_5_v0,2023.2.2,Win32,84.74576271,,,,,,,,,,,35.4341,70.6353,return,35.1897,,,,,,,,,,,,,,,,,,,,,,,,,,,,,,,,,,,,,,,,,,,,,,,,,,,,,,,,,,,,,,,,
,,,,,SPR24_070,18,Female,2024-04-19_09h32.54.295,jersey_experiment_5_v0,2023.2.2,Win32,84.74576271,,,,,,,,,,,,,,,,70.6421,71.9408,71.941,100.0242,return,3.617,,50,0,0,0,35,1,FBP-RB-18.png,0.35,1.2,36,0.5,,,,,,,,,,,,,,,,,,,,,,,,,,,,,,,,,,,,,,,,,,,,,
,,,,,SPR24_070,18,Female,2024-04-19_09h32.54.295,jersey_experiment_5_v0,2023.2.2,Win32,84.74576271,,,,,,,,,,,,,,,,100.0246,101.3183,101.3183,107.0361,return,1.2945,,99.609375,0,1,1,43,1,FBP-RB-19.png,0.43,1.2,44,0.5,,,,,,,,,,,,,,,,,,,,,,,,,,,,,,,,,,,,,,,,,,,,,
,,,,,SPR24_070,18,Female,2024-04-19_09h32.54.295,jersey_experiment_5_v0,2023.2.2,Win32,84.74576271,,,,,,,,,,,,,,,,107.0363,108.3304,108.3304,112.295,return,1.2393,,75.13020833,0,2,2,8,1,FBP-OG-81.png,0.43,1.2,9,0.5,,,,,,,,,,,,,,,,,,,,,,,,,,,,,,,,,,,,,,,,,,,,,
,,,,,SPR24_070,18,Female,2024-04-19_09h32.54.295,jersey_experiment_5_v0,2023.2.2,Win32,84.74576271,,,,,,,,,,,,,,,,112.2953,113.5892,113.5892,118.5542,return,2.7799,,24.73958333,0,3,3,30,1,FBP-RB-17.png,0.35,1.2,31,0.5,,,,,,,,,,,,,,,,,,,,,,,,,,,,,,,,,,,,,,,,,,,,,
,,,,,SPR24_070,18,Female,2024-04-19_09h32.54.295,jersey_experiment_5_v0,2023.2.2,Win32,84.74576271,,,,,,,,,,,,,,,,118.5583,119.8601,119.8602,124.5662,return,1.5489,,99.609375,0,4,4,9,1,FBP-OG-81.png,0.45,1.2,10,0.5,,,,,,,,,,,,,,,,,,,,,,,,,,,,,,,,,,,,,,,,,,,,,
,,,,,SPR24_070,18,Female,2024-04-19_09h32.54.295,jersey_experiment_5_v0,2023.2.2,Win32,84.74576271,,,,,,,,,,,,,,,,124.5665,125.8603,125.8603,130.2017,return,1.8251,,75,0,5,5,13,1,FBP-OG-91.png,0.43,1.2,14,0.5,,,,,,,,,,,,,,,,,,,,,,,,,,,,,,,,,,,,,,,,,,,,,
,,,,,SPR24_070,18,Female,2024-04-19_09h32.54.295,jersey_experiment_5_v0,2023.2.2,Win32,84.74576271,,,,,,,,,,,,,,,,130.2019,131.2486,131.2486,135.284,return,1.2652,,49.609375,0,6,6,57,1,FBP-PT-19.png,0.4,1.2,58,0.25,,,,,,,,,,,,,,,,,,,,,,,,,,,,,,,,,,,,,,,,,,,,,
,,,,,SPR24_070,18,Female,2024-04-19_09h32.54.295,jersey_experiment_5_v0,2023.2.2,Win32,84.74576271,,,,,,,,,,,,,,,,135.2841,136.3313,136.3314,140.2138,return,1.3228,,25,0,7,7,45,1,FBP-PT-17.png,0.35,1.2,46,0.25,,,,,,,,,,,,,,,,,,,,,,,,,,,,,,,,,,,,,,,,,,,,,
,,,,,SPR24_070,18,Female,2024-04-19_09h32.54.295,jersey_experiment_5_v0,2023.2.2,Win32,84.74576271,,,,,,,,,,,,,,,,140.2139,141.5077,141.5077,145.614,return,1.8211,,74.609375,0,8,8,38,1,FBP-RB-18.png,0.43,1.2,39,0.5,,,,,,,,,,,,,,,,,,,,,,,,,,,,,,,,,,,,,,,,,,,,,
,,,,,SPR24_070,18,Female,2024-04-19_09h32.54.295,jersey_experiment_5_v0,2023.2.2,Win32,84.74576271,,,,,,,,,,,,,,,,145.6141,146.908,146.9081,150.1905,return,1.3648,,0.520833333,0,9,9,5,1,FBP-OG-81.png,0.35,1.2,6,0.5,,,,,,,,,,,,,,,,,,,,,,,,,,,,,,,,,,,,,,,,,,,,,
,,,,,SPR24_070,18,Female,2024-04-19_09h32.54.295,jersey_experiment_5_v0,2023.2.2,Win32,84.74576271,,,,,,,,,,,,,,,,150.1907,151.2375,151.2375,154.7083,return,1.2537,,24.609375,0,10,10,46,1,FBP-PT-17.png,0.37,1.2,47,0.25,,,,,,,,,,,,,,,,,,,,,,,,,,,,,,,,,,,,,,,,,,,,,
,,,,,SPR24_070,18,Female,2024-04-19_09h32.54.295,jersey_experiment_5_v0,2023.2.2,Win32,84.74576271,,,,,,,,,,,,,,,,154.7085,156.0026,156.0026,182.5799,return,9.619,,60.28645833,0,11,11,12,1,FBP-OG-91.png,0.4,1.2,13,0.5,,,,,,,,,,,,,,,,,,,,,,,,,,,,,,,,,,,,,,,,,,,,,
,,,,,SPR24_070,18,Female,2024-04-19_09h32.54.295,jersey_experiment_5_v0,2023.2.2,Win32,84.74576271,,,,,,,,,,,,,,,,182.5845,183.8859,183.8859,187.2389,return,1.5451,,92.70833333,0,12,12,39,1,FBP-RB-18.png,0.45,1.2,40,0.5,,,,,,,,,,,,,,,,,,,,,,,,,,,,,,,,,,,,,,,,,,,,,
,,,,,SPR24_070,18,Female,2024-04-19_09h32.54.295,jersey_experiment_5_v0,2023.2.2,Win32,84.74576271,,,,,,,,,,,,,,,,187.2391,188.5332,188.5333,191.839,return,1.0495,,89.97395833,0,13,13,14,1,FBP-OG-91.png,0.45,1.2,15,0.5,,,,,,,,,,,,,,,,,,,,,,,,,,,,,,,,,,,,,,,,,,,,,
,,,,,SPR24_070,18,Female,2024-04-19_09h32.54.295,jersey_experiment_5_v0,2023.2.2,Win32,84.74576271,,,,,,,,,,,,,,,,191.8392,192.8862,192.8862,195.6863,return,1.0987,,99.34895833,0,14,14,49,1,FBP-PT-17.png,0.45,1.2,50,0.25,,,,,,,,,,,,,,,,,,,,,,,,,,,,,,,,,,,,,,,,,,,,,
,,,,,SPR24_070,18,Female,2024-04-19_09h32.54.295,jersey_experiment_5_v0,2023.2.2,Win32,84.74576271,,,,,,,,,,,,,,,,195.6865,196.7334,196.7335,200.969,return,0.8015,,54.81770833,0,15,15,56,1,FBP-PT-19.png,0.37,1.2,57,0.25,,,,,,,,,,,,,,,,,,,,,,,,,,,,,,,,,,,,,,,,,,,,,
,,,,,SPR24_070,18,Female,2024-04-19_09h32.54.295,jersey_experiment_5_v0,2023.2.2,Win32,84.74576271,,,,,,,,,,,,,,,,200.9692,202.0158,202.0158,204.9808,return,0.9116,,78.77604167,0,16,16,18,1,FBP-YG-17.png,0.43,1.2,19,0.25,,,,,,,,,,,,,,,,,,,,,,,,,,,,,,,,,,,,,,,,,,,,,
,,,,,SPR24_070,18,Female,2024-04-19_09h32.54.295,jersey_experiment_5_v0,2023.2.2,Win32,84.74576271,,,,,,,,,,,,,,,,204.9809,206.2749,206.2749,209.6868,return,0.971,,28.515625,0,17,17,2,1,FBP-OG-71.png,0.4,1.2,3,0.5,,,,,,,,,,,,,,,,,,,,,,,,,,,,,,,,,,,,,,,,,,,,,
,,,,,SPR24_070,18,Female,2024-04-19_09h32.54.295,jersey_experiment_5_v0,2023.2.2,Win32,84.74576271,,,,,,,,,,,,,,,,209.6869,210.7339,210.7339,213.734,return,0.8072,,97.65625,0,18,18,24,1,FBP-YG-18.png,0.45,1.2,25,0.25,,,,,,,,,,,,,,,,,,,,,,,,,,,,,,,,,,,,,,,,,,,,,
,,,,,SPR24_070,18,Female,2024-04-19_09h32.54.295,jersey_experiment_5_v0,2023.2.2,Win32,84.74576271,,,,,,,,,,,,,,,,213.7343,215.0281,215.0281,217.2046,return,0.8201,,97.65625,0,19,19,44,1,FBP-RB-19.png,0.45,1.2,45,0.5,,,,,,,,,,,,,,,,,,,,,,,,,,,,,,,,,,,,,,,,,,,,,
,,,,,SPR24_070,18,Female,2024-04-19_09h32.54.295,jersey_experiment_5_v0,2023.2.2,Win32,84.74576271,,,,,,,,,,,,,,,,217.2048,218.4989,218.4989,221.8283,return,0.7007,,7.161458333,0,20,20,31,1,FBP-RB-17.png,0.37,1.2,32,0.5,,,,,,,,,,,,,,,,,,,,,,,,,,,,,,,,,,,,,,,,,,,,,
,,,,,SPR24_070,18,Female,2024-04-19_09h32.54.295,jersey_experiment_5_v0,2023.2.2,Win32,84.74576271,,,,,,,,,,,,,,,,221.8284,222.8754,222.8755,228.7345,return,3.4973,,50.13020833,0,21,21,22,1,FBP-YG-18.png,0.4,1.2,23,0.25,,,,,,,,,,,,,,,,,,,,,,,,,,,,,,,,,,,,,,,,,,,,,
,,,,,SPR24_070,18,Female,2024-04-19_09h32.54.295,jersey_experiment_5_v0,2023.2.2,Win32,84.74576271,,,,,,,,,,,,,,,,228.7348,230.0287,230.0287,232.9346,return,0.8861,,51.43229167,0,22,22,7,1,FBP-OG-81.png,0.4,1.2,8,0.5,,,,,,,,,,,,,,,,,,,,,,,,,,,,,,,,,,,,,,,,,,,,,
,,,,,SPR24_070,18,Female,2024-04-19_09h32.54.295,jersey_experiment_5_v0,2023.2.2,Win32,84.74576271,,,,,,,,,,,,,,,,232.9348,234.2288,234.2289,237.3348,return,1.0747,,68.48958333,0,23,23,3,1,FBP-OG-71.png,0.43,1.2,4,0.5,,,,,,,,,,,,,,,,,,,,,,,,,,,,,,,,,,,,,,,,,,,,,
,,,,,SPR24_070,18,Female,2024-04-19_09h32.54.295,jersey_experiment_5_v0,2023.2.2,Win32,84.74576271,,,,,,,,,,,,,,,,237.335,238.6289,238.629,246.4058,return,2.4051,,28.25520833,0,24,24,37,1,FBP-RB-18.png,0.4,1.2,38,0.5,,,,,,,,,,,,,,,,,,,,,,,,,,,,,,,,,,,,,,,,,,,,,
,,,,,SPR24_070,18,Female,2024-04-19_09h32.54.295,jersey_experiment_5_v0,2023.2.2,Win32,84.74576271,,,,,,,,,,,,,,,,246.406,247.4527,247.4527,250.8059,return,0.8989,,74.609375,0,25,25,53,1,FBP-PT-18.png,0.43,1.2,54,0.25,,,,,,,,,,,,,,,,,,,,,,,,,,,,,,,,,,,,,,,,,,,,,
,,,,,SPR24_070,18,Female,2024-04-19_09h32.54.295,jersey_experiment_5_v0,2023.2.2,Win32,84.74576271,,,,,,,,,,,,,,,,250.8062,251.8531,251.8531,257.912,return,3.6169,,96.61458333,0,26,26,29,1,FBP-YG-19.png,0.45,1.2,30,0.25,,,,,,,,,,,,,,,,,,,,,,,,,,,,,,,,,,,,,,,,,,,,,
,,,,,SPR24_070,18,Female,2024-04-19_09h32.54.295,jersey_experiment_5_v0,2023.2.2,Win32,84.74576271,,,,,,,,,,,,,,,,257.9121,258.959,258.9591,262.9591,return,0.8,,6.119791667,0,27,27,50,1,FBP-PT-18.png,0.35,1.2,51,0.25,,,,,,,,,,,,,,,,,,,,,,,,,,,,,,,,,,,,,,,,,,,,,
,,,,,SPR24_070,18,Female,2024-04-19_09h32.54.295,jersey_experiment_5_v0,2023.2.2,Win32,84.74576271,,,,,,,,,,,,,,,,262.9593,264.2534,264.2534,267.4771,return,1.0197,,24.47916667,0,28,28,36,1,FBP-RB-18.png,0.37,1.2,37,0.5,,,,,,,,,,,,,,,,,,,,,,,,,,,,,,,,,,,,,,,,,,,,,
,,,,,SPR24_070,18,Female,2024-04-19_09h32.54.295,jersey_experiment_5_v0,2023.2.2,Win32,84.74576271,,,,,,,,,,,,,,,,267.4773,268.5241,268.5241,271.3007,return,0.8671,,49.73958333,0,29,29,17,1,FBP-YG-17.png,0.4,1.2,18,0.25,,,,,,,,,,,,,,,,,,,,,,,,,,,,,,,,,,,,,,,,,,,,,
,,,,,SPR24_070,18,Female,2024-04-19_09h32.54.295,jersey_experiment_5_v0,2023.2.2,Win32,84.74576271,,,,,,,,,,,,,,,,271.3009,272.5949,272.595,279.56,return,0.8972,,54.6875,0,30,30,41,1,FBP-RB-19.png,0.37,1.2,42,0.5,,,,,,,,,,,,,,,,,,,,,,,,,,,,,,,,,,,,,,,,,,,,,
,,,,,SPR24_070,18,Female,2024-04-19_09h32.54.295,jersey_experiment_5_v0,2023.2.2,Win32,84.74576271,,,,,,,,,,,,,,,,279.5602,280.6069,280.6069,283.0777,return,0.911,,44.921875,0,31,31,21,1,FBP-YG-18.png,0.37,1.2,22,0.25,,,,,,,,,,,,,,,,,,,,,,,,,,,,,,,,,,,,,,,,,,,,,
,,,,,SPR24_070,18,Female,2024-04-19_09h32.54.295,jersey_experiment_5_v0,2023.2.2,Win32,84.74576271,,,,,,,,,,,,,,,,283.078,284.3717,284.3717,286.9366,return,0.8984,,20.57291667,0,32,32,40,1,FBP-RB-19.png,0.35,1.2,41,0.5,,,,,,,,,,,,,,,,,,,,,,,,,,,,,,,,,,,,,,,,,,,,,
,,,,,SPR24_070,18,Female,2024-04-19_09h32.54.295,jersey_experiment_5_v0,2023.2.2,Win32,84.74576271,,,,,,,,,,,,,,,,286.9368,287.9837,287.9837,302.6312,return,12.1472,,63.28125,0,33,33,52,1,FBP-PT-18.png,0.4,1.2,53,0.25,,,,,,,,,,,,,,,,,,,,,,,,,,,,,,,,,,,,,,,,,,,,,
,,,,,SPR24_070,18,Female,2024-04-19_09h32.54.295,jersey_experiment_5_v0,2023.2.2,Win32,84.74576271,,,,,,,,,,,,,,,,302.6357,303.6783,303.6784,310.714,return,1.4033,,27.734375,0,34,34,55,1,FBP-PT-19.png,0.35,1.2,56,0.25,,,,,,,,,,,,,,,,,,,,,,,,,,,,,,,,,,,,,,,,,,,,,
,,,,,SPR24_070,18,Female,2024-04-19_09h32.54.295,jersey_experiment_5_v0,2023.2.2,Win32,84.74576271,,,,,,,,,,,,,,,,310.7142,311.7612,311.7612,313.9256,return,0.3221,,72.13541667,0,35,35,51,1,FBP-PT-18.png,0.37,1.2,52,0.25,,,,,,,,,,,,,,,,,,,,,,,,,,,,,,,,,,,,,,,,,,,,,
,,,,,SPR24_070,18,Female,2024-04-19_09h32.54.295,jersey_experiment_5_v0,2023.2.2,Win32,84.74576271,,,,,,,,,,,,,,,,313.9258,314.9729,314.973,318.02,return,0.536,,79.03645833,0,36,36,16,1,FBP-YG-17.png,0.37,1.2,17,0.25,,,,,,,,,,,,,,,,,,,,,,,,,,,,,,,,,,,,,,,,,,,,,
,,,,,SPR24_070,18,Female,2024-04-19_09h32.54.295,jersey_experiment_5_v0,2023.2.2,Win32,84.74576271,,,,,,,,,,,,,,,,318.0203,319.3142,319.3142,321.2436,return,0.5188,,63.80208333,0,37,37,11,1,FBP-OG-91.png,0.37,1.2,12,0.5,,,,,,,,,,,,,,,,,,,,,,,,,,,,,,,,,,,,,,,,,,,,,
,,,,,SPR24_070,18,Female,2024-04-19_09h32.54.295,jersey_experiment_5_v0,2023.2.2,Win32,84.74576271,,,,,,,,,,,,,,,,321.2439,322.5378,322.5378,326.8793,return,0.3676,,86.19791667,0,38,38,32,1,FBP-RB-17.png,0.4,1.2,33,0.5,,,,,,,,,,,,,,,,,,,,,,,,,,,,,,,,,,,,,,,,,,,,,
,,,,,SPR24_070,18,Female,2024-04-19_09h32.54.295,jersey_experiment_5_v0,2023.2.2,Win32,84.74576271,,,,,,,,,,,,,,,,326.8795,327.9262,327.9263,332.0559,return,2.1348,,39.32291667,0,39,39,25,1,FBP-YG-19.png,0.35,1.2,26,0.25,,,,,,,,,,,,,,,,,,,,,,,,,,,,,,,,,,,,,,,,,,,,,
,,,,,SPR24_070,18,Female,2024-04-19_09h32.54.295,jersey_experiment_5_v0,2023.2.2,Win32,84.74576271,,,,,,,,,,,,,,,,332.0562,333.103,333.103,335.0795,return,0.4056,,99.08854167,0,40,40,54,1,FBP-PT-18.png,0.45,1.2,55,0.25,,,,,,,,,,,,,,,,,,,,,,,,,,,,,,,,,,,,,,,,,,,,,
,,,,,SPR24_070,18,Female,2024-04-19_09h32.54.295,jersey_experiment_5_v0,2023.2.2,Win32,84.74576271,,,,,,,,,,,,,,,,335.0797,336.3735,336.3736,339.8797,return,1.3799,,32.94270833,0,41,41,10,1,FBP-OG-91.png,0.35,1.2,11,0.5,,,,,,,,,,,,,,,,,,,,,,,,,,,,,,,,,,,,,,,,,,,,,
,,,,,SPR24_070,18,Female,2024-04-19_09h32.54.295,jersey_experiment_5_v0,2023.2.2,Win32,84.74576271,,,,,,,,,,,,,,,,339.8799,341.1737,341.1738,343.668,return,1.4209,,57.94270833,0,42,42,1,1,FBP-OG-71.png,0.37,1.2,2,0.5,,,,,,,,,,,,,,,,,,,,,,,,,,,,,,,,,,,,,,,,,,,,,
,,,,,SPR24_070,18,Female,2024-04-19_09h32.54.295,jersey_experiment_5_v0,2023.2.2,Win32,84.74576271,,,,,,,,,,,,,,,,343.6682,344.7151,344.7151,346.3506,return,0.2591,,60.41666667,0,43,43,47,1,FBP-PT-17.png,0.4,1.2,48,0.25,,,,,,,,,,,,,,,,,,,,,,,,,,,,,,,,,,,,,,,,,,,,,
,,,,,SPR24_070,18,Female,2024-04-19_09h32.54.295,jersey_experiment_5_v0,2023.2.2,Win32,84.74576271,,,,,,,,,,,,,,,,346.3508,347.6446,347.6446,349.6448,return,0.2357,,98.828125,0,44,44,34,1,FBP-RB-17.png,0.45,1.2,35,0.5,,,,,,,,,,,,,,,,,,,,,,,,,,,,,,,,,,,,,,,,,,,,,
,,,,,SPR24_070,18,Female,2024-04-19_09h32.54.295,jersey_experiment_5_v0,2023.2.2,Win32,84.74576271,,,,,,,,,,,,,,,,349.645,350.6919,350.6919,352.5508,return,0.2299,,89.71354167,0,45,45,27,1,FBP-YG-19.png,0.4,1.2,28,0.25,,,,,,,,,,,,,,,,,,,,,,,,,,,,,,,,,,,,,,,,,,,,,
,,,,,SPR24_070,18,Female,2024-04-19_09h32.54.295,jersey_experiment_5_v0,2023.2.2,Win32,84.74576271,,,,,,,,,,,,,,,,352.551,353.8448,353.8448,355.0332,return,0.2487,,86.84895833,0,46,46,42,1,FBP-RB-19.png,0.4,1.2,43,0.5,,,,,,,,,,,,,,,,,,,,,,,,,,,,,,,,,,,,,,,,,,,,,
,,,,,SPR24_070,18,Female,2024-04-19_09h32.54.295,jersey_experiment_5_v0,2023.2.2,Win32,84.74576271,,,,,,,,,,,,,,,,355.0334,356.08,356.0801,357.5743,return,0.2747,,91.015625,0,47,47,58,1,FBP-PT-19.png,0.43,1.2,59,0.25,,,,,,,,,,,,,,,,,,,,,,,,,,,,,,,,,,,,,,,,,,,,,
,,,,,SPR24_070,18,Female,2024-04-19_09h32.54.295,jersey_experiment_5_v0,2023.2.2,Win32,84.74576271,,,,,,,,,,,,,,,,357.5745,358.6215,358.6215,362.7159,return,0.2498,,69.79166667,0,48,48,20,1,FBP-YG-18.png,0.35,1.2,21,0.25,,,,,,,,,,,,,,,,,,,,,,,,,,,,,,,,,,,,,,,,,,,,,
,,,,,SPR24_070,18,Female,2024-04-19_09h32.54.295,jersey_experiment_5_v0,2023.2.2,Win32,84.74576271,,,,,,,,,,,,,,,,362.7161,364.01,364.01,368.5396,return,2.4813,,97.13541667,0,49,49,33,1,FBP-RB-17.png,0.43,1.2,34,0.5,,,,,,,,,,,,,,,,,,,,,,,,,,,,,,,,,,,,,,,,,,,,,
,,,,,SPR24_070,18,Female,2024-04-19_09h32.54.295,jersey_experiment_5_v0,2023.2.2,Win32,84.74576271,,,,,,,,,,,,,,,,368.5398,369.5866,369.5867,370.8454,return,0.235,,97.00520833,0,50,50,23,1,FBP-YG-18.png,0.43,1.2,24,0.25,,,,,,,,,,,,,,,,,,,,,,,,,,,,,,,,,,,,,,,,,,,,,
,,,,,SPR24_070,18,Female,2024-04-19_09h32.54.295,jersey_experiment_5_v0,2023.2.2,Win32,84.74576271,,,,,,,,,,,,,,,,370.8456,371.8927,371.8927,376.3281,return,2.4051,,29.03645833,0,51,51,15,1,FBP-YG-17.png,0.35,1.2,16,0.25,,,,,,,,,,,,,,,,,,,,,,,,,,,,,,,,,,,,,,,,,,,,,
,,,,,SPR24_070,18,Female,2024-04-19_09h32.54.295,jersey_experiment_5_v0,2023.2.2,Win32,84.74576271,,,,,,,,,,,,,,,,376.3283,377.3752,377.3752,379.175,return,0.1703,,74.86979167,0,52,52,28,1,FBP-YG-19.png,0.43,1.2,29,0.25,,,,,,,,,,,,,,,,,,,,,,,,,,,,,,,,,,,,,,,,,,,,,
,,,,,SPR24_070,18,Female,2024-04-19_09h32.54.295,jersey_experiment_5_v0,2023.2.2,Win32,84.74576271,,,,,,,,,,,,,,,,379.1752,380.2223,380.2223,381.4694,return,0.1895,,80.46875,0,53,53,48,1,FBP-PT-17.png,0.43,1.2,49,0.25,,,,,,,,,,,,,,,,,,,,,,,,,,,,,,,,,,,,,,,,,,,,,
,,,,,SPR24_070,18,Female,2024-04-19_09h32.54.295,jersey_experiment_5_v0,2023.2.2,Win32,84.74576271,,,,,,,,,,,,,,,,381.4696,382.5165,382.5165,384.5872,return,0.9428,,97.65625,0,54,54,19,1,FBP-YG-17.png,0.45,1.2,20,0.25,,,,,,,,,,,,,,,,,,,,,,,,,,,,,,,,,,,,,,,,,,,,,
,,,,,SPR24_070,18,Female,2024-04-19_09h32.54.295,jersey_experiment_5_v0,2023.2.2,Win32,84.74576271,,,,,,,,,,,,,,,,384.5873,385.8813,385.8813,388.399,return,0.1505,,31.25,0,55,55,0,1,FBP-OG-71.png,0.35,1.2,1,0.5,,,,,,,,,,,,,,,,,,,,,,,,,,,,,,,,,,,,,,,,,,,,,
,,,,,SPR24_070,18,Female,2024-04-19_09h32.54.295,jersey_experiment_5_v0,2023.2.2,Win32,84.74576271,,,,,,,,,,,,,,,,388.3992,389.4463,389.4463,391.1285,return,0.1784,,78.64583333,0,56,56,59,1,FBP-PT-19.png,0.45,1.2,60,0.25,,,,,,,,,,,,,,,,,,,,,,,,,,,,,,,,,,,,,,,,,,,,,
,,,,,SPR24_070,18,Female,2024-04-19_09h32.54.295,jersey_experiment_5_v0,2023.2.2,Win32,84.74576271,,,,,,,,,,,,,,,,391.1286,392.4227,392.4227,393.7052,return,0.1568,,98.4375,0,57,57,4,1,FBP-OG-71.png,0.45,1.2,5,0.5,,,,,,,,,,,,,,,,,,,,,,,,,,,,,,,,,,,,,,,,,,,,,
,,,,,SPR24_070,18,Female,2024-04-19_09h32.54.295,jersey_experiment_5_v0,2023.2.2,Win32,84.74576271,,,,,,,,,,,,,,,,393.7053,394.7521,394.7521,396.564,return,0.2299,,49.73958333,0,58,58,26,1,FBP-YG-19.png,0.37,1.2,27,0.25,,,,,,,,,,,,,,,,,,,,,,,,,,,,,,,,,,,,,,,,,,,,,
,,,,,SPR24_070,18,Female,2024-04-19_09h32.54.295,jersey_experiment_5_v0,2023.2.2,Win32,84.74576271,,,,,,,,,,,,,,,,396.5642,397.8581,397.8581,398.9523,return,0.1811,,41.92708333,0,59,59,6,1,FBP-OG-81.png,0.37,1.2,7,0.5,,,,,,,,,,,,,,,,,,,,,,,,,,,,,,,,,,,,,,,,,,,,,
,,,,,SPR24_070,18,Female,2024-04-19_09h32.54.295,jersey_experiment_5_v0,2023.2.2,Win32,84.74576271,,,,,,,,,,,,,,,,398.9543,400.2466,400.2466,401.7054,return,0.2362,,98.17708333,,,,,,FBP-OG-19.png,0.45,1.2,15,0.5,0,0,0,14,1,,,,,,,,,,,,,,,,,,,,,,,,,,,,,,,,,,,,,,,,
,,,,,SPR24_070,18,Female,2024-04-19_09h32.54.295,jersey_experiment_5_v0,2023.2.2,Win32,84.74576271,,,,,,,,,,,,,,,,401.7056,402.7524,402.7524,404.4584,return,0.2023,,49.73958333,,,,,,FBP-YG-71.png,0.37,1.2,17,0.25,0,1,1,16,1,,,,,,,,,,,,,,,,,,,,,,,,,,,,,,,,,,,,,,,,
,,,,,SPR24_070,18,Female,2024-04-19_09h32.54.295,jersey_experiment_5_v0,2023.2.2,Win32,84.74576271,,,,,,,,,,,,,,,,404.4586,405.7526,405.7527,407.2115,return,0.2591,,98.828125,,,,,,FBP-OG-19.png,0.43,1.2,14,0.5,0,2,2,13,1,,,,,,,,,,,,,,,,,,,,,,,,,,,,,,,,,,,,,,,,
,,,,,SPR24_070,18,Female,2024-04-19_09h32.54.295,jersey_experiment_5_v0,2023.2.2,Win32,84.74576271,,,,,,,,,,,,,,,,407.2118,408.2585,408.2586,410.4469,return,0.1273,,62.890625,,,,,,FBP-PT-81.png,0.4,1.2,53,0.25,0,3,3,52,1,,,,,,,,,,,,,,,,,,,,,,,,,,,,,,,,,,,,,,,,
,,,,,SPR24_070,18,Female,2024-04-19_09h32.54.295,jersey_experiment_5_v0,2023.2.2,Win32,84.74576271,,,,,,,,,,,,,,,,410.4471,411.494,411.4941,414.0941,return,0.4941,,32.68229167,,,,,,FBP-PT-71.png,0.35,1.2,46,0.25,0,4,4,45,1,,,,,,,,,,,,,,,,,,,,,,,,,,,,,,,,,,,,,,,,
,,,,,SPR24_070,18,Female,2024-04-19_09h32.54.295,jersey_experiment_5_v0,2023.2.2,Win32,84.74576271,,,,,,,,,,,,,,,,414.0943,415.3882,415.3883,416.7413,return,0.1226,,49.609375,,,,,,FBP-RB-71.png,0.4,1.2,33,0.5,0,5,5,32,1,,,,,,,,,,,,,,,,,,,,,,,,,,,,,,,,,,,,,,,,
,,,,,SPR24_070,18,Female,2024-04-19_09h32.54.295,jersey_experiment_5_v0,2023.2.2,Win32,84.74576271,,,,,,,,,,,,,,,,416.7416,418.0354,418.0355,419.8353,return,0.1428,,18.88020833,,,,,,FBP-OG-19.png,0.37,1.2,12,0.5,0,6,6,11,1,,,,,,,,,,,,,,,,,,,,,,,,,,,,,,,,,,,,,,,,
,,,,,SPR24_070,18,Female,2024-04-19_09h32.54.295,jersey_experiment_5_v0,2023.2.2,Win32,84.74576271,,,,,,,,,,,,,,,,419.8356,421.1295,421.1295,423.4003,return,0.1577,,70.703125,,,,,,FBP-OG-18.png,0.43,1.2,9,0.5,0,7,7,8,1,,,,,,,,,,,,,,,,,,,,,,,,,,,,,,,,,,,,,,,,
,,,,,SPR24_070,18,Female,2024-04-19_09h32.54.295,jersey_experiment_5_v0,2023.2.2,Win32,84.74576271,,,,,,,,,,,,,,,,423.4006,424.4473,424.4473,425.9887,return,0.1704,,55.98958333,,,,,,FBP-PT-71.png,0.37,1.2,47,0.25,0,8,8,46,1,,,,,,,,,,,,,,,,,,,,,,,,,,,,,,,,,,,,,,,,
,,,,,SPR24_070,18,Female,2024-04-19_09h32.54.295,jersey_experiment_5_v0,2023.2.2,Win32,84.74576271,,,,,,,,,,,,,,,,425.9888,427.0357,427.0357,428.4357,return,0.1619,,89.32291667,,,,,,FBP-YG-91.png,0.43,1.2,29,0.25,0,9,9,28,1,,,,,,,,,,,,,,,,,,,,,,,,,,,,,,,,,,,,,,,,
,,,,,SPR24_070,18,Female,2024-04-19_09h32.54.295,jersey_experiment_5_v0,2023.2.2,Win32,84.74576271,,,,,,,,,,,,,,,,428.4359,429.4828,429.4828,431.1771,return,0.202,,97.65625,,,,,,FBP-PT-91.png,0.45,1.2,60,0.25,0,10,10,59,1,,,,,,,,,,,,,,,,,,,,,,,,,,,,,,,,,,,,,,,,
,,,,,SPR24_070,18,Female,2024-04-19_09h32.54.295,jersey_experiment_5_v0,2023.2.2,Win32,84.74576271,,,,,,,,,,,,,,,,431.1772,432.2241,432.2242,438.295,return,0.0267,,67.44791667,,,,,,FBP-PT-71.png,0.4,1.2,48,0.25,0,11,11,47,1,,,,,,,,,,,,,,,,,,,,,,,,,,,,,,,,,,,,,,,,
,,,,,SPR24_070,18,Female,2024-04-19_09h32.54.295,jersey_experiment_5_v0,2023.2.2,Win32,84.74576271,,,,,,,,,,,,,,,,438.2952,439.5891,439.5891,440.6009,return,0.049,,95.83333333,,,,,,FBP-OG-17.png,0.45,1.2,5,0.5,0,12,12,4,1,,,,,,,,,,,,,,,,,,,,,,,,,,,,,,,,,,,,,,,,
,,,,,SPR24_070,18,Female,2024-04-19_09h32.54.295,jersey_experiment_5_v0,2023.2.2,Win32,84.74576271,,,,,,,,,,,,,,,,440.6011,441.648,441.648,445.8482,return,1.0754,,43.48958333,,,,,,FBP-YG-71.png,0.35,1.2,16,0.25,0,13,13,15,1,,,,,,,,,,,,,,,,,,,,,,,,,,,,,,,,,,,,,,,,
,,,,,SPR24_070,18,Female,2024-04-19_09h32.54.295,jersey_experiment_5_v0,2023.2.2,Win32,84.74576271,,,,,,,,,,,,,,,,445.8485,447.1423,447.1424,448.3188,return,0.2115,,90.75520833,,,,,,FBP-RB-91.png,0.45,1.2,45,0.5,0,14,14,44,1,,,,,,,,,,,,,,,,,,,,,,,,,,,,,,,,,,,,,,,,
,,,,,SPR24_070,18,Female,2024-04-19_09h32.54.295,jersey_experiment_5_v0,2023.2.2,Win32,84.74576271,,,,,,,,,,,,,,,,448.3191,449.3659,449.3659,451.4366,return,0.0801,,75.390625,,,,,,FBP-YG-81.png,0.4,1.2,23,0.25,0,15,15,22,1,,,,,,,,,,,,,,,,,,,,,,,,,,,,,,,,,,,,,,,,
,,,,,SPR24_070,18,Female,2024-04-19_09h32.54.295,jersey_experiment_5_v0,2023.2.2,Win32,84.74576271,,,,,,,,,,,,,,,,451.4368,452.4837,452.4837,453.3189,return,0.147,,75.13020833,,,,,,FBP-PT-81.png,0.43,1.2,54,0.25,0,16,16,53,1,,,,,,,,,,,,,,,,,,,,,,,,,,,,,,,,,,,,,,,,
,,,,,SPR24_070,18,Female,2024-04-19_09h32.54.295,jersey_experiment_5_v0,2023.2.2,Win32,84.74576271,,,,,,,,,,,,,,,,453.3192,454.3661,454.3662,459.4133,return,3.7958,,56.51041667,,,,,,FBP-PT-81.png,0.35,1.2,51,0.25,0,17,17,50,1,,,,,,,,,,,,,,,,,,,,,,,,,,,,,,,,,,,,,,,,
,,,,,SPR24_070,18,Female,2024-04-19_09h32.54.295,jersey_experiment_5_v0,2023.2.2,Win32,84.74576271,,,,,,,,,,,,,,,,459.4136,460.7074,460.7075,462.2605,return,0.4414,,47.13541667,,,,,,FBP-OG-18.png,0.4,1.2,8,0.5,0,18,18,7,1,,,,,,,,,,,,,,,,,,,,,,,,,,,,,,,,,,,,,,,,
,,,,,SPR24_070,18,Female,2024-04-19_09h32.54.295,jersey_experiment_5_v0,2023.2.2,Win32,84.74576271,,,,,,,,,,,,,,,,462.2607,463.5546,463.5547,465.1664,return,0.0944,,91.53645833,,,,,,FBP-RB-91.png,0.43,1.2,44,0.5,0,19,19,43,1,,,,,,,,,,,,,,,,,,,,,,,,,,,,,,,,,,,,,,,,
,,,,,SPR24_070,18,Female,2024-04-19_09h32.54.295,jersey_experiment_5_v0,2023.2.2,Win32,84.74576271,,,,,,,,,,,,,,,,465.1667,466.4605,466.4606,468.5665,return,0.171,,55.98958333,,,,,,FBP-RB-81.png,0.37,1.2,37,0.5,0,20,20,36,1,,,,,,,,,,,,,,,,,,,,,,,,,,,,,,,,,,,,,,,,
,,,,,SPR24_070,18,Female,2024-04-19_09h32.54.295,jersey_experiment_5_v0,2023.2.2,Win32,84.74576271,,,,,,,,,,,,,,,,468.5668,469.8607,469.8607,472.0726,return,0.1221,,69.53125,,,,,,FBP-RB-91.png,0.4,1.2,43,0.5,0,21,21,42,1,,,,,,,,,,,,,,,,,,,,,,,,,,,,,,,,,,,,,,,,
,,,,,SPR24_070,18,Female,2024-04-19_09h32.54.295,jersey_experiment_5_v0,2023.2.2,Win32,84.74576271,,,,,,,,,,,,,,,,472.0729,473.3666,473.3666,478.0376,return,1.9723,,25,,,,,,FBP-OG-19.png,0.35,1.2,11,0.5,0,22,22,10,1,,,,,,,,,,,,,,,,,,,,,,,,,,,,,,,,,,,,,,,,
,,,,,SPR24_070,18,Female,2024-04-19_09h32.54.295,jersey_experiment_5_v0,2023.2.2,Win32,84.74576271,,,,,,,,,,,,,,,,478.0378,479.3318,479.3318,481.8025,return,1.3793,,35.28645833,,,,,,FBP-OG-19.png,0.4,1.2,13,0.5,0,23,23,12,1,,,,,,,,,,,,,,,,,,,,,,,,,,,,,,,,,,,,,,,,
,,,,,SPR24_070,18,Female,2024-04-19_09h32.54.295,jersey_experiment_5_v0,2023.2.2,Win32,84.74576271,,,,,,,,,,,,,,,,481.8027,482.8493,482.8494,487.1908,return,0.3236,,50.13020833,,,,,,FBP-PT-81.png,0.37,1.2,52,0.25,0,24,24,51,1,,,,,,,,,,,,,,,,,,,,,,,,,,,,,,,,,,,,,,,,
,,,,,SPR24_070,18,Female,2024-04-19_09h32.54.295,jersey_experiment_5_v0,2023.2.2,Win32,84.74576271,,,,,,,,,,,,,,,,487.1911,488.2379,488.2379,490.2498,return,0.109,,49.34895833,,,,,,FBP-YG-91.png,0.37,1.2,27,0.25,0,25,25,26,1,,,,,,,,,,,,,,,,,,,,,,,,,,,,,,,,,,,,,,,,
,,,,,SPR24_070,18,Female,2024-04-19_09h32.54.295,jersey_experiment_5_v0,2023.2.2,Win32,84.74576271,,,,,,,,,,,,,,,,490.25,491.2968,491.2968,492.7556,return,0.1597,,70.83333333,,,,,,FBP-PT-91.png,0.43,1.2,59,0.25,0,26,26,58,1,,,,,,,,,,,,,,,,,,,,,,,,,,,,,,,,,,,,,,,,
,,,,,SPR24_070,18,Female,2024-04-19_09h32.54.295,jersey_experiment_5_v0,2023.2.2,Win32,84.74576271,,,,,,,,,,,,,,,,492.7559,494.0498,494.0499,495.5322,return,0.1651,,31.38020833,,,,,,FBP-OG-18.png,0.37,1.2,7,0.5,0,27,27,6,1,,,,,,,,,,,,,,,,,,,,,,,,,,,,,,,,,,,,,,,,
,,,,,SPR24_070,18,Female,2024-04-19_09h32.54.295,jersey_experiment_5_v0,2023.2.2,Win32,84.74576271,,,,,,,,,,,,,,,,495.5324,496.5793,496.5793,502.4266,return,0.1523,,92.05729167,,,,,,FBP-PT-81.png,0.45,1.2,55,0.25,0,28,28,54,1,,,,,,,,,,,,,,,,,,,,,,,,,,,,,,,,,,,,,,,,
,,,,,SPR24_070,18,Female,2024-04-19_09h32.54.295,jersey_experiment_5_v0,2023.2.2,Win32,84.74576271,,,,,,,,,,,,,,,,502.4269,503.7208,503.7209,504.6855,return,0.1504,,88.671875,,,,,,FBP-RB-81.png,0.45,1.2,40,0.5,0,29,29,39,1,,,,,,,,,,,,,,,,,,,,,,,,,,,,,,,,,,,,,,,,
,,,,,SPR24_070,18,Female,2024-04-19_09h32.54.295,jersey_experiment_5_v0,2023.2.2,Win32,84.74576271,,,,,,,,,,,,,,,,504.6858,505.7326,505.7326,507.7328,return,0.6643,,31.25,,,,,,FBP-YG-91.png,0.4,1.2,28,0.25,0,30,30,27,1,,,,,,,,,,,,,,,,,,,,,,,,,,,,,,,,,,,,,,,,
,,,,,SPR24_070,18,Female,2024-04-19_09h32.54.295,jersey_experiment_5_v0,2023.2.2,Win32,84.74576271,,,,,,,,,,,,,,,,507.7331,508.7799,508.7799,512.5799,return,2.3502,,30.20833333,,,,,,FBP-YG-91.png,0.35,1.2,26,0.25,0,31,31,25,1,,,,,,,,,,,,,,,,,,,,,,,,,,,,,,,,,,,,,,,,
,,,,,SPR24_070,18,Female,2024-04-19_09h32.54.295,jersey_experiment_5_v0,2023.2.2,Win32,84.74576271,,,,,,,,,,,,,,,,512.5801,513.8742,513.8742,515.1448,return,0.1431,,22.13541667,,,,,,FBP-RB-91.png,0.37,1.2,42,0.5,0,32,32,41,1,,,,,,,,,,,,,,,,,,,,,,,,,,,,,,,,,,,,,,,,
,,,,,SPR24_070,18,Female,2024-04-19_09h32.54.295,jersey_experiment_5_v0,2023.2.2,Win32,84.74576271,,,,,,,,,,,,,,,,515.1451,516.1917,516.1918,517.839,return,0.1647,,93.61979167,,,,,,FBP-YG-71.png,0.43,1.2,19,0.25,0,33,33,18,1,,,,,,,,,,,,,,,,,,,,,,,,,,,,,,,,,,,,,,,,
,,,,,SPR24_070,18,Female,2024-04-19_09h32.54.295,jersey_experiment_5_v0,2023.2.2,Win32,84.74576271,,,,,,,,,,,,,,,,517.8391,518.886,518.886,520.2155,return,0.1231,,38.02083333,,,,,,FBP-PT-91.png,0.35,1.2,56,0.25,0,34,34,55,1,,,,,,,,,,,,,,,,,,,,,,,,,,,,,,,,,,,,,,,,
,,,,,SPR24_070,18,Female,2024-04-19_09h32.54.295,jersey_experiment_5_v0,2023.2.2,Win32,84.74576271,,,,,,,,,,,,,,,,520.2157,521.5098,521.5099,522.4272,return,0.0722,,94.40104167,,,,,,FBP-OG-18.png,0.45,1.2,10,0.5,0,35,35,9,1,,,,,,,,,,,,,,,,,,,,,,,,,,,,,,,,,,,,,,,,
,,,,,SPR24_070,18,Female,2024-04-19_09h32.54.295,jersey_experiment_5_v0,2023.2.2,Win32,84.74576271,,,,,,,,,,,,,,,,522.4274,523.4744,523.4745,525.3688,return,0.145,,49.73958333,,,,,,FBP-YG-81.png,0.37,1.2,22,0.25,0,36,36,21,1,,,,,,,,,,,,,,,,,,,,,,,,,,,,,,,,,,,,,,,,
,,,,,SPR24_070,18,Female,2024-04-19_09h32.54.295,jersey_experiment_5_v0,2023.2.2,Win32,84.74576271,,,,,,,,,,,,,,,,525.369,526.4158,526.4158,528.1217,return,0.7089,,88.671875,,,,,,FBP-YG-81.png,0.45,1.2,25,0.25,0,37,37,24,1,,,,,,,,,,,,,,,,,,,,,,,,,,,,,,,,,,,,,,,,
,,,,,SPR24_070,18,Female,2024-04-19_09h32.54.295,jersey_experiment_5_v0,2023.2.2,Win32,84.74576271,,,,,,,,,,,,,,,,528.122,529.416,529.4161,531.5924,return,0.8016,,60.546875,,,,,,FBP-RB-81.png,0.35,1.2,36,0.5,0,38,38,35,1,,,,,,,,,,,,,,,,,,,,,,,,,,,,,,,,,,,,,,,,
,,,,,SPR24_070,18,Female,2024-04-19_09h32.54.295,jersey_experiment_5_v0,2023.2.2,Win32,84.74576271,,,,,,,,,,,,,,,,531.5926,532.6395,532.6396,533.7688,return,0.1448,,60.546875,,,,,,FBP-PT-91.png,0.37,1.2,57,0.25,0,39,39,56,1,,,,,,,,,,,,,,,,,,,,,,,,,,,,,,,,,,,,,,,,
,,,,,SPR24_070,18,Female,2024-04-19_09h32.54.295,jersey_experiment_5_v0,2023.2.2,Win32,84.74576271,,,,,,,,,,,,,,,,533.769,534.816,534.816,538.2631,return,2.0152,,93.75,,,,,,FBP-YG-71.png,0.45,1.2,20,0.25,0,40,40,19,1,,,,,,,,,,,,,,,,,,,,,,,,,,,,,,,,,,,,,,,,
,,,,,SPR24_070,18,Female,2024-04-19_09h32.54.295,jersey_experiment_5_v0,2023.2.2,Win32,84.74576271,,,,,,,,,,,,,,,,538.2633,539.3103,539.3104,540.5574,return,0.212,,89.32291667,,,,,,FBP-PT-71.png,0.43,1.2,49,0.25,0,41,41,48,1,,,,,,,,,,,,,,,,,,,,,,,,,,,,,,,,,,,,,,,,
,,,,,SPR24_070,18,Female,2024-04-19_09h32.54.295,jersey_experiment_5_v0,2023.2.2,Win32,84.74576271,,,,,,,,,,,,,,,,540.5576,541.6044,541.6045,543.3222,return,0.1765,,83.72395833,,,,,,FBP-PT-71.png,0.45,1.2,50,0.25,0,42,42,49,1,,,,,,,,,,,,,,,,,,,,,,,,,,,,,,,,,,,,,,,,
,,,,,SPR24_070,18,Female,2024-04-19_09h32.54.295,jersey_experiment_5_v0,2023.2.2,Win32,84.74576271,,,,,,,,,,,,,,,,543.3224,544.6162,544.6162,546.1693,return,0.1781,,35.28645833,,,,,,FBP-RB-71.png,0.37,1.2,32,0.5,0,43,43,31,1,,,,,,,,,,,,,,,,,,,,,,,,,,,,,,,,,,,,,,,,
,,,,,SPR24_070,18,Female,2024-04-19_09h32.54.295,jersey_experiment_5_v0,2023.2.2,Win32,84.74576271,,,,,,,,,,,,,,,,546.1696,547.4636,547.4636,551.0284,return,0.8999,,73.17708333,,,,,,FBP-RB-81.png,0.43,1.2,39,0.5,0,44,44,38,1,,,,,,,,,,,,,,,,,,,,,,,,,,,,,,,,,,,,,,,,
,,,,,SPR24_070,18,Female,2024-04-19_09h32.54.295,jersey_experiment_5_v0,2023.2.2,Win32,84.74576271,,,,,,,,,,,,,,,,551.0287,552.3225,552.3225,554.4521,return,0.724,,85.02604167,,,,,,FBP-RB-71.png,0.45,1.2,35,0.5,0,45,45,34,1,,,,,,,,,,,,,,,,,,,,,,,,,,,,,,,,,,,,,,,,
,,,,,SPR24_070,18,Female,2024-04-19_09h32.54.295,jersey_experiment_5_v0,2023.2.2,Win32,84.74576271,,,,,,,,,,,,,,,,554.4522,555.4992,555.4993,557.6049,return,0.1255,,74.609375,,,,,,FBP-YG-81.png,0.43,1.2,24,0.25,0,46,46,23,1,,,,,,,,,,,,,,,,,,,,,,,,,,,,,,,,,,,,,,,,
,,,,,SPR24_070,18,Female,2024-04-19_09h32.54.295,jersey_experiment_5_v0,2023.2.2,Win32,84.74576271,,,,,,,,,,,,,,,,557.6052,558.8992,558.8992,559.8051,return,0.2115,,74.609375,,,,,,FBP-RB-71.png,0.43,1.2,34,0.5,0,47,47,33,1,,,,,,,,,,,,,,,,,,,,,,,,,,,,,,,,,,,,,,,,
,,,,,SPR24_070,18,Female,2024-04-19_09h32.54.295,jersey_experiment_5_v0,2023.2.2,Win32,84.74576271,,,,,,,,,,,,,,,,559.8054,561.0993,561.0993,562.0406,return,0.2129,,74.609375,,,,,,FBP-OG-17.png,0.4,1.2,3,0.5,0,48,48,2,1,,,,,,,,,,,,,,,,,,,,,,,,,,,,,,,,,,,,,,,,
,,,,,SPR24_070,18,Female,2024-04-19_09h32.54.295,jersey_experiment_5_v0,2023.2.2,Win32,84.74576271,,,,,,,,,,,,,,,,562.0409,563.0876,563.0876,564.2758,return,0.1616,,84.11458333,,,,,,FBP-YG-91.png,0.45,1.2,30,0.25,0,49,49,29,1,,,,,,,,,,,,,,,,,,,,,,,,,,,,,,,,,,,,,,,,
,,,,,SPR24_070,18,Female,2024-04-19_09h32.54.295,jersey_experiment_5_v0,2023.2.2,Win32,84.74576271,,,,,,,,,,,,,,,,564.2761,565.57,565.57,568.7584,return,0.2181,,38.671875,,,,,,FBP-RB-71.png,0.35,1.2,31,0.5,0,50,50,30,1,,,,,,,,,,,,,,,,,,,,,,,,,,,,,,,,,,,,,,,,
,,,,,SPR24_070,18,Female,2024-04-19_09h32.54.295,jersey_experiment_5_v0,2023.2.2,Win32,84.74576271,,,,,,,,,,,,,,,,568.7586,570.0524,570.0525,572.0526,return,0.8171,,49.73958333,,,,,,FBP-RB-81.png,0.4,1.2,38,0.5,0,51,51,37,1,,,,,,,,,,,,,,,,,,,,,,,,,,,,,,,,,,,,,,,,
,,,,,SPR24_070,18,Female,2024-04-19_09h32.54.295,jersey_experiment_5_v0,2023.2.2,Win32,84.74576271,,,,,,,,,,,,,,,,572.0529,573.3468,573.3469,574.8881,return,0.0725,,16.40625,,,,,,FBP-OG-17.png,0.35,1.2,1,0.5,0,52,52,0,1,,,,,,,,,,,,,,,,,,,,,,,,,,,,,,,,,,,,,,,,
,,,,,SPR24_070,18,Female,2024-04-19_09h32.54.295,jersey_experiment_5_v0,2023.2.2,Win32,84.74576271,,,,,,,,,,,,,,,,574.8884,575.9351,575.9351,586.3826,return,4.5985,,66.53645833,,,,,,FBP-PT-91.png,0.4,1.2,58,0.25,0,53,53,57,1,,,,,,,,,,,,,,,,,,,,,,,,,,,,,,,,,,,,,,,,
,,,,,SPR24_070,18,Female,2024-04-19_09h32.54.295,jersey_experiment_5_v0,2023.2.2,Win32,84.74576271,,,,,,,,,,,,,,,,586.3869,587.6886,587.6886,595.0771,return,0.3347,,55.46875,,,,,,FBP-OG-17.png,0.37,1.2,2,0.5,0,54,54,1,1,,,,,,,,,,,,,,,,,,,,,,,,,,,,,,,,,,,,,,,,
,,,,,SPR24_070,18,Female,2024-04-19_09h32.54.295,jersey_experiment_5_v0,2023.2.2,Win32,84.74576271,,,,,,,,,,,,,,,,595.0773,596.124,596.1241,598.6654,return,0.177,,67.05729167,,,,,,FBP-YG-71.png,0.4,1.2,18,0.25,0,55,55,17,1,,,,,,,,,,,,,,,,,,,,,,,,,,,,,,,,,,,,,,,,
,,,,,SPR24_070,18,Female,2024-04-19_09h32.54.295,jersey_experiment_5_v0,2023.2.2,Win32,84.74576271,,,,,,,,,,,,,,,,598.6655,599.9596,599.9596,601.1949,return,0.1176,,35.15625,,,,,,FBP-OG-18.png,0.35,1.2,6,0.5,0,56,56,5,1,,,,,,,,,,,,,,,,,,,,,,,,,,,,,,,,,,,,,,,,
,,,,,SPR24_070,18,Female,2024-04-19_09h32.54.295,jersey_experiment_5_v0,2023.2.2,Win32,84.74576271,,,,,,,,,,,,,,,,601.1951,602.489,602.4891,603.8185,return,0.1524,,82.68229167,,,,,,FBP-OG-17.png,0.43,1.2,4,0.5,0,57,57,3,1,,,,,,,,,,,,,,,,,,,,,,,,,,,,,,,,,,,,,,,,
,,,,,SPR24_070,18,Female,2024-04-19_09h32.54.295,jersey_experiment_5_v0,2023.2.2,Win32,84.74576271,,,,,,,,,,,,,,,,603.8187,605.1126,605.1126,606.5244,return,0.3857,,47.52604167,,,,,,FBP-RB-91.png,0.35,1.2,41,0.5,0,58,58,40,1,,,,,,,,,,,,,,,,,,,,,,,,,,,,,,,,,,,,,,,,
,,,,,SPR24_070,18,Female,2024-04-19_09h32.54.295,jersey_experiment_5_v0,2023.2.2,Win32,84.74576271,,,,,,,,,,,,,,,,606.5247,607.5716,607.5716,608.7715,return,0.1946,,43.48958333,,,,,,FBP-YG-81.png,0.35,1.2,21,0.25,0,59,59,20,1,,,,,,,,,,,,,,,,,,,,,,,,,,,,,,,,,,,,,,,,
,,,,,SPR24_070,18,Female,2024-04-19_09h32.54.295,jersey_experiment_5_v0,2023.2.2,Win32,84.74576271,,,,,,,,,,,,,,,,,,,,,,,,,,,,,,,,,,,,,,,608.772,728.7645,,,,,,,,,,,,,,,,,,,,,,,,,,,,,,,,,,,,,,
,,,,,SPR24_070,18,Female,2024-04-19_09h32.54.295,jersey_experiment_5_v0,2023.2.2,Win32,84.74576271,,,,,,,,,,,,,,,,,,,,,,,,,,,,,,,,,,,,,,,,,728.7646,733.4352,return,4.6586,,,,,,,,,,,,,,,,,,,,,,,,,,,,,,,,,,
,,,,,SPR24_070,18,Female,2024-04-19_09h32.54.295,jersey_experiment_5_v0,2023.2.2,Win32,84.74576271,,,,,,,,,,,,,,,,733.4413,734.7408,734.7408,738.8587,return,0.99,,75,,,,,,FBP-PT-17.png,0.45,1.2,50,0.5,,,,,,,,,,,,,0,0,0,49,1,,,,,,,,,,,,,,,,,,,,,,,,,,,,
,,,,,SPR24_070,18,Female,2024-04-19_09h32.54.295,jersey_experiment_5_v0,2023.2.2,Win32,84.74576271,,,,,,,,,,,,,,,,738.8592,739.9057,739.9057,741.6704,return,0.2151,,78.64583333,,,,,,FBP-OG-71.png,0.45,1.2,5,0.25,,,,,,,,,,,,,0,1,1,4,1,,,,,,,,,,,,,,,,,,,,,,,,,,,,
,,,,,SPR24_070,18,Female,2024-04-19_09h32.54.295,jersey_experiment_5_v0,2023.2.2,Win32,84.74576271,,,,,,,,,,,,,,,,741.6707,742.7175,742.7176,744.0706,return,0.1682,,82.16145833,,,,,,FBP-RB-18.png,0.45,1.2,40,0.25,,,,,,,,,,,,,0,2,2,39,1,,,,,,,,,,,,,,,,,,,,,,,,,,,,
,,,,,SPR24_070,18,Female,2024-04-19_09h32.54.295,jersey_experiment_5_v0,2023.2.2,Win32,84.74576271,,,,,,,,,,,,,,,,744.0709,745.3647,745.3647,746.7766,return,0.1803,,49.47916667,,,,,,FBP-YG-18.png,0.37,1.2,22,0.5,,,,,,,,,,,,,0,3,3,21,1,,,,,,,,,,,,,,,,,,,,,,,,,,,,
,,,,,SPR24_070,18,Female,2024-04-19_09h32.54.295,jersey_experiment_5_v0,2023.2.2,Win32,84.74576271,,,,,,,,,,,,,,,,746.7768,747.8236,747.8237,749.3884,return,0.1562,,8.723958333,,,,,,FBP-OG-91.png,0.35,1.2,11,0.25,,,,,,,,,,,,,0,4,4,10,1,,,,,,,,,,,,,,,,,,,,,,,,,,,,
,,,,,SPR24_070,18,Female,2024-04-19_09h32.54.295,jersey_experiment_5_v0,2023.2.2,Win32,84.74576271,,,,,,,,,,,,,,,,749.3886,750.4354,750.4355,751.3414,return,0.118,,7.8125,,,,,,FBP-OG-81.png,0.37,1.2,7,0.25,,,,,,,,,,,,,0,5,5,6,1,,,,,,,,,,,,,,,,,,,,,,,,,,,,
,,,,,SPR24_070,18,Female,2024-04-19_09h32.54.295,jersey_experiment_5_v0,2023.2.2,Win32,84.74576271,,,,,,,,,,,,,,,,751.3417,752.3884,752.3885,755.1413,return,0.1718,,68.22916667,,,,,,FBP-OG-91.png,0.43,1.2,14,0.25,,,,,,,,,,,,,0,6,6,13,1,,,,,,,,,,,,,,,,,,,,,,,,,,,,
,,,,,SPR24_070,18,Female,2024-04-19_09h32.54.295,jersey_experiment_5_v0,2023.2.2,Win32,84.74576271,,,,,,,,,,,,,,,,755.1416,756.1885,756.1885,757.4122,return,0.1375,,29.296875,,,,,,FBP-OG-91.png,0.37,1.2,12,0.25,,,,,,,,,,,,,0,7,7,11,1,,,,,,,,,,,,,,,,,,,,,,,,,,,,
,,,,,SPR24_070,18,Female,2024-04-19_09h32.54.295,jersey_experiment_5_v0,2023.2.2,Win32,84.74576271,,,,,,,,,,,,,,,,757.4124,758.4592,758.4593,761.9417,return,0.1949,,53.77604167,,,,,,FBP-RB-17.png,0.37,1.2,32,0.25,,,,,,,,,,,,,0,8,8,31,1,,,,,,,,,,,,,,,,,,,,,,,,,,,,
,,,,,SPR24_070,18,Female,2024-04-19_09h32.54.295,jersey_experiment_5_v0,2023.2.2,Win32,84.74576271,,,,,,,,,,,,,,,,761.942,763.2361,763.2361,764.2829,return,0.1325,,65.10416667,,,,,,FBP-YG-17.png,0.4,1.2,18,0.5,,,,,,,,,,,,,0,9,9,17,1,,,,,,,,,,,,,,,,,,,,,,,,,,,,
,,,,,SPR24_070,18,Female,2024-04-19_09h32.54.295,jersey_experiment_5_v0,2023.2.2,Win32,84.74576271,,,,,,,,,,,,,,,,764.2832,765.5772,765.5773,767.342,return,0.2261,,59.24479167,,,,,,FBP-PT-18.png,0.35,1.2,51,0.5,,,,,,,,,,,,,0,10,10,50,1,,,,,,,,,,,,,,,,,,,,,,,,,,,,
,,,,,SPR24_070,18,Female,2024-04-19_09h32.54.295,jersey_experiment_5_v0,2023.2.2,Win32,84.74576271,,,,,,,,,,,,,,,,767.3423,768.389,768.3891,770.2007,return,0.1683,,67.44791667,,,,,,FBP-RB-19.png,0.4,1.2,43,0.25,,,,,,,,,,,,,0,11,11,42,1,,,,,,,,,,,,,,,,,,,,,,,,,,,,
,,,,,SPR24_070,18,Female,2024-04-19_09h32.54.295,jersey_experiment_5_v0,2023.2.2,Win32,84.74576271,,,,,,,,,,,,,,,,770.201,771.2481,771.2482,773.001,return,0.2153,,91.40625,,,,,,FBP-RB-19.png,0.45,1.2,45,0.25,,,,,,,,,,,,,0,12,12,44,1,,,,,,,,,,,,,,,,,,,,,,,,,,,,
,,,,,SPR24_070,18,Female,2024-04-19_09h32.54.295,jersey_experiment_5_v0,2023.2.2,Win32,84.74576271,,,,,,,,,,,,,,,,773.0011,774.048,774.0481,775.4835,return,0.2353,,30.078125,,,,,,FBP-RB-19.png,0.35,1.2,41,0.25,,,,,,,,,,,,,0,13,13,40,1,,,,,,,,,,,,,,,,,,,,,,,,,,,,
,,,,,SPR24_070,18,Female,2024-04-19_09h32.54.295,jersey_experiment_5_v0,2023.2.2,Win32,84.74576271,,,,,,,,,,,,,,,,775.4837,776.7777,776.7777,777.6247,return,0.0949,,79.55729167,,,,,,FBP-PT-18.png,0.4,1.2,53,0.5,,,,,,,,,,,,,0,14,14,52,1,,,,,,,,,,,,,,,,,,,,,,,,,,,,
,,,,,SPR24_070,18,Female,2024-04-19_09h32.54.295,jersey_experiment_5_v0,2023.2.2,Win32,84.74576271,,,,,,,,,,,,,,,,777.6249,778.6718,778.6718,780.2013,return,0.3421,,69.66145833,,,,,,FBP-OG-91.png,0.4,1.2,13,0.25,,,,,,,,,,,,,0,15,15,12,1,,,,,,,,,,,,,,,,,,,,,,,,,,,,
,,,,,SPR24_070,18,Female,2024-04-19_09h32.54.295,jersey_experiment_5_v0,2023.2.2,Win32,84.74576271,,,,,,,,,,,,,,,,780.2015,781.4954,781.4954,783.0602,return,0.0672,,33.59375,,,,,,FBP-PT-19.png,0.35,1.2,56,0.5,,,,,,,,,,,,,0,16,16,55,1,,,,,,,,,,,,,,,,,,,,,,,,,,,,
,,,,,SPR24_070,18,Female,2024-04-19_09h32.54.295,jersey_experiment_5_v0,2023.2.2,Win32,84.74576271,,,,,,,,,,,,,,,,783.0605,784.3544,784.3544,785.625,return,0.0855,,93.75,,,,,,FBP-PT-17.png,0.43,1.2,49,0.5,,,,,,,,,,,,,0,17,17,48,1,,,,,,,,,,,,,,,,,,,,,,,,,,,,
,,,,,SPR24_070,18,Female,2024-04-19_09h32.54.295,jersey_experiment_5_v0,2023.2.2,Win32,84.74576271,,,,,,,,,,,,,,,,785.6251,786.9191,786.9192,788.0602,return,0.08,,77.86458333,,,,,,FBP-YG-19.png,0.4,1.2,28,0.5,,,,,,,,,,,,,0,18,18,27,1,,,,,,,,,,,,,,,,,,,,,,,,,,,,
,,,,,SPR24_070,18,Female,2024-04-19_09h32.54.295,jersey_experiment_5_v0,2023.2.2,Win32,84.74576271,,,,,,,,,,,,,,,,788.0604,789.1074,789.1075,790.2368,return,0.0619,,68.61979167,,,,,,FBP-OG-81.png,0.4,1.2,8,0.25,,,,,,,,,,,,,0,19,19,7,1,,,,,,,,,,,,,,,,,,,,,,,,,,,,
,,,,,SPR24_070,18,Female,2024-04-19_09h32.54.295,jersey_experiment_5_v0,2023.2.2,Win32,84.74576271,,,,,,,,,,,,,,,,790.2371,791.531,791.5311,793.7665,return,0.1351,,74.73958333,,,,,,FBP-PT-17.png,0.4,1.2,48,0.5,,,,,,,,,,,,,0,20,20,47,1,,,,,,,,,,,,,,,,,,,,,,,,,,,,
,,,,,SPR24_070,18,Female,2024-04-19_09h32.54.295,jersey_experiment_5_v0,2023.2.2,Win32,84.74576271,,,,,,,,,,,,,,,,793.7667,795.0605,795.0606,796.1076,return,0.071,,55.33854167,,,,,,FBP-PT-17.png,0.37,1.2,47,0.5,,,,,,,,,,,,,0,21,21,46,1,,,,,,,,,,,,,,,,,,,,,,,,,,,,
,,,,,SPR24_070,18,Female,2024-04-19_09h32.54.295,jersey_experiment_5_v0,2023.2.2,Win32,84.74576271,,,,,,,,,,,,,,,,796.1078,797.1547,797.1548,802.6611,return,0.1927,,49.73958333,,,,,,FBP-RB-17.png,0.45,1.2,35,0.25,,,,,,,,,,,,,0,22,22,34,1,,,,,,,,,,,,,,,,,,,,,,,,,,,,
,,,,,SPR24_070,18,Female,2024-04-19_09h32.54.295,jersey_experiment_5_v0,2023.2.2,Win32,84.74576271,,,,,,,,,,,,,,,,802.6612,803.955,803.955,805.1433,return,0.1082,,39.84375,,,,,,FBP-PT-18.png,0.37,1.2,52,0.5,,,,,,,,,,,,,0,23,23,51,1,,,,,,,,,,,,,,,,,,,,,,,,,,,,
,,,,,SPR24_070,18,Female,2024-04-19_09h32.54.295,jersey_experiment_5_v0,2023.2.2,Win32,84.74576271,,,,,,,,,,,,,,,,805.1434,806.1904,806.1905,807.355,return,0.0818,,80.46875,,,,,,FBP-RB-19.png,0.43,1.2,44,0.25,,,,,,,,,,,,,0,24,24,43,1,,,,,,,,,,,,,,,,,,,,,,,,,,,,
,,,,,SPR24_070,18,Female,2024-04-19_09h32.54.295,jersey_experiment_5_v0,2023.2.2,Win32,84.74576271,,,,,,,,,,,,,,,,807.3553,808.6492,808.6493,810.0142,return,0.1888,,93.61979167,,,,,,FBP-YG-19.png,0.43,1.2,29,0.5,,,,,,,,,,,,,0,25,25,28,1,,,,,,,,,,,,,,,,,,,,,,,,,,,,
,,,,,SPR24_070,18,Female,2024-04-19_09h32.54.295,jersey_experiment_5_v0,2023.2.2,Win32,84.74576271,,,,,,,,,,,,,,,,810.0144,811.0611,811.0612,813.4849,return,0.7443,,17.44791667,,,,,,FBP-OG-71.png,0.37,1.2,2,0.25,,,,,,,,,,,,,0,26,26,1,1,,,,,,,,,,,,,,,,,,,,,,,,,,,,
,,,,,SPR24_070,18,Female,2024-04-19_09h32.54.295,jersey_experiment_5_v0,2023.2.2,Win32,84.74576271,,,,,,,,,,,,,,,,813.4851,814.5319,814.5319,817.379,return,1.1623,,69.53125,,,,,,FBP-OG-71.png,0.4,1.2,3,0.25,,,,,,,,,,,,,0,27,27,2,1,,,,,,,,,,,,,,,,,,,,,,,,,,,,
,,,,,SPR24_070,18,Female,2024-04-19_09h32.54.295,jersey_experiment_5_v0,2023.2.2,Win32,84.74576271,,,,,,,,,,,,,,,,817.3793,818.6731,818.6731,819.4379,return,0.1176,,82.94270833,,,,,,FBP-YG-18.png,0.45,1.2,25,0.5,,,,,,,,,,,,,0,28,28,24,1,,,,,,,,,,,,,,,,,,,,,,,,,,,,
,,,,,SPR24_070,18,Female,2024-04-19_09h32.54.295,jersey_experiment_5_v0,2023.2.2,Win32,84.74576271,,,,,,,,,,,,,,,,819.4381,820.485,820.485,822.0263,return,0.1414,,35.546875,,,,,,FBP-RB-19.png,0.37,1.2,42,0.25,,,,,,,,,,,,,0,29,29,41,1,,,,,,,,,,,,,,,,,,,,,,,,,,,,
,,,,,SPR24_070,18,Female,2024-04-19_09h32.54.295,jersey_experiment_5_v0,2023.2.2,Win32,84.74576271,,,,,,,,,,,,,,,,822.0265,823.0734,823.0734,824.2498,return,0.2378,,79.03645833,,,,,,FBP-OG-91.png,0.45,1.2,15,0.25,,,,,,,,,,,,,0,30,30,14,1,,,,,,,,,,,,,,,,,,,,,,,,,,,,
,,,,,SPR24_070,18,Female,2024-04-19_09h32.54.295,jersey_experiment_5_v0,2023.2.2,Win32,84.74576271,,,,,,,,,,,,,,,,824.25,825.2969,825.2969,826.356,return,0.1847,,85.546875,,,,,,FBP-RB-18.png,0.4,1.2,38,0.25,,,,,,,,,,,,,0,31,31,37,1,,,,,,,,,,,,,,,,,,,,,,,,,,,,
,,,,,SPR24_070,18,Female,2024-04-19_09h32.54.295,jersey_experiment_5_v0,2023.2.2,Win32,84.74576271,,,,,,,,,,,,,,,,826.3563,827.4028,827.4029,828.6969,return,0.4499,,96.484375,,,,,,FBP-OG-71.png,0.43,1.2,4,0.25,,,,,,,,,,,,,0,32,32,3,1,,,,,,,,,,,,,,,,,,,,,,,,,,,,
,,,,,SPR24_070,18,Female,2024-04-19_09h32.54.295,jersey_experiment_5_v0,2023.2.2,Win32,84.74576271,,,,,,,,,,,,,,,,828.6971,829.7441,829.7441,830.8735,return,0.1885,,97.52604167,,,,,,FBP-OG-81.png,0.45,1.2,10,0.25,,,,,,,,,,,,,0,33,33,9,1,,,,,,,,,,,,,,,,,,,,,,,,,,,,
,,,,,SPR24_070,18,Female,2024-04-19_09h32.54.295,jersey_experiment_5_v0,2023.2.2,Win32,84.74576271,,,,,,,,,,,,,,,,830.8738,832.168,832.168,834.5795,return,0.0794,,43.88020833,,,,,,FBP-YG-17.png,0.35,1.2,16,0.5,,,,,,,,,,,,,0,34,34,15,1,,,,,,,,,,,,,,,,,,,,,,,,,,,,
,,,,,SPR24_070,18,Female,2024-04-19_09h32.54.295,jersey_experiment_5_v0,2023.2.2,Win32,84.74576271,,,,,,,,,,,,,,,,834.5797,835.6269,835.6269,836.8857,return,0.1474,,35.546875,,,,,,FBP-RB-17.png,0.35,1.2,31,0.25,,,,,,,,,,,,,0,35,35,30,1,,,,,,,,,,,,,,,,,,,,,,,,,,,,
,,,,,SPR24_070,18,Female,2024-04-19_09h32.54.295,jersey_experiment_5_v0,2023.2.2,Win32,84.74576271,,,,,,,,,,,,,,,,836.8858,837.9327,837.9328,839.0387,return,0.1557,,29.55729167,,,,,,FBP-OG-71.png,0.35,1.2,1,0.25,,,,,,,,,,,,,0,36,36,0,1,,,,,,,,,,,,,,,,,,,,,,,,,,,,
,,,,,SPR24_070,18,Female,2024-04-19_09h32.54.295,jersey_experiment_5_v0,2023.2.2,Win32,84.74576271,,,,,,,,,,,,,,,,839.039,840.3327,840.3327,841.4152,return,0.0876,,24.73958333,,,,,,FBP-YG-18.png,0.35,1.2,21,0.5,,,,,,,,,,,,,0,37,37,20,1,,,,,,,,,,,,,,,,,,,,,,,,,,,,
,,,,,SPR24_070,18,Female,2024-04-19_09h32.54.295,jersey_experiment_5_v0,2023.2.2,Win32,84.74576271,,,,,,,,,,,,,,,,841.4156,842.4621,842.4622,843.8154,return,0.346,,24.86979167,,,,,,FBP-RB-18.png,0.35,1.2,36,0.25,,,,,,,,,,,,,0,38,38,35,1,,,,,,,,,,,,,,,,,,,,,,,,,,,,
,,,,,SPR24_070,18,Female,2024-04-19_09h32.54.295,jersey_experiment_5_v0,2023.2.2,Win32,84.74576271,,,,,,,,,,,,,,,,843.8156,845.1095,845.1095,847.4271,return,0.3621,,72.265625,,,,,,FBP-YG-17.png,0.43,1.2,19,0.5,,,,,,,,,,,,,0,39,39,18,1,,,,,,,,,,,,,,,,,,,,,,,,,,,,
,,,,,SPR24_070,18,Female,2024-04-19_09h32.54.295,jersey_experiment_5_v0,2023.2.2,Win32,84.74576271,,,,,,,,,,,,,,,,847.4272,848.7212,848.7213,849.9803,return,0.2356,,69.01041667,,,,,,FBP-YG-17.png,0.37,1.2,17,0.5,,,,,,,,,,,,,0,40,40,16,1,,,,,,,,,,,,,,,,,,,,,,,,,,,,
,,,,,SPR24_070,18,Female,2024-04-19_09h32.54.295,jersey_experiment_5_v0,2023.2.2,Win32,84.74576271,,,,,,,,,,,,,,,,849.9806,851.2744,851.2744,853.0156,return,0.4022,,94.40104167,,,,,,FBP-YG-19.png,0.45,1.2,30,0.5,,,,,,,,,,,,,0,41,41,29,1,,,,,,,,,,,,,,,,,,,,,,,,,,,,
,,,,,SPR24_070,18,Female,2024-04-19_09h32.54.295,jersey_experiment_5_v0,2023.2.2,Win32,84.74576271,,,,,,,,,,,,,,,,853.0159,854.3096,854.3097,855.4038,return,0.1885,,95.83333333,,,,,,FBP-PT-18.png,0.43,1.2,54,0.5,,,,,,,,,,,,,0,42,42,53,1,,,,,,,,,,,,,,,,,,,,,,,,,,,,
,,,,,SPR24_070,18,Female,2024-04-19_09h32.54.295,jersey_experiment_5_v0,2023.2.2,Win32,84.74576271,,,,,,,,,,,,,,,,855.4041,856.6982,856.6982,857.9923,return,0.1921,,98.30729167,,,,,,FBP-PT-19.png,0.45,1.2,60,0.5,,,,,,,,,,,,,0,43,43,59,1,,,,,,,,,,,,,,,,,,,,,,,,,,,,
,,,,,SPR24_070,18,Female,2024-04-19_09h32.54.295,jersey_experiment_5_v0,2023.2.2,Win32,84.74576271,,,,,,,,,,,,,,,,857.9925,859.2863,859.2863,860.3099,return,0.3945,,98.17708333,,,,,,FBP-PT-19.png,0.43,1.2,59,0.5,,,,,,,,,,,,,0,44,44,58,1,,,,,,,,,,,,,,,,,,,,,,,,,,,,
,,,,,SPR24_070,18,Female,2024-04-19_09h32.54.295,jersey_experiment_5_v0,2023.2.2,Win32,84.74576271,,,,,,,,,,,,,,,,860.3101,861.6042,861.6042,862.4394,return,0.193,,97.91666667,,,,,,FBP-YG-17.png,0.45,1.2,20,0.5,,,,,,,,,,,,,0,45,45,19,1,,,,,,,,,,,,,,,,,,,,,,,,,,,,
,,,,,SPR24_070,18,Female,2024-04-19_09h32.54.295,jersey_experiment_5_v0,2023.2.2,Win32,84.74576271,,,,,,,,,,,,,,,,862.4397,863.7335,863.7336,865.4162,return,0.0866,,79.94791667,,,,,,FBP-PT-19.png,0.37,1.2,57,0.5,,,,,,,,,,,,,0,46,46,56,1,,,,,,,,,,,,,,,,,,,,,,,,,,,,
,,,,,SPR24_070,18,Female,2024-04-19_09h32.54.295,jersey_experiment_5_v0,2023.2.2,Win32,84.74576271,,,,,,,,,,,,,,,,865.4165,866.463,866.463,867.5809,return,0.1651,,84.89583333,,,,,,FBP-RB-17.png,0.43,1.2,34,0.25,,,,,,,,,,,,,0,47,47,33,1,,,,,,,,,,,,,,,,,,,,,,,,,,,,
,,,,,SPR24_070,18,Female,2024-04-19_09h32.54.295,jersey_experiment_5_v0,2023.2.2,Win32,84.74576271,,,,,,,,,,,,,,,,867.5812,868.8751,868.8751,870.2162,return,0.1337,,59.11458333,,,,,,FBP-YG-19.png,0.37,1.2,27,0.5,,,,,,,,,,,,,0,48,48,26,1,,,,,,,,,,,,,,,,,,,,,,,,,,,,
,,,,,SPR24_070,18,Female,2024-04-19_09h32.54.295,jersey_experiment_5_v0,2023.2.2,Win32,84.74576271,,,,,,,,,,,,,,,,870.2165,871.5104,871.5104,872.3811,return,0.0943,,61.71875,,,,,,FBP-YG-18.png,0.4,1.2,23,0.5,,,,,,,,,,,,,0,49,49,22,1,,,,,,,,,,,,,,,,,,,,,,,,,,,,
,,,,,SPR24_070,18,Female,2024-04-19_09h32.54.295,jersey_experiment_5_v0,2023.2.2,Win32,84.74576271,,,,,,,,,,,,,,,,872.3812,873.6753,873.6753,874.487,return,0.1322,,65.88541667,,,,,,FBP-PT-19.png,0.4,1.2,58,0.5,,,,,,,,,,,,,0,50,50,57,1,,,,,,,,,,,,,,,,,,,,,,,,,,,,
,,,,,SPR24_070,18,Female,2024-04-19_09h32.54.295,jersey_experiment_5_v0,2023.2.2,Win32,84.74576271,,,,,,,,,,,,,,,,874.4871,875.534,875.534,876.3575,return,0.2629,,65.88541667,,,,,,FBP-RB-18.png,0.37,1.2,37,0.25,,,,,,,,,,,,,0,51,51,36,1,,,,,,,,,,,,,,,,,,,,,,,,,,,,
,,,,,SPR24_070,18,Female,2024-04-19_09h32.54.295,jersey_experiment_5_v0,2023.2.2,Win32,84.74576271,,,,,,,,,,,,,,,,876.3578,877.4046,877.4046,880.44,return,1.8262,,53.25520833,,,,,,FBP-OG-81.png,0.35,1.2,6,0.25,,,,,,,,,,,,,0,52,52,5,1,,,,,,,,,,,,,,,,,,,,,,,,,,,,
,,,,,SPR24_070,18,Female,2024-04-19_09h32.54.295,jersey_experiment_5_v0,2023.2.2,Win32,84.74576271,,,,,,,,,,,,,,,,880.4402,881.7341,881.7342,883.1344,return,0.0935,,76.5625,,,,,,FBP-YG-18.png,0.43,1.2,24,0.5,,,,,,,,,,,,,0,53,53,23,1,,,,,,,,,,,,,,,,,,,,,,,,,,,,
,,,,,SPR24_070,18,Female,2024-04-19_09h32.54.295,jersey_experiment_5_v0,2023.2.2,Win32,84.74576271,,,,,,,,,,,,,,,,883.1345,884.4285,884.4285,885.4052,return,0.2122,,88.93229167,,,,,,FBP-PT-18.png,0.45,1.2,55,0.5,,,,,,,,,,,,,0,54,54,54,1,,,,,,,,,,,,,,,,,,,,,,,,,,,,
,,,,,SPR24_070,18,Female,2024-04-19_09h32.54.295,jersey_experiment_5_v0,2023.2.2,Win32,84.74576271,,,,,,,,,,,,,,,,885.4053,886.4522,886.4522,887.4286,return,0.1579,,90.49479167,,,,,,FBP-OG-81.png,0.43,1.2,9,0.25,,,,,,,,,,,,,0,55,55,8,1,,,,,,,,,,,,,,,,,,,,,,,,,,,,
,,,,,SPR24_070,18,Female,2024-04-19_09h32.54.295,jersey_experiment_5_v0,2023.2.2,Win32,84.74576271,,,,,,,,,,,,,,,,887.4288,888.7226,888.7226,890.1699,return,0.1411,,14.0625,,,,,,FBP-PT-17.png,0.35,1.2,46,0.5,,,,,,,,,,,,,0,56,56,45,1,,,,,,,,,,,,,,,,,,,,,,,,,,,,
,,,,,SPR24_070,18,Female,2024-04-19_09h32.54.295,jersey_experiment_5_v0,2023.2.2,Win32,84.74576271,,,,,,,,,,,,,,,,890.17,891.464,891.4641,892.6052,return,0.0943,,21.74479167,,,,,,FBP-YG-19.png,0.35,1.2,26,0.5,,,,,,,,,,,,,0,57,57,25,1,,,,,,,,,,,,,,,,,,,,,,,,,,,,
,,,,,SPR24_070,18,Female,2024-04-19_09h32.54.295,jersey_experiment_5_v0,2023.2.2,Win32,84.74576271,,,,,,,,,,,,,,,,892.6054,893.6523,893.6523,895.0995,return,0.2215,,49.86979167,,,,,,FBP-RB-17.png,0.4,1.2,33,0.25,,,,,,,,,,,,,0,58,58,32,1,,,,,,,,,,,,,,,,,,,,,,,,,,,,
,,,,,SPR24_070,18,Female,2024-04-19_09h32.54.295,jersey_experiment_5_v0,2023.2.2,Win32,84.74576271,,,,,,,,,,,,,,,,895.0997,896.1465,896.1466,897.3819,return,0.1241,,81.38020833,,,,,,FBP-RB-18.png,0.43,1.2,39,0.25,,,,,,,,,,,,,0,59,59,38,1,,,,,,,,,,,,,,,,,,,,,,,,,,,,
,,,,,SPR24_070,18,Female,2024-04-19_09h32.54.295,jersey_experiment_5_v0,2023.2.2,Win32,84.74576271,,,,,,,,,,,,,,,,897.3833,898.6761,898.6762,899.8761,return,0.0652,,58.33333333,,,,,,FBP-PT-91.png,0.35,1.2,56,0.5,,,,,,,,,,,,,,,,,,0,0,0,55,1,,,,,,,,,,,,,,,,,,,,,,,
,,,,,SPR24_070,18,Female,2024-04-19_09h32.54.295,jersey_experiment_5_v0,2023.2.2,Win32,84.74576271,,,,,,,,,,,,,,,,899.8763,901.1701,901.1702,903.1468,return,0.8345,,75.13020833,,,,,,FBP-YG-91.png,0.43,1.2,29,0.5,,,,,,,,,,,,,,,,,,0,1,1,28,1,,,,,,,,,,,,,,,,,,,,,,,
,,,,,SPR24_070,18,Female,2024-04-19_09h32.54.295,jersey_experiment_5_v0,2023.2.2,Win32,84.74576271,,,,,,,,,,,,,,,,903.1469,904.194,904.194,905.3821,return,0.1,,93.61979167,,,,,,FBP-OG-17.png,0.45,1.2,5,0.25,,,,,,,,,,,,,,,,,,0,2,2,4,1,,,,,,,,,,,,,,,,,,,,,,,
,,,,,SPR24_070,18,Female,2024-04-19_09h32.54.295,jersey_experiment_5_v0,2023.2.2,Win32,84.74576271,,,,,,,,,,,,,,,,905.3824,906.6762,906.6763,907.7469,return,0.1389,,97.265625,,,,,,FBP-YG-91.png,0.45,1.2,30,0.5,,,,,,,,,,,,,,,,,,0,3,3,29,1,,,,,,,,,,,,,,,,,,,,,,,
,,,,,SPR24_070,18,Female,2024-04-19_09h32.54.295,jersey_experiment_5_v0,2023.2.2,Win32,84.74576271,,,,,,,,,,,,,,,,907.7471,909.0411,909.0411,911.4999,return,0.0563,,77.34375,,,,,,FBP-YG-71.png,0.4,1.2,18,0.5,,,,,,,,,,,,,,,,,,0,4,4,17,1,,,,,,,,,,,,,,,,,,,,,,,
,,,,,SPR24_070,18,Female,2024-04-19_09h32.54.295,jersey_experiment_5_v0,2023.2.2,Win32,84.74576271,,,,,,,,,,,,,,,,911.5002,912.5472,912.5473,914.0412,return,0.0264,,81.11979167,,,,,,FBP-RB-71.png,0.4,1.2,33,0.25,,,,,,,,,,,,,,,,,,0,5,5,32,1,,,,,,,,,,,,,,,,,,,,,,,
,,,,,SPR24_070,18,Female,2024-04-19_09h32.54.295,jersey_experiment_5_v0,2023.2.2,Win32,84.74576271,,,,,,,,,,,,,,,,914.0414,915.0884,915.0884,916.1825,return,0.0764,,55.078125,,,,,,FBP-RB-71.png,0.37,1.2,32,0.25,,,,,,,,,,,,,,,,,,0,6,6,31,1,,,,,,,,,,,,,,,,,,,,,,,
,,,,,SPR24_070,18,Female,2024-04-19_09h32.54.295,jersey_experiment_5_v0,2023.2.2,Win32,84.74576271,,,,,,,,,,,,,,,,916.1826,917.2297,917.2297,918.6062,return,0.2924,,92.83854167,,,,,,FBP-RB-71.png,0.43,1.2,34,0.25,,,,,,,,,,,,,,,,,,0,7,7,33,1,,,,,,,,,,,,,,,,,,,,,,,
,,,,,SPR24_070,18,Female,2024-04-19_09h32.54.295,jersey_experiment_5_v0,2023.2.2,Win32,84.74576271,,,,,,,,,,,,,,,,918.6063,919.9002,919.9002,920.9238,return,0.1082,,40.49479167,,,,,,FBP-PT-81.png,0.4,1.2,53,0.5,,,,,,,,,,,,,,,,,,0,8,8,52,1,,,,,,,,,,,,,,,,,,,,,,,
,,,,,SPR24_070,18,Female,2024-04-19_09h32.54.295,jersey_experiment_5_v0,2023.2.2,Win32,84.74576271,,,,,,,,,,,,,,,,920.924,921.971,921.971,923.5593,return,0.1439,,94.921875,,,,,,FBP-OG-18.png,0.43,1.2,9,0.25,,,,,,,,,,,,,,,,,,0,9,9,8,1,,,,,,,,,,,,,,,,,,,,,,,
,,,,,SPR24_070,18,Female,2024-04-19_09h32.54.295,jersey_experiment_5_v0,2023.2.2,Win32,84.74576271,,,,,,,,,,,,,,,,923.5595,924.8536,924.8537,926.4417,return,0.1058,,95.18229167,,,,,,FBP-PT-71.png,0.45,1.2,50,0.5,,,,,,,,,,,,,,,,,,0,10,10,49,1,,,,,,,,,,,,,,,,,,,,,,,
,,,,,SPR24_070,18,Female,2024-04-19_09h32.54.295,jersey_experiment_5_v0,2023.2.2,Win32,84.74576271,,,,,,,,,,,,,,,,926.4419,927.4888,927.4888,929.1006,return,0.1649,,49.609375,,,,,,FBP-OG-17.png,0.37,1.2,2,0.25,,,,,,,,,,,,,,,,,,0,11,11,1,1,,,,,,,,,,,,,,,,,,,,,,,
,,,,,SPR24_070,18,Female,2024-04-19_09h32.54.295,jersey_experiment_5_v0,2023.2.2,Win32,84.74576271,,,,,,,,,,,,,,,,929.1008,930.1478,930.1478,932.3712,return,0.9736,,83.46354167,,,,,,FBP-OG-19.png,0.45,1.2,15,0.25,,,,,,,,,,,,,,,,,,0,12,12,14,1,,,,,,,,,,,,,,,,,,,,,,,
,,,,,SPR24_070,18,Female,2024-04-19_09h32.54.295,jersey_experiment_5_v0,2023.2.2,Win32,84.74576271,,,,,,,,,,,,,,,,932.3714,933.4184,933.4184,934.8419,return,0.1294,,73.4375,,,,,,FBP-OG-17.png,0.4,1.2,3,0.25,,,,,,,,,,,,,,,,,,0,13,13,2,1,,,,,,,,,,,,,,,,,,,,,,,
,,,,,SPR24_070,18,Female,2024-04-19_09h32.54.295,jersey_experiment_5_v0,2023.2.2,Win32,84.74576271,,,,,,,,,,,,,,,,934.842,935.8891,935.8891,937.8774,return,1.0756,,70.703125,,,,,,FBP-OG-18.png,0.4,1.2,8,0.25,,,,,,,,,,,,,,,,,,0,14,14,7,1,,,,,,,,,,,,,,,,,,,,,,,
,,,,,SPR24_070,18,Female,2024-04-19_09h32.54.295,jersey_experiment_5_v0,2023.2.2,Win32,84.74576271,,,,,,,,,,,,,,,,937.8776,939.1715,939.1715,941.5716,return,1.6555,,78.515625,,,,,,FBP-PT-81.png,0.43,1.2,54,0.5,,,,,,,,,,,,,,,,,,0,15,15,53,1,,,,,,,,,,,,,,,,,,,,,,,
,,,,,SPR24_070,18,Female,2024-04-19_09h32.54.295,jersey_experiment_5_v0,2023.2.2,Win32,84.74576271,,,,,,,,,,,,,,,,941.5717,942.6188,942.6189,943.9599,return,0.1807,,94.140625,,,,,,FBP-RB-81.png,0.43,1.2,39,0.25,,,,,,,,,,,,,,,,,,0,16,16,38,1,,,,,,,,,,,,,,,,,,,,,,,
,,,,,SPR24_070,18,Female,2024-04-19_09h32.54.295,jersey_experiment_5_v0,2023.2.2,Win32,84.74576271,,,,,,,,,,,,,,,,943.9601,945.2544,945.2544,947.3484,return,0.1462,,44.27083333,,,,,,FBP-PT-71.png,0.35,1.2,46,0.5,,,,,,,,,,,,,,,,,,0,17,17,45,1,,,,,,,,,,,,,,,,,,,,,,,
,,,,,SPR24_070,18,Female,2024-04-19_09h32.54.295,jersey_experiment_5_v0,2023.2.2,Win32,84.74576271,,,,,,,,,,,,,,,,947.3485,948.6426,948.6426,949.9248,return,0.1483,,36.06770833,,,,,,FBP-PT-81.png,0.35,1.2,51,0.5,,,,,,,,,,,,,,,,,,0,18,18,50,1,,,,,,,,,,,,,,,,,,,,,,,
,,,,,SPR24_070,18,Female,2024-04-19_09h32.54.295,jersey_experiment_5_v0,2023.2.2,Win32,84.74576271,,,,,,,,,,,,,,,,949.925,950.9721,950.9721,955.1486,return,0.1174,,34.89583333,,,,,,FBP-RB-81.png,0.35,1.2,36,0.25,,,,,,,,,,,,,,,,,,0,19,19,35,1,,,,,,,,,,,,,,,,,,,,,,,
,,,,,SPR24_070,18,Female,2024-04-19_09h32.54.295,jersey_experiment_5_v0,2023.2.2,Win32,84.74576271,,,,,,,,,,,,,,,,955.1488,956.4428,956.4428,958.2312,return,0.1319,,54.6875,,,,,,FBP-YG-81.png,0.37,1.2,22,0.5,,,,,,,,,,,,,,,,,,0,20,20,21,1,,,,,,,,,,,,,,,,,,,,,,,
,,,,,SPR24_070,18,Female,2024-04-19_09h32.54.295,jersey_experiment_5_v0,2023.2.2,Win32,84.74576271,,,,,,,,,,,,,,,,958.2313,959.2782,959.2782,960.5961,return,0.0527,,35.9375,,,,,,FBP-RB-71.png,0.35,1.2,31,0.25,,,,,,,,,,,,,,,,,,0,21,21,30,1,,,,,,,,,,,,,,,,,,,,,,,
,,,,,SPR24_070,18,Female,2024-04-19_09h32.54.295,jersey_experiment_5_v0,2023.2.2,Win32,84.74576271,,,,,,,,,,,,,,,,960.5963,961.8902,961.8902,963.0665,return,0.2967,,78.90625,,,,,,FBP-YG-91.png,0.4,1.2,28,0.5,,,,,,,,,,,,,,,,,,0,22,22,27,1,,,,,,,,,,,,,,,,,,,,,,,
,,,,,SPR24_070,18,Female,2024-04-19_09h32.54.295,jersey_experiment_5_v0,2023.2.2,Win32,84.74576271,,,,,,,,,,,,,,,,963.0667,964.3607,964.3608,965.349,return,0.0895,,81.11979167,,,,,,FBP-YG-81.png,0.4,1.2,23,0.5,,,,,,,,,,,,,,,,,,0,23,23,22,1,,,,,,,,,,,,,,,,,,,,,,,
,,,,,SPR24_070,18,Female,2024-04-19_09h32.54.295,jersey_experiment_5_v0,2023.2.2,Win32,84.74576271,,,,,,,,,,,,,,,,965.3492,966.3961,966.3961,969.1137,return,0.0852,,69.01041667,,,,,,FBP-RB-91.png,0.35,1.2,41,0.25,,,,,,,,,,,,,,,,,,0,24,24,40,1,,,,,,,,,,,,,,,,,,,,,,,
,,,,,SPR24_070,18,Female,2024-04-19_09h32.54.295,jersey_experiment_5_v0,2023.2.2,Win32,84.74576271,,,,,,,,,,,,,,,,969.114,970.408,970.408,971.1728,return,0.1487,,69.01041667,,,,,,FBP-YG-91.png,0.35,1.2,26,0.5,,,,,,,,,,,,,,,,,,0,25,25,25,1,,,,,,,,,,,,,,,,,,,,,,,
,,,,,SPR24_070,18,Female,2024-04-19_09h32.54.295,jersey_experiment_5_v0,2023.2.2,Win32,84.74576271,,,,,,,,,,,,,,,,971.1729,972.4669,972.4669,973.3845,return,0.1447,,95.3125,,,,,,FBP-PT-91.png,0.43,1.2,59,0.5,,,,,,,,,,,,,,,,,,0,26,26,58,1,,,,,,,,,,,,,,,,,,,,,,,
,,,,,SPR24_070,18,Female,2024-04-19_09h32.54.295,jersey_experiment_5_v0,2023.2.2,Win32,84.74576271,,,,,,,,,,,,,,,,973.3847,974.6786,974.6786,976.1376,return,0.1437,,91.92708333,,,,,,FBP-YG-81.png,0.45,1.2,25,0.5,,,,,,,,,,,,,,,,,,0,27,27,24,1,,,,,,,,,,,,,,,,,,,,,,,
,,,,,SPR24_070,18,Female,2024-04-19_09h32.54.295,jersey_experiment_5_v0,2023.2.2,Win32,84.74576271,,,,,,,,,,,,,,,,976.1378,977.1848,977.1849,978.526,return,0.1416,,98.17708333,,,,,,FBP-RB-71.png,0.45,1.2,35,0.25,,,,,,,,,,,,,,,,,,0,28,28,34,1,,,,,,,,,,,,,,,,,,,,,,,
,,,,,SPR24_070,18,Female,2024-04-19_09h32.54.295,jersey_experiment_5_v0,2023.2.2,Win32,84.74576271,,,,,,,,,,,,,,,,978.5262,979.573,979.573,981.0318,return,0.131,,53.90625,,,,,,FBP-RB-91.png,0.37,1.2,42,0.25,,,,,,,,,,,,,,,,,,0,29,29,41,1,,,,,,,,,,,,,,,,,,,,,,,
,,,,,SPR24_070,18,Female,2024-04-19_09h32.54.295,jersey_experiment_5_v0,2023.2.2,Win32,84.74576271,,,,,,,,,,,,,,,,981.032,982.3259,982.326,984.4084,return,0.0625,,75.26041667,,,,,,FBP-YG-91.png,0.37,1.2,27,0.5,,,,,,,,,,,,,,,,,,0,30,30,26,1,,,,,,,,,,,,,,,,,,,,,,,
,,,,,SPR24_070,18,Female,2024-04-19_09h32.54.295,jersey_experiment_5_v0,2023.2.2,Win32,84.74576271,,,,,,,,,,,,,,,,984.4087,985.7026,985.7027,987.5968,return,0.1881,,86.19791667,,,,,,FBP-PT-91.png,0.45,1.2,60,0.5,,,,,,,,,,,,,,,,,,0,31,31,59,1,,,,,,,,,,,,,,,,,,,,,,,
,,,,,SPR24_070,18,Female,2024-04-19_09h32.54.295,jersey_experiment_5_v0,2023.2.2,Win32,84.74576271,,,,,,,,,,,,,,,,987.5969,988.6438,988.6439,991.244,return,0.753,,50.13020833,,,,,,FBP-OG-19.png,0.37,1.2,12,0.25,,,,,,,,,,,,,,,,,,0,32,32,11,1,,,,,,,,,,,,,,,,,,,,,,,
,,,,,SPR24_070,18,Female,2024-04-19_09h32.54.295,jersey_experiment_5_v0,2023.2.2,Win32,84.74576271,,,,,,,,,,,,,,,,991.2442,992.5381,992.5381,993.7146,return,0.0891,,84.50520833,,,,,,FBP-PT-81.png,0.45,1.2,55,0.5,,,,,,,,,,,,,,,,,,0,33,33,54,1,,,,,,,,,,,,,,,,,,,,,,,
,,,,,SPR24_070,18,Female,2024-04-19_09h32.54.295,jersey_experiment_5_v0,2023.2.2,Win32,84.74576271,,,,,,,,,,,,,,,,993.7147,995.0088,995.0088,995.7146,return,0.0655,,90.75520833,,,,,,FBP-YG-81.png,0.43,1.2,24,0.5,,,,,,,,,,,,,,,,,,0,34,34,23,1,,,,,,,,,,,,,,,,,,,,,,,
,,,,,SPR24_070,18,Female,2024-04-19_09h32.54.295,jersey_experiment_5_v0,2023.2.2,Win32,84.74576271,,,,,,,,,,,,,,,,995.7148,996.7619,996.762,999.2912,return,0.1654,,48.046875,,,,,,FBP-OG-17.png,0.35,1.2,1,0.25,,,,,,,,,,,,,,,,,,0,35,35,0,1,,,,,,,,,,,,,,,,,,,,,,,
,,,,,SPR24_070,18,Female,2024-04-19_09h32.54.295,jersey_experiment_5_v0,2023.2.2,Win32,84.74576271,,,,,,,,,,,,,,,,999.2913,1000.3385,1000.3385,1001.5973,return,0.1175,,45.18229167,,,,,,FBP-OG-18.png,0.35,1.2,6,0.25,,,,,,,,,,,,,,,,,,0,36,36,5,1,,,,,,,,,,,,,,,,,,,,,,,
,,,,,SPR24_070,18,Female,2024-04-19_09h32.54.295,jersey_experiment_5_v0,2023.2.2,Win32,84.74576271,,,,,,,,,,,,,,,,1001.5976,1002.8914,1002.8916,1004.2798,return,0.1551,,45.703125,,,,,,FBP-YG-71.png,0.37,1.2,17,0.5,,,,,,,,,,,,,,,,,,0,37,37,16,1,,,,,,,,,,,,,,,,,,,,,,,
,,,,,SPR24_070,18,Female,2024-04-19_09h32.54.295,jersey_experiment_5_v0,2023.2.2,Win32,84.74576271,,,,,,,,,,,,,,,,1004.28,1005.3269,1005.327,1006.8094,return,0.1178,,69.27083333,,,,,,FBP-OG-19.png,0.4,1.2,13,0.25,,,,,,,,,,,,,,,,,,0,38,38,12,1,,,,,,,,,,,,,,,,,,,,,,,
,,,,,SPR24_070,18,Female,2024-04-19_09h32.54.295,jersey_experiment_5_v0,2023.2.2,Win32,84.74576271,,,,,,,,,,,,,,,,1006.8095,1007.8563,1007.8564,1009.5742,return,0.9001,,80.72916667,,,,,,FBP-OG-19.png,0.43,1.2,14,0.25,,,,,,,,,,,,,,,,,,0,39,39,13,1,,,,,,,,,,,,,,,,,,,,,,,
,,,,,SPR24_070,18,Female,2024-04-19_09h32.54.295,jersey_experiment_5_v0,2023.2.2,Win32,84.74576271,,,,,,,,,,,,,,,,1009.5743,1010.6213,1010.6213,1011.7036,return,0.0258,,85.67708333,,,,,,FBP-RB-81.png,0.45,1.2,40,0.25,,,,,,,,,,,,,,,,,,0,40,40,39,1,,,,,,,,,,,,,,,,,,,,,,,
,,,,,SPR24_070,18,Female,2024-04-19_09h32.54.295,jersey_experiment_5_v0,2023.2.2,Win32,84.74576271,,,,,,,,,,,,,,,,1011.7038,1012.7506,1012.7506,1014.1507,return,0.0871,,63.93229167,,,,,,FBP-OG-18.png,0.37,1.2,7,0.25,,,,,,,,,,,,,,,,,,0,41,41,6,1,,,,,,,,,,,,,,,,,,,,,,,
,,,,,SPR24_070,18,Female,2024-04-19_09h32.54.295,jersey_experiment_5_v0,2023.2.2,Win32,84.74576271,,,,,,,,,,,,,,,,1014.1509,1015.1977,1015.1977,1016.8684,return,0.1253,,45.703125,,,,,,FBP-OG-19.png,0.35,1.2,11,0.25,,,,,,,,,,,,,,,,,,0,42,42,10,1,,,,,,,,,,,,,,,,,,,,,,,
,,,,,SPR24_070,18,Female,2024-04-19_09h32.54.295,jersey_experiment_5_v0,2023.2.2,Win32,84.74576271,,,,,,,,,,,,,,,,1016.8686,1018.1627,1018.1627,1019.398,return,0.2768,,82.421875,,,,,,FBP-YG-71.png,0.43,1.2,19,0.5,,,,,,,,,,,,,,,,,,0,43,43,18,1,,,,,,,,,,,,,,,,,,,,,,,
,,,,,SPR24_070,18,Female,2024-04-19_09h32.54.295,jersey_experiment_5_v0,2023.2.2,Win32,84.74576271,,,,,,,,,,,,,,,,1019.3982,1020.4451,1020.4451,1021.8333,return,0.0024,,64.58333333,,,,,,FBP-RB-81.png,0.37,1.2,37,0.25,,,,,,,,,,,,,,,,,,0,44,44,36,1,,,,,,,,,,,,,,,,,,,,,,,
,,,,,SPR24_070,18,Female,2024-04-19_09h32.54.295,jersey_experiment_5_v0,2023.2.2,Win32,84.74576271,,,,,,,,,,,,,,,,1021.8334,1023.1275,1023.1275,1025.1275,return,1.2985,,88.80208333,,,,,,FBP-YG-71.png,0.45,1.2,20,0.5,,,,,,,,,,,,,,,,,,0,45,45,19,1,,,,,,,,,,,,,,,,,,,,,,,
,,,,,SPR24_070,18,Female,2024-04-19_09h32.54.295,jersey_experiment_5_v0,2023.2.2,Win32,84.74576271,,,,,,,,,,,,,,,,1025.1277,1026.1746,1026.1747,1027.3395,return,0.0944,,92.578125,,,,,,FBP-OG-18.png,0.45,1.2,10,0.25,,,,,,,,,,,,,,,,,,0,46,46,9,1,,,,,,,,,,,,,,,,,,,,,,,
,,,,,SPR24_070,18,Female,2024-04-19_09h32.54.295,jersey_experiment_5_v0,2023.2.2,Win32,84.74576271,,,,,,,,,,,,,,,,1027.3396,1028.6335,1028.6336,1030.3395,return,0.0762,,75.52083333,,,,,,FBP-PT-71.png,0.37,1.2,47,0.5,,,,,,,,,,,,,,,,,,0,47,47,46,1,,,,,,,,,,,,,,,,,,,,,,,
,,,,,SPR24_070,18,Female,2024-04-19_09h32.54.295,jersey_experiment_5_v0,2023.2.2,Win32,84.74576271,,,,,,,,,,,,,,,,1030.3398,1031.6337,1031.6338,1032.3162,return,0.1645,,75.52083333,,,,,,FBP-PT-71.png,0.4,1.2,48,0.5,,,,,,,,,,,,,,,,,,0,48,48,47,1,,,,,,,,,,,,,,,,,,,,,,,
,,,,,SPR24_070,18,Female,2024-04-19_09h32.54.295,jersey_experiment_5_v0,2023.2.2,Win32,84.74576271,,,,,,,,,,,,,,,,1032.3163,1033.6103,1033.6103,1034.5044,return,0.1568,,77.34375,,,,,,FBP-PT-91.png,0.4,1.2,58,0.5,,,,,,,,,,,,,,,,,,0,49,49,57,1,,,,,,,,,,,,,,,,,,,,,,,
,,,,,SPR24_070,18,Female,2024-04-19_09h32.54.295,jersey_experiment_5_v0,2023.2.2,Win32,84.74576271,,,,,,,,,,,,,,,,1034.5047,1035.7986,1035.7986,1039.6104,return,0.2829,,77.08333333,,,,,,FBP-PT-81.png,0.37,1.2,52,0.5,,,,,,,,,,,,,,,,,,0,50,50,51,1,,,,,,,,,,,,,,,,,,,,,,,
,,,,,SPR24_070,18,Female,2024-04-19_09h32.54.295,jersey_experiment_5_v0,2023.2.2,Win32,84.74576271,,,,,,,,,,,,,,,,1039.6105,1040.6575,1040.6575,1041.8811,return,0.0828,,90.88541667,,,,,,FBP-RB-91.png,0.4,1.2,43,0.25,,,,,,,,,,,,,,,,,,0,51,51,42,1,,,,,,,,,,,,,,,,,,,,,,,
,,,,,SPR24_070,18,Female,2024-04-19_09h32.54.295,jersey_experiment_5_v0,2023.2.2,Win32,84.74576271,,,,,,,,,,,,,,,,1041.8813,1042.9282,1042.9283,1044.8577,return,0.0849,,63.80208333,,,,,,FBP-OG-17.png,0.43,1.2,4,0.25,,,,,,,,,,,,,,,,,,0,52,52,3,1,,,,,,,,,,,,,,,,,,,,,,,
,,,,,SPR24_070,18,Female,2024-04-19_09h32.54.295,jersey_experiment_5_v0,2023.2.2,Win32,84.74576271,,,,,,,,,,,,,,,,1044.858,1046.1519,1046.152,1047.5283,return,0.0507,,80.20833333,,,,,,FBP-PT-91.png,0.37,1.2,57,0.5,,,,,,,,,,,,,,,,,,0,53,53,56,1,,,,,,,,,,,,,,,,,,,,,,,
,,,,,SPR24_070,18,Female,2024-04-19_09h32.54.295,jersey_experiment_5_v0,2023.2.2,Win32,84.74576271,,,,,,,,,,,,,,,,1047.5286,1048.5755,1048.5755,1050.2107,return,0.2066,,96.09375,,,,,,FBP-RB-91.png,0.45,1.2,45,0.25,,,,,,,,,,,,,,,,,,0,54,54,44,1,,,,,,,,,,,,,,,,,,,,,,,
,,,,,SPR24_070,18,Female,2024-04-19_09h32.54.295,jersey_experiment_5_v0,2023.2.2,Win32,84.74576271,,,,,,,,,,,,,,,,1050.2109,1051.258,1051.2581,1052.552,return,0.3779,,96.09375,,,,,,FBP-RB-81.png,0.4,1.2,38,0.25,,,,,,,,,,,,,,,,,,0,55,55,37,1,,,,,,,,,,,,,,,,,,,,,,,
,,,,,SPR24_070,18,Female,2024-04-19_09h32.54.295,jersey_experiment_5_v0,2023.2.2,Win32,84.74576271,,,,,,,,,,,,,,,,1052.5522,1053.8463,1053.8464,1056.0228,return,0.0519,,54.296875,,,,,,FBP-YG-71.png,0.35,1.2,16,0.5,,,,,,,,,,,,,,,,,,0,56,56,15,1,,,,,,,,,,,,,,,,,,,,,,,
,,,,,SPR24_070,18,Female,2024-04-19_09h32.54.295,jersey_experiment_5_v0,2023.2.2,Win32,84.74576271,,,,,,,,,,,,,,,,1056.0231,1057.0698,1057.0699,1058.5052,return,0.1557,,86.84895833,,,,,,FBP-RB-91.png,0.43,1.2,44,0.25,,,,,,,,,,,,,,,,,,0,57,57,43,1,,,,,,,,,,,,,,,,,,,,,,,
,,,,,SPR24_070,18,Female,2024-04-19_09h32.54.295,jersey_experiment_5_v0,2023.2.2,Win32,84.74576271,,,,,,,,,,,,,,,,1058.5054,1059.7995,1059.7996,1061.1878,return,0.1377,,31.77083333,,,,,,FBP-YG-81.png,0.35,1.2,21,0.5,,,,,,,,,,,,,,,,,,0,58,58,20,1,,,,,,,,,,,,,,,,,,,,,,,
,,,,,SPR24_070,18,Female,2024-04-19_09h32.54.295,jersey_experiment_5_v0,2023.2.2,Win32,84.74576271,,,,,,,,,,,,,,,,1061.188,1062.4819,1062.482,1064.0701,return,0.2033,,93.09895833,,,,,,FBP-PT-71.png,0.43,1.2,49,0.5,,,,,,,,,,,,,,,,,,0,59,59,48,1,,,,,,,,,,,,,,,,,,,,,,,
,,,,,SPR24_070,18,Female,2024-04-19_09h32.54.295,jersey_experiment_5_v0,2023.2.2,Win32,84.74576271,,,,,,,,,,,,,,,,,,,,,,,,,,,,,,,,,,,,,,,,,,,,,,,,,,,,,,,,1064.0705,1071.3532,return,7.2711,,,,,,,,,,,,,,,,,,,
,,,,,SPR24_070,18,Female,2024-04-19_09h32.54.295,jersey_experiment_5_v0,2023.2.2,Win32,84.74576271,,,,,,,,,,,,,,,,,,,,,,,,,,,,,,,,,,,,,,,,,,,,,,,,,,,,,,,,,,,,,1071.3534,1080.0357,1,7.3314,return,1.3371,,,,,,,,,,,,
,,,,,SPR24_070,18,Female,2024-04-19_09h32.54.295,jersey_experiment_5_v0,2023.2.2,Win32,84.74576271,,,,,,,,,,,,,,,,,,,,,,,,,,,,,,,,,,,,,,,,,,,,,,,,,,,,,,,,,,,,,,,,,,,,1080.0358,1230.5754,"The same players kept coming up on the screen just slightly different sizes and it seemed there were more husky and very husky than slender. Aside from knowing this study is about perception and could possibly be about weight, I am not sure what the study is about.",right,134.1461,,,,,,
,,,,,SPR24_070,18,Female,2024-04-19_09h32.54.295,jersey_experiment_5_v0,2023.2.2,Win32,84.74576271,,,,,,,,,,,,,,,,,,,,,,,,,,,,,,,,,,,,,,,,,,,,,,,,,,,,,,,,,,,,,,,,,,,,,,,,,,1230.5754,1236.4883,return,5.9025,