requirements.started,requirements.stopped,key_resp_3.keys,key_resp_3.rt,key_resp_3.duration,Subject ID,Age,Gender,date,expName,psychopyVersion,OS,frameRate,instructions1.started,instructions1.stopped,key_resp.keys,key_resp.rt,key_resp.duration,example.started,example.stopped,enter_2.keys,enter_2.rt,enter_2.duration,instructions2.started,instructions2.stopped,enter_3.keys,enter_3.rt,enter_3.duration,image.started,image.stopped,slider_2.started,slider_2.stopped,next.keys,next.rt,next.duration,slider.response,trial_block_1.thisRepN,trial_block_1.thisTrialN,trial_block_1.thisN,trial_block_1.thisIndex,trial_block_1.ran,Path,Width,Height,Index,Duration,trial_block_2.thisRepN,trial_block_2.thisTrialN,trial_block_2.thisN,trial_block_2.thisIndex,trial_block_2.ran,rest_break.started,rest_break.stopped,end_break.started,end_break.stopped,key_resp_5.keys,key_resp_5.rt,key_resp_5.duration,trial_block_3.thisRepN,trial_block_3.thisTrialN,trial_block_3.thisN,trial_block_3.thisIndex,trial_block_3.ran,trial_block_4.thisRepN,trial_block_4.thisTrialN,trial_block_4.thisN,trial_block_4.thisIndex,trial_block_4.ran,questions_intro.started,questions_intro.stopped,enter_12.keys,enter_12.rt,enter_12.duration,question2.started,question2.stopped,question_doingbest.response,question_doingbest.rt,enter_15.keys,enter_15.rt,enter_15.duration,pattern.started,pattern.stopped,pattern_2.text,enter_17.keys,enter_17.rt,enter_17.duration,thankyou.started,thankyou.stopped,enter_14.keys,enter_14.rt,enter_14.duration
0.0002,9.7183,return,9.7091,,SPR24_039,20,F,2024-04-11_15h33.36.727,jersey_experiment_5_v0,2023.2.2,Win32,85.47008547,,,,,,,,,,,,,,,,,,,,,,,,,,,,,,,,,,,,,,,,,,,,,,,,,,,,,,,,,,,,,,,,,,,,,,,,,,,,,,
,,,,,SPR24_039,20,F,2024-04-11_15h33.36.727,jersey_experiment_5_v0,2023.2.2,Win32,85.47008547,9.7183,15.2359,return,5.507,,,,,,,,,,,,,,,,,,,,,,,,,,,,,,,,,,,,,,,,,,,,,,,,,,,,,,,,,,,,,,,,,,,,,,,,,,
,,,,,SPR24_039,20,F,2024-04-11_15h33.36.727,jersey_experiment_5_v0,2023.2.2,Win32,85.47008547,,,,,,15.236,20.5184,return,5.2475,,,,,,,,,,,,,,,,,,,,,,,,,,,,,,,,,,,,,,,,,,,,,,,,,,,,,,,,,,,,,,,,,,,,,
,,,,,SPR24_039,20,F,2024-04-11_15h33.36.727,jersey_experiment_5_v0,2023.2.2,Win32,85.47008547,,,,,,,,,,,20.5185,36.7543,return,16.2266,,,,,,,,,,,,,,,,,,,,,,,,,,,,,,,,,,,,,,,,,,,,,,,,,,,,,,,,,,,,,,,,
,,,,,SPR24_039,20,F,2024-04-11_15h33.36.727,jersey_experiment_5_v0,2023.2.2,Win32,85.47008547,,,,,,,,,,,,,,,,36.7614,38.06,38.06,51.8723,return,0.8415,,25.13020833,0,0,0,1,1,FBP-OG-71.png,0.37,1.2,2,0.5,,,,,,,,,,,,,,,,,,,,,,,,,,,,,,,,,,,,,,,,,,,,,
,,,,,SPR24_039,20,F,2024-04-11_15h33.36.727,jersey_experiment_5_v0,2023.2.2,Win32,85.47008547,,,,,,,,,,,,,,,,51.8726,53.1664,53.1664,59.7666,return,2.7392,,25.13020833,0,1,1,6,1,FBP-OG-81.png,0.37,1.2,7,0.5,,,,,,,,,,,,,,,,,,,,,,,,,,,,,,,,,,,,,,,,,,,,,
,,,,,SPR24_039,20,F,2024-04-11_15h33.36.727,jersey_experiment_5_v0,2023.2.2,Win32,85.47008547,,,,,,,,,,,,,,,,59.7668,61.0606,61.0607,65.8609,return,3.283,,24.34895833,0,2,2,42,1,FBP-RB-19.png,0.4,1.2,43,0.5,,,,,,,,,,,,,,,,,,,,,,,,,,,,,,,,,,,,,,,,,,,,,
,,,,,SPR24_039,20,F,2024-04-11_15h33.36.727,jersey_experiment_5_v0,2023.2.2,Win32,85.47008547,,,,,,,,,,,,,,,,65.8658,66.9081,66.9081,72.9436,return,3.6411,,35.9375,0,3,3,17,1,FBP-YG-17.png,0.4,1.2,18,0.25,,,,,,,,,,,,,,,,,,,,,,,,,,,,,,,,,,,,,,,,,,,,,
,,,,,SPR24_039,20,F,2024-04-11_15h33.36.727,jersey_experiment_5_v0,2023.2.2,Win32,85.47008547,,,,,,,,,,,,,,,,72.9477,73.9905,73.9906,78.3084,return,1.5077,,11.45833333,0,4,4,45,1,FBP-PT-17.png,0.35,1.2,46,0.25,,,,,,,,,,,,,,,,,,,,,,,,,,,,,,,,,,,,,,,,,,,,,
,,,,,SPR24_039,20,F,2024-04-11_15h33.36.727,jersey_experiment_5_v0,2023.2.2,Win32,85.47008547,,,,,,,,,,,,,,,,78.3086,79.6025,79.6025,82.191,return,1.0193,,21.22395833,0,5,5,5,1,FBP-OG-81.png,0.35,1.2,6,0.5,,,,,,,,,,,,,,,,,,,,,,,,,,,,,,,,,,,,,,,,,,,,,
,,,,,SPR24_039,20,F,2024-04-11_15h33.36.727,jersey_experiment_5_v0,2023.2.2,Win32,85.47008547,,,,,,,,,,,,,,,,82.1912,83.238,83.238,86.9794,return,1.0034,,40.234375,0,6,6,56,1,FBP-PT-19.png,0.37,1.2,57,0.25,,,,,,,,,,,,,,,,,,,,,,,,,,,,,,,,,,,,,,,,,,,,,
,,,,,SPR24_039,20,F,2024-04-11_15h33.36.727,jersey_experiment_5_v0,2023.2.2,Win32,85.47008547,,,,,,,,,,,,,,,,86.9796,88.2734,88.2735,92.1676,return,1.2238,,53.515625,0,7,7,33,1,FBP-RB-17.png,0.43,1.2,34,0.5,,,,,,,,,,,,,,,,,,,,,,,,,,,,,,,,,,,,,,,,,,,,,
,,,,,SPR24_039,20,F,2024-04-11_15h33.36.727,jersey_experiment_5_v0,2023.2.2,Win32,85.47008547,,,,,,,,,,,,,,,,92.1679,93.2149,93.2149,97.6855,return,1.1303,,53.25520833,0,8,8,46,1,FBP-PT-17.png,0.37,1.2,47,0.25,,,,,,,,,,,,,,,,,,,,,,,,,,,,,,,,,,,,,,,,,,,,,
,,,,,SPR24_039,20,F,2024-04-11_15h33.36.727,jersey_experiment_5_v0,2023.2.2,Win32,85.47008547,,,,,,,,,,,,,,,,97.6857,98.7327,98.7327,105.1212,return,5.0629,,66.14583333,0,9,9,24,1,FBP-YG-18.png,0.45,1.2,25,0.25,,,,,,,,,,,,,,,,,,,,,,,,,,,,,,,,,,,,,,,,,,,,,
,,,,,SPR24_039,20,F,2024-04-11_15h33.36.727,jersey_experiment_5_v0,2023.2.2,Win32,85.47008547,,,,,,,,,,,,,,,,105.1214,106.1681,106.1681,108.9449,return,1.2162,,86.19791667,0,10,10,49,1,FBP-PT-17.png,0.45,1.2,50,0.25,,,,,,,,,,,,,,,,,,,,,,,,,,,,,,,,,,,,,,,,,,,,,
,,,,,SPR24_039,20,F,2024-04-11_15h33.36.727,jersey_experiment_5_v0,2023.2.2,Win32,85.47008547,,,,,,,,,,,,,,,,108.9451,109.9917,109.9918,113.2038,return,1.4949,,8.854166667,0,11,11,55,1,FBP-PT-19.png,0.35,1.2,56,0.25,,,,,,,,,,,,,,,,,,,,,,,,,,,,,,,,,,,,,,,,,,,,,
,,,,,SPR24_039,20,F,2024-04-11_15h33.36.727,jersey_experiment_5_v0,2023.2.2,Win32,85.47008547,,,,,,,,,,,,,,,,113.2041,114.2509,114.251,118.451,return,1.3449,,57.8125,0,12,12,28,1,FBP-YG-19.png,0.43,1.2,29,0.25,,,,,,,,,,,,,,,,,,,,,,,,,,,,,,,,,,,,,,,,,,,,,
,,,,,SPR24_039,20,F,2024-04-11_15h33.36.727,jersey_experiment_5_v0,2023.2.2,Win32,85.47008547,,,,,,,,,,,,,,,,118.4512,119.7451,119.7451,125.7923,return,4.3931,,75.52083333,0,13,13,3,1,FBP-OG-71.png,0.43,1.2,4,0.5,,,,,,,,,,,,,,,,,,,,,,,,,,,,,,,,,,,,,,,,,,,,,
,,,,,SPR24_039,20,F,2024-04-11_15h33.36.727,jersey_experiment_5_v0,2023.2.2,Win32,85.47008547,,,,,,,,,,,,,,,,125.7925,126.8395,126.8395,131.2868,return,2.5652,,52.86458333,0,14,14,27,1,FBP-YG-19.png,0.4,1.2,28,0.25,,,,,,,,,,,,,,,,,,,,,,,,,,,,,,,,,,,,,,,,,,,,,
,,,,,SPR24_039,20,F,2024-04-11_15h33.36.727,jersey_experiment_5_v0,2023.2.2,Win32,85.47008547,,,,,,,,,,,,,,,,131.287,132.5809,132.581,136.4516,return,2.6144,,27.21354167,0,15,15,35,1,FBP-RB-18.png,0.35,1.2,36,0.5,,,,,,,,,,,,,,,,,,,,,,,,,,,,,,,,,,,,,,,,,,,,,
,,,,,SPR24_039,20,F,2024-04-11_15h33.36.727,jersey_experiment_5_v0,2023.2.2,Win32,85.47008547,,,,,,,,,,,,,,,,136.4519,137.4986,137.4987,140.3342,return,1.3731,,25,0,16,16,16,1,FBP-YG-17.png,0.37,1.2,17,0.25,,,,,,,,,,,,,,,,,,,,,,,,,,,,,,,,,,,,,,,,,,,,,
,,,,,SPR24_039,20,F,2024-04-11_15h33.36.727,jersey_experiment_5_v0,2023.2.2,Win32,85.47008547,,,,,,,,,,,,,,,,140.3344,141.6282,141.6282,145.1226,return,1.2027,,53.38541667,0,17,17,12,1,FBP-OG-91.png,0.4,1.2,13,0.5,,,,,,,,,,,,,,,,,,,,,,,,,,,,,,,,,,,,,,,,,,,,,
,,,,,SPR24_039,20,F,2024-04-11_15h33.36.727,jersey_experiment_5_v0,2023.2.2,Win32,85.47008547,,,,,,,,,,,,,,,,145.1228,146.4166,146.4167,148.758,return,1.3514,,30.078125,0,18,18,40,1,FBP-RB-19.png,0.35,1.2,41,0.5,,,,,,,,,,,,,,,,,,,,,,,,,,,,,,,,,,,,,,,,,,,,,
,,,,,SPR24_039,20,F,2024-04-11_15h33.36.727,jersey_experiment_5_v0,2023.2.2,Win32,85.47008547,,,,,,,,,,,,,,,,148.758,150.0521,150.0521,152.158,return,0.9145,,75.26041667,0,19,19,8,1,FBP-OG-81.png,0.43,1.2,9,0.5,,,,,,,,,,,,,,,,,,,,,,,,,,,,,,,,,,,,,,,,,,,,,
,,,,,SPR24_039,20,F,2024-04-11_15h33.36.727,jersey_experiment_5_v0,2023.2.2,Win32,85.47008547,,,,,,,,,,,,,,,,152.1582,153.4522,153.4523,156.017,return,0.8404,,46.35416667,0,20,20,0,1,FBP-OG-71.png,0.35,1.2,1,0.5,,,,,,,,,,,,,,,,,,,,,,,,,,,,,,,,,,,,,,,,,,,,,
,,,,,SPR24_039,20,F,2024-04-11_15h33.36.727,jersey_experiment_5_v0,2023.2.2,Win32,85.47008547,,,,,,,,,,,,,,,,156.0172,157.3114,157.3114,161.4878,return,2.1715,,58.85416667,0,21,21,37,1,FBP-RB-18.png,0.4,1.2,38,0.5,,,,,,,,,,,,,,,,,,,,,,,,,,,,,,,,,,,,,,,,,,,,,
,,,,,SPR24_039,20,F,2024-04-11_15h33.36.727,jersey_experiment_5_v0,2023.2.2,Win32,85.47008547,,,,,,,,,,,,,,,,161.488,162.535,162.535,164.3703,return,0.7687,,73.828125,0,22,22,18,1,FBP-YG-17.png,0.43,1.2,19,0.25,,,,,,,,,,,,,,,,,,,,,,,,,,,,,,,,,,,,,,,,,,,,,
,,,,,SPR24_039,20,F,2024-04-11_15h33.36.727,jersey_experiment_5_v0,2023.2.2,Win32,85.47008547,,,,,,,,,,,,,,,,164.3704,165.4172,165.4173,166.9938,return,0.6498,,75,0,23,23,53,1,FBP-PT-18.png,0.43,1.2,54,0.25,,,,,,,,,,,,,,,,,,,,,,,,,,,,,,,,,,,,,,,,,,,,,
,,,,,SPR24_039,20,F,2024-04-11_15h33.36.727,jersey_experiment_5_v0,2023.2.2,Win32,85.47008547,,,,,,,,,,,,,,,,166.994,168.041,168.041,170.4175,return,0.592,,82.94270833,0,24,24,58,1,FBP-PT-19.png,0.43,1.2,59,0.25,,,,,,,,,,,,,,,,,,,,,,,,,,,,,,,,,,,,,,,,,,,,,
,,,,,SPR24_039,20,F,2024-04-11_15h33.36.727,jersey_experiment_5_v0,2023.2.2,Win32,85.47008547,,,,,,,,,,,,,,,,170.4176,171.4645,171.4645,173.3117,return,0.6776,,90.625,0,25,25,59,1,FBP-PT-19.png,0.45,1.2,60,0.25,,,,,,,,,,,,,,,,,,,,,,,,,,,,,,,,,,,,,,,,,,,,,
,,,,,SPR24_039,20,F,2024-04-11_15h33.36.727,jersey_experiment_5_v0,2023.2.2,Win32,85.47008547,,,,,,,,,,,,,,,,173.3119,174.6059,174.606,177.1707,return,1.0268,,51.5625,0,26,26,11,1,FBP-OG-91.png,0.37,1.2,12,0.5,,,,,,,,,,,,,,,,,,,,,,,,,,,,,,,,,,,,,,,,,,,,,
,,,,,SPR24_039,20,F,2024-04-11_15h33.36.727,jersey_experiment_5_v0,2023.2.2,Win32,85.47008547,,,,,,,,,,,,,,,,177.1708,178.4648,178.4648,181.2649,return,0.874,,34.50520833,0,27,27,10,1,FBP-OG-91.png,0.35,1.2,11,0.5,,,,,,,,,,,,,,,,,,,,,,,,,,,,,,,,,,,,,,,,,,,,,
,,,,,SPR24_039,20,F,2024-04-11_15h33.36.727,jersey_experiment_5_v0,2023.2.2,Win32,85.47008547,,,,,,,,,,,,,,,,181.2651,182.5591,182.5591,185.2063,return,0.7871,,97.65625,0,28,28,4,1,FBP-OG-71.png,0.45,1.2,5,0.5,,,,,,,,,,,,,,,,,,,,,,,,,,,,,,,,,,,,,,,,,,,,,
,,,,,SPR24_039,20,F,2024-04-11_15h33.36.727,jersey_experiment_5_v0,2023.2.2,Win32,85.47008547,,,,,,,,,,,,,,,,185.2064,186.2533,186.2533,189.7122,return,0.8284,,24.21875,0,29,29,50,1,FBP-PT-18.png,0.35,1.2,51,0.25,,,,,,,,,,,,,,,,,,,,,,,,,,,,,,,,,,,,,,,,,,,,,
,,,,,SPR24_039,20,F,2024-04-11_15h33.36.727,jersey_experiment_5_v0,2023.2.2,Win32,85.47008547,,,,,,,,,,,,,,,,189.7124,191.0064,191.0064,193.2067,return,0.6825,,30.59895833,0,30,30,36,1,FBP-RB-18.png,0.37,1.2,37,0.5,,,,,,,,,,,,,,,,,,,,,,,,,,,,,,,,,,,,,,,,,,,,,
,,,,,SPR24_039,20,F,2024-04-11_15h33.36.727,jersey_experiment_5_v0,2023.2.2,Win32,85.47008547,,,,,,,,,,,,,,,,193.2068,194.5006,194.5006,196.3714,return,0.7443,,75.26041667,0,31,31,43,1,FBP-RB-19.png,0.43,1.2,44,0.5,,,,,,,,,,,,,,,,,,,,,,,,,,,,,,,,,,,,,,,,,,,,,
,,,,,SPR24_039,20,F,2024-04-11_15h33.36.727,jersey_experiment_5_v0,2023.2.2,Win32,85.47008547,,,,,,,,,,,,,,,,196.3715,197.6655,197.6656,199.3832,return,0.6344,,49.73958333,0,32,32,31,1,FBP-RB-17.png,0.37,1.2,32,0.5,,,,,,,,,,,,,,,,,,,,,,,,,,,,,,,,,,,,,,,,,,,,,
,,,,,SPR24_039,20,F,2024-04-11_15h33.36.727,jersey_experiment_5_v0,2023.2.2,Win32,85.47008547,,,,,,,,,,,,,,,,199.3833,200.4302,200.4303,204.5952,return,1.9323,,87.5,0,33,33,29,1,FBP-YG-19.png,0.45,1.2,30,0.25,,,,,,,,,,,,,,,,,,,,,,,,,,,,,,,,,,,,,,,,,,,,,
,,,,,SPR24_039,20,F,2024-04-11_15h33.36.727,jersey_experiment_5_v0,2023.2.2,Win32,85.47008547,,,,,,,,,,,,,,,,204.5954,205.6422,205.6422,208.1485,return,0.6375,,49.47916667,0,34,34,47,1,FBP-PT-17.png,0.4,1.2,48,0.25,,,,,,,,,,,,,,,,,,,,,,,,,,,,,,,,,,,,,,,,,,,,,
,,,,,SPR24_039,20,F,2024-04-11_15h33.36.727,jersey_experiment_5_v0,2023.2.2,Win32,85.47008547,,,,,,,,,,,,,,,,208.1486,209.1953,209.1953,211.1836,return,0.6186,,30.859375,0,35,35,51,1,FBP-PT-18.png,0.37,1.2,52,0.25,,,,,,,,,,,,,,,,,,,,,,,,,,,,,,,,,,,,,,,,,,,,,
,,,,,SPR24_039,20,F,2024-04-11_15h33.36.727,jersey_experiment_5_v0,2023.2.2,Win32,85.47008547,,,,,,,,,,,,,,,,211.1839,212.4778,212.4779,215.3839,return,1.4341,,92.578125,0,36,36,9,1,FBP-OG-81.png,0.45,1.2,10,0.5,,,,,,,,,,,,,,,,,,,,,,,,,,,,,,,,,,,,,,,,,,,,,
,,,,,SPR24_039,20,F,2024-04-11_15h33.36.727,jersey_experiment_5_v0,2023.2.2,Win32,85.47008547,,,,,,,,,,,,,,,,215.3841,216.4308,216.4308,217.8897,return,0.6264,,92.83854167,0,37,37,48,1,FBP-PT-17.png,0.43,1.2,49,0.25,,,,,,,,,,,,,,,,,,,,,,,,,,,,,,,,,,,,,,,,,,,,,
,,,,,SPR24_039,20,F,2024-04-11_15h33.36.727,jersey_experiment_5_v0,2023.2.2,Win32,85.47008547,,,,,,,,,,,,,,,,217.89,219.1839,219.1839,221.031,return,0.7895,,92.70833333,0,38,38,34,1,FBP-RB-17.png,0.45,1.2,35,0.5,,,,,,,,,,,,,,,,,,,,,,,,,,,,,,,,,,,,,,,,,,,,,
,,,,,SPR24_039,20,F,2024-04-11_15h33.36.727,jersey_experiment_5_v0,2023.2.2,Win32,85.47008547,,,,,,,,,,,,,,,,221.0311,222.3253,222.3253,224.1605,return,0.5458,,84.375,0,39,39,7,1,FBP-OG-81.png,0.4,1.2,8,0.5,,,,,,,,,,,,,,,,,,,,,,,,,,,,,,,,,,,,,,,,,,,,,
,,,,,SPR24_039,20,F,2024-04-11_15h33.36.727,jersey_experiment_5_v0,2023.2.2,Win32,85.47008547,,,,,,,,,,,,,,,,224.1607,225.2076,225.2076,227.2547,return,0.6357,,84.375,0,40,40,57,1,FBP-PT-19.png,0.4,1.2,58,0.25,,,,,,,,,,,,,,,,,,,,,,,,,,,,,,,,,,,,,,,,,,,,,
,,,,,SPR24_039,20,F,2024-04-11_15h33.36.727,jersey_experiment_5_v0,2023.2.2,Win32,85.47008547,,,,,,,,,,,,,,,,227.2549,228.5489,228.5489,230.9253,return,0.7478,,85.15625,0,41,41,13,1,FBP-OG-91.png,0.43,1.2,14,0.5,,,,,,,,,,,,,,,,,,,,,,,,,,,,,,,,,,,,,,,,,,,,,
,,,,,SPR24_039,20,F,2024-04-11_15h33.36.727,jersey_experiment_5_v0,2023.2.2,Win32,85.47008547,,,,,,,,,,,,,,,,230.9255,231.9727,231.9727,233.4549,return,0.7251,,85.15625,0,42,42,22,1,FBP-YG-18.png,0.4,1.2,23,0.25,,,,,,,,,,,,,,,,,,,,,,,,,,,,,,,,,,,,,,,,,,,,,
,,,,,SPR24_039,20,F,2024-04-11_15h33.36.727,jersey_experiment_5_v0,2023.2.2,Win32,85.47008547,,,,,,,,,,,,,,,,233.4552,234.7492,234.7493,236.2433,return,0.5768,,98.828125,0,43,43,14,1,FBP-OG-91.png,0.45,1.2,15,0.5,,,,,,,,,,,,,,,,,,,,,,,,,,,,,,,,,,,,,,,,,,,,,
,,,,,SPR24_039,20,F,2024-04-11_15h33.36.727,jersey_experiment_5_v0,2023.2.2,Win32,85.47008547,,,,,,,,,,,,,,,,236.2435,237.2905,237.2905,241.0082,return,2.6769,,28.64583333,0,44,44,20,1,FBP-YG-18.png,0.35,1.2,21,0.25,,,,,,,,,,,,,,,,,,,,,,,,,,,,,,,,,,,,,,,,,,,,,
,,,,,SPR24_039,20,F,2024-04-11_15h33.36.727,jersey_experiment_5_v0,2023.2.2,Win32,85.47008547,,,,,,,,,,,,,,,,241.0085,242.0552,242.0553,243.7964,return,0.6235,,22.52604167,0,45,45,15,1,FBP-YG-17.png,0.35,1.2,16,0.25,,,,,,,,,,,,,,,,,,,,,,,,,,,,,,,,,,,,,,,,,,,,,
,,,,,SPR24_039,20,F,2024-04-11_15h33.36.727,jersey_experiment_5_v0,2023.2.2,Win32,85.47008547,,,,,,,,,,,,,,,,243.7965,245.0906,245.0906,248.9614,return,2.6519,,76.953125,0,46,46,44,1,FBP-RB-19.png,0.45,1.2,45,0.5,,,,,,,,,,,,,,,,,,,,,,,,,,,,,,,,,,,,,,,,,,,,,
,,,,,SPR24_039,20,F,2024-04-11_15h33.36.727,jersey_experiment_5_v0,2023.2.2,Win32,85.47008547,,,,,,,,,,,,,,,,248.966,250.0085,250.0085,253.3497,return,1.6809,,52.34375,0,47,47,21,1,FBP-YG-18.png,0.37,1.2,22,0.25,,,,,,,,,,,,,,,,,,,,,,,,,,,,,,,,,,,,,,,,,,,,,
,,,,,SPR24_039,20,F,2024-04-11_15h33.36.727,jersey_experiment_5_v0,2023.2.2,Win32,85.47008547,,,,,,,,,,,,,,,,253.3499,254.6439,254.644,258.0323,return,0.6176,,50.13020833,0,48,48,32,1,FBP-RB-17.png,0.4,1.2,33,0.5,,,,,,,,,,,,,,,,,,,,,,,,,,,,,,,,,,,,,,,,,,,,,
,,,,,SPR24_039,20,F,2024-04-11_15h33.36.727,jersey_experiment_5_v0,2023.2.2,Win32,85.47008547,,,,,,,,,,,,,,,,258.0325,259.0794,259.0795,261.1501,return,0.5847,,40.49479167,0,49,49,26,1,FBP-YG-19.png,0.37,1.2,27,0.25,,,,,,,,,,,,,,,,,,,,,,,,,,,,,,,,,,,,,,,,,,,,,
,,,,,SPR24_039,20,F,2024-04-11_15h33.36.727,jersey_experiment_5_v0,2023.2.2,Win32,85.47008547,,,,,,,,,,,,,,,,261.1503,262.4443,262.4443,266.2798,return,0.7302,,54.55729167,0,50,50,2,1,FBP-OG-71.png,0.4,1.2,3,0.5,,,,,,,,,,,,,,,,,,,,,,,,,,,,,,,,,,,,,,,,,,,,,
,,,,,SPR24_039,20,F,2024-04-11_15h33.36.727,jersey_experiment_5_v0,2023.2.2,Win32,85.47008547,,,,,,,,,,,,,,,,266.28,267.3267,267.3268,268.8797,return,0.6419,,81.11979167,0,51,51,54,1,FBP-PT-18.png,0.45,1.2,55,0.25,,,,,,,,,,,,,,,,,,,,,,,,,,,,,,,,,,,,,,,,,,,,,
,,,,,SPR24_039,20,F,2024-04-11_15h33.36.727,jersey_experiment_5_v0,2023.2.2,Win32,85.47008547,,,,,,,,,,,,,,,,268.88,269.9267,269.9268,273.08,return,0.5415,,88.02083333,0,52,52,19,1,FBP-YG-17.png,0.45,1.2,20,0.25,,,,,,,,,,,,,,,,,,,,,,,,,,,,,,,,,,,,,,,,,,,,,
,,,,,SPR24_039,20,F,2024-04-11_15h33.36.727,jersey_experiment_5_v0,2023.2.2,Win32,85.47008547,,,,,,,,,,,,,,,,273.0802,274.3741,274.3741,277.6329,return,2.3218,,91.53645833,0,53,53,39,1,FBP-RB-18.png,0.45,1.2,40,0.5,,,,,,,,,,,,,,,,,,,,,,,,,,,,,,,,,,,,,,,,,,,,,
,,,,,SPR24_039,20,F,2024-04-11_15h33.36.727,jersey_experiment_5_v0,2023.2.2,Win32,85.47008547,,,,,,,,,,,,,,,,277.6332,278.9271,278.9272,280.2212,return,0.597,,88.671875,0,54,54,38,1,FBP-RB-18.png,0.43,1.2,39,0.5,,,,,,,,,,,,,,,,,,,,,,,,,,,,,,,,,,,,,,,,,,,,,
,,,,,SPR24_039,20,F,2024-04-11_15h33.36.727,jersey_experiment_5_v0,2023.2.2,Win32,85.47008547,,,,,,,,,,,,,,,,280.2213,281.5154,281.5155,284.9743,return,0.8177,,53.90625,0,55,55,30,1,FBP-RB-17.png,0.35,1.2,31,0.5,,,,,,,,,,,,,,,,,,,,,,,,,,,,,,,,,,,,,,,,,,,,,
,,,,,SPR24_039,20,F,2024-04-11_15h33.36.727,jersey_experiment_5_v0,2023.2.2,Win32,85.47008547,,,,,,,,,,,,,,,,284.9745,286.0216,286.0216,288.8805,return,0.5704,,45.05208333,0,56,56,25,1,FBP-YG-19.png,0.35,1.2,26,0.25,,,,,,,,,,,,,,,,,,,,,,,,,,,,,,,,,,,,,,,,,,,,,
,,,,,SPR24_039,20,F,2024-04-11_15h33.36.727,jersey_experiment_5_v0,2023.2.2,Win32,85.47008547,,,,,,,,,,,,,,,,288.8807,289.9276,289.9276,291.7158,return,0.6364,,74.609375,0,57,57,52,1,FBP-PT-18.png,0.4,1.2,53,0.25,,,,,,,,,,,,,,,,,,,,,,,,,,,,,,,,,,,,,,,,,,,,,
,,,,,SPR24_039,20,F,2024-04-11_15h33.36.727,jersey_experiment_5_v0,2023.2.2,Win32,85.47008547,,,,,,,,,,,,,,,,291.716,293.0101,293.0101,294.5277,return,0.7122,,75,0,58,58,41,1,FBP-RB-19.png,0.37,1.2,42,0.5,,,,,,,,,,,,,,,,,,,,,,,,,,,,,,,,,,,,,,,,,,,,,
,,,,,SPR24_039,20,F,2024-04-11_15h33.36.727,jersey_experiment_5_v0,2023.2.2,Win32,85.47008547,,,,,,,,,,,,,,,,294.5279,295.5748,295.5748,297.7162,return,0.6836,,74.73958333,0,59,59,23,1,FBP-YG-18.png,0.43,1.2,24,0.25,,,,,,,,,,,,,,,,,,,,,,,,,,,,,,,,,,,,,,,,,,,,,
,,,,,SPR24_039,20,F,2024-04-11_15h33.36.727,jersey_experiment_5_v0,2023.2.2,Win32,85.47008547,,,,,,,,,,,,,,,,297.7182,299.0103,299.0103,300.7751,return,0.6125,,84.89583333,,,,,,FBP-OG-19.png,0.43,1.2,14,0.5,0,0,0,13,1,,,,,,,,,,,,,,,,,,,,,,,,,,,,,,,,,,,,,,,,
,,,,,SPR24_039,20,F,2024-04-11_15h33.36.727,jersey_experiment_5_v0,2023.2.2,Win32,85.47008547,,,,,,,,,,,,,,,,300.7754,301.822,301.8221,303.8693,return,0.6316,,75.91145833,,,,,,FBP-YG-81.png,0.37,1.2,22,0.25,0,1,1,21,1,,,,,,,,,,,,,,,,,,,,,,,,,,,,,,,,,,,,,,,,
,,,,,SPR24_039,20,F,2024-04-11_15h33.36.727,jersey_experiment_5_v0,2023.2.2,Win32,85.47008547,,,,,,,,,,,,,,,,303.8695,304.9163,304.9163,307.0692,return,0.8558,,81.25,,,,,,FBP-PT-81.png,0.43,1.2,54,0.25,0,2,2,53,1,,,,,,,,,,,,,,,,,,,,,,,,,,,,,,,,,,,,,,,,
,,,,,SPR24_039,20,F,2024-04-11_15h33.36.727,jersey_experiment_5_v0,2023.2.2,Win32,85.47008547,,,,,,,,,,,,,,,,307.0695,308.1164,308.1164,309.6342,return,0.6158,,84.765625,,,,,,FBP-YG-71.png,0.45,1.2,20,0.25,0,3,3,19,1,,,,,,,,,,,,,,,,,,,,,,,,,,,,,,,,,,,,,,,,
,,,,,SPR24_039,20,F,2024-04-11_15h33.36.727,jersey_experiment_5_v0,2023.2.2,Win32,85.47008547,,,,,,,,,,,,,,,,309.6343,310.9282,310.9282,313.1754,return,0.6122,,86.71875,,,,,,FBP-RB-91.png,0.45,1.2,45,0.5,0,4,4,44,1,,,,,,,,,,,,,,,,,,,,,,,,,,,,,,,,,,,,,,,,
,,,,,SPR24_039,20,F,2024-04-11_15h33.36.727,jersey_experiment_5_v0,2023.2.2,Win32,85.47008547,,,,,,,,,,,,,,,,313.1756,314.2225,314.2225,315.9873,return,1.0012,,86.58854167,,,,,,FBP-PT-71.png,0.45,1.2,50,0.25,0,5,5,49,1,,,,,,,,,,,,,,,,,,,,,,,,,,,,,,,,,,,,,,,,
,,,,,SPR24_039,20,F,2024-04-11_15h33.36.727,jersey_experiment_5_v0,2023.2.2,Win32,85.47008547,,,,,,,,,,,,,,,,315.9875,317.0345,317.0345,318.8815,return,0.603,,62.5,,,,,,FBP-PT-91.png,0.4,1.2,58,0.25,0,6,6,57,1,,,,,,,,,,,,,,,,,,,,,,,,,,,,,,,,,,,,,,,,
,,,,,SPR24_039,20,F,2024-04-11_15h33.36.727,jersey_experiment_5_v0,2023.2.2,Win32,85.47008547,,,,,,,,,,,,,,,,318.8816,319.9286,319.9286,321.6463,return,0.6885,,73.046875,,,,,,FBP-PT-91.png,0.43,1.2,59,0.25,0,7,7,58,1,,,,,,,,,,,,,,,,,,,,,,,,,,,,,,,,,,,,,,,,
,,,,,SPR24_039,20,F,2024-04-11_15h33.36.727,jersey_experiment_5_v0,2023.2.2,Win32,85.47008547,,,,,,,,,,,,,,,,321.6465,322.9404,322.9404,325.7759,return,1.0518,,60.02604167,,,,,,FBP-OG-17.png,0.4,1.2,3,0.5,0,8,8,2,1,,,,,,,,,,,,,,,,,,,,,,,,,,,,,,,,,,,,,,,,
,,,,,SPR24_039,20,F,2024-04-11_15h33.36.727,jersey_experiment_5_v0,2023.2.2,Win32,85.47008547,,,,,,,,,,,,,,,,325.7761,327.07,327.07,330.129,return,0.6965,,55.20833333,,,,,,FBP-RB-71.png,0.35,1.2,31,0.5,0,9,9,30,1,,,,,,,,,,,,,,,,,,,,,,,,,,,,,,,,,,,,,,,,
,,,,,SPR24_039,20,F,2024-04-11_15h33.36.727,jersey_experiment_5_v0,2023.2.2,Win32,85.47008547,,,,,,,,,,,,,,,,330.1292,331.4231,331.4231,333.2702,return,0.6963,,60.02604167,,,,,,FBP-OG-19.png,0.4,1.2,13,0.5,0,10,10,12,1,,,,,,,,,,,,,,,,,,,,,,,,,,,,,,,,,,,,,,,,
,,,,,SPR24_039,20,F,2024-04-11_15h33.36.727,jersey_experiment_5_v0,2023.2.2,Win32,85.47008547,,,,,,,,,,,,,,,,333.2705,334.3173,334.3173,336.6234,return,0.6525,,60.02604167,,,,,,FBP-YG-81.png,0.4,1.2,23,0.25,0,11,11,22,1,,,,,,,,,,,,,,,,,,,,,,,,,,,,,,,,,,,,,,,,
,,,,,SPR24_039,20,F,2024-04-11_15h33.36.727,jersey_experiment_5_v0,2023.2.2,Win32,85.47008547,,,,,,,,,,,,,,,,336.6237,337.6705,337.6705,339.9999,return,0.6063,,54.55729167,,,,,,FBP-PT-91.png,0.37,1.2,57,0.25,0,12,12,56,1,,,,,,,,,,,,,,,,,,,,,,,,,,,,,,,,,,,,,,,,
,,,,,SPR24_039,20,F,2024-04-11_15h33.36.727,jersey_experiment_5_v0,2023.2.2,Win32,85.47008547,,,,,,,,,,,,,,,,340.0001,341.2941,341.2942,343.0705,return,0.643,,50.52083333,,,,,,FBP-OG-17.png,0.35,1.2,1,0.5,0,13,13,0,1,,,,,,,,,,,,,,,,,,,,,,,,,,,,,,,,,,,,,,,,
,,,,,SPR24_039,20,F,2024-04-11_15h33.36.727,jersey_experiment_5_v0,2023.2.2,Win32,85.47008547,,,,,,,,,,,,,,,,343.0708,344.3646,344.3647,346.0942,return,0.6185,,57.03125,,,,,,FBP-RB-91.png,0.4,1.2,43,0.5,0,14,14,42,1,,,,,,,,,,,,,,,,,,,,,,,,,,,,,,,,,,,,,,,,
,,,,,SPR24_039,20,F,2024-04-11_15h33.36.727,jersey_experiment_5_v0,2023.2.2,Win32,85.47008547,,,,,,,,,,,,,,,,346.0944,347.1413,347.1413,349.2003,return,0.9352,,57.03125,,,,,,FBP-YG-91.png,0.4,1.2,28,0.25,0,15,15,27,1,,,,,,,,,,,,,,,,,,,,,,,,,,,,,,,,,,,,,,,,
,,,,,SPR24_039,20,F,2024-04-11_15h33.36.727,jersey_experiment_5_v0,2023.2.2,Win32,85.47008547,,,,,,,,,,,,,,,,349.2005,350.2472,350.2473,351.8122,return,0.6959,,69.79166667,,,,,,FBP-YG-81.png,0.43,1.2,24,0.25,0,16,16,23,1,,,,,,,,,,,,,,,,,,,,,,,,,,,,,,,,,,,,,,,,
,,,,,SPR24_039,20,F,2024-04-11_15h33.36.727,jersey_experiment_5_v0,2023.2.2,Win32,85.47008547,,,,,,,,,,,,,,,,351.8124,352.8589,352.859,355.2709,return,0.6488,,50.13020833,,,,,,FBP-YG-81.png,0.35,1.2,21,0.25,0,17,17,20,1,,,,,,,,,,,,,,,,,,,,,,,,,,,,,,,,,,,,,,,,
,,,,,SPR24_039,20,F,2024-04-11_15h33.36.727,jersey_experiment_5_v0,2023.2.2,Win32,85.47008547,,,,,,,,,,,,,,,,355.2711,356.5652,356.5652,358.3651,return,0.7484,,72.00520833,,,,,,FBP-RB-81.png,0.4,1.2,38,0.5,0,18,18,37,1,,,,,,,,,,,,,,,,,,,,,,,,,,,,,,,,,,,,,,,,
,,,,,SPR24_039,20,F,2024-04-11_15h33.36.727,jersey_experiment_5_v0,2023.2.2,Win32,85.47008547,,,,,,,,,,,,,,,,358.3654,359.4124,359.4124,362.883,return,0.6014,,52.86458333,,,,,,FBP-YG-71.png,0.37,1.2,17,0.25,0,19,19,16,1,,,,,,,,,,,,,,,,,,,,,,,,,,,,,,,,,,,,,,,,
,,,,,SPR24_039,20,F,2024-04-11_15h33.36.727,jersey_experiment_5_v0,2023.2.2,Win32,85.47008547,,,,,,,,,,,,,,,,362.8833,363.9301,363.9302,367.6245,return,0.6352,,67.83854167,,,,,,FBP-PT-71.png,0.4,1.2,48,0.25,0,20,20,47,1,,,,,,,,,,,,,,,,,,,,,,,,,,,,,,,,,,,,,,,,
,,,,,SPR24_039,20,F,2024-04-11_15h33.36.727,jersey_experiment_5_v0,2023.2.2,Win32,85.47008547,,,,,,,,,,,,,,,,367.6247,368.9185,368.9185,371.8246,return,1.757,,38.28125,,,,,,FBP-RB-81.png,0.37,1.2,37,0.5,0,21,21,36,1,,,,,,,,,,,,,,,,,,,,,,,,,,,,,,,,,,,,,,,,
,,,,,SPR24_039,20,F,2024-04-11_15h33.36.727,jersey_experiment_5_v0,2023.2.2,Win32,85.47008547,,,,,,,,,,,,,,,,371.8248,373.1186,373.1186,375.2717,return,0.6267,,73.046875,,,,,,FBP-OG-17.png,0.43,1.2,4,0.5,0,22,22,3,1,,,,,,,,,,,,,,,,,,,,,,,,,,,,,,,,,,,,,,,,
,,,,,SPR24_039,20,F,2024-04-11_15h33.36.727,jersey_experiment_5_v0,2023.2.2,Win32,85.47008547,,,,,,,,,,,,,,,,375.2719,376.3187,376.3187,378.26,return,0.7058,,48.30729167,,,,,,FBP-PT-71.png,0.37,1.2,47,0.25,0,23,23,46,1,,,,,,,,,,,,,,,,,,,,,,,,,,,,,,,,,,,,,,,,
,,,,,SPR24_039,20,F,2024-04-11_15h33.36.727,jersey_experiment_5_v0,2023.2.2,Win32,85.47008547,,,,,,,,,,,,,,,,378.2603,379.5543,379.5543,382.0956,return,0.7714,,50.390625,,,,,,FBP-RB-91.png,0.37,1.2,42,0.5,0,24,24,41,1,,,,,,,,,,,,,,,,,,,,,,,,,,,,,,,,,,,,,,,,
,,,,,SPR24_039,20,F,2024-04-11_15h33.36.727,jersey_experiment_5_v0,2023.2.2,Win32,85.47008547,,,,,,,,,,,,,,,,382.0959,383.3896,383.3897,385.5191,return,0.6181,,58.07291667,,,,,,FBP-OG-18.png,0.4,1.2,8,0.5,0,25,25,7,1,,,,,,,,,,,,,,,,,,,,,,,,,,,,,,,,,,,,,,,,
,,,,,SPR24_039,20,F,2024-04-11_15h33.36.727,jersey_experiment_5_v0,2023.2.2,Win32,85.47008547,,,,,,,,,,,,,,,,385.5192,386.8134,386.8134,390.6722,return,0.6986,,49.86979167,,,,,,FBP-OG-19.png,0.37,1.2,12,0.5,0,26,26,11,1,,,,,,,,,,,,,,,,,,,,,,,,,,,,,,,,,,,,,,,,
,,,,,SPR24_039,20,F,2024-04-11_15h33.36.727,jersey_experiment_5_v0,2023.2.2,Win32,85.47008547,,,,,,,,,,,,,,,,390.6725,391.9665,391.9665,393.4137,return,0.6589,,23.17708333,,,,,,FBP-OG-17.png,0.37,1.2,2,0.5,0,27,27,1,1,,,,,,,,,,,,,,,,,,,,,,,,,,,,,,,,,,,,,,,,
,,,,,SPR24_039,20,F,2024-04-11_15h33.36.727,jersey_experiment_5_v0,2023.2.2,Win32,85.47008547,,,,,,,,,,,,,,,,393.4139,394.4606,394.4606,397.9195,return,2.1712,,84.89583333,,,,,,FBP-PT-91.png,0.45,1.2,60,0.25,0,28,28,59,1,,,,,,,,,,,,,,,,,,,,,,,,,,,,,,,,,,,,,,,,
,,,,,SPR24_039,20,F,2024-04-11_15h33.36.727,jersey_experiment_5_v0,2023.2.2,Win32,85.47008547,,,,,,,,,,,,,,,,397.9197,398.9667,398.9667,400.5314,return,0.6242,,85.28645833,,,,,,FBP-PT-71.png,0.43,1.2,49,0.25,0,29,29,48,1,,,,,,,,,,,,,,,,,,,,,,,,,,,,,,,,,,,,,,,,
,,,,,SPR24_039,20,F,2024-04-11_15h33.36.727,jersey_experiment_5_v0,2023.2.2,Win32,85.47008547,,,,,,,,,,,,,,,,400.5316,401.8255,401.8255,404.7903,return,1.7178,,43.359375,,,,,,FBP-RB-81.png,0.35,1.2,36,0.5,0,30,30,35,1,,,,,,,,,,,,,,,,,,,,,,,,,,,,,,,,,,,,,,,,
,,,,,SPR24_039,20,F,2024-04-11_15h33.36.727,jersey_experiment_5_v0,2023.2.2,Win32,85.47008547,,,,,,,,,,,,,,,,404.7904,405.8375,405.8376,409.6375,return,0.7061,,60.02604167,,,,,,FBP-PT-81.png,0.4,1.2,53,0.25,0,31,31,52,1,,,,,,,,,,,,,,,,,,,,,,,,,,,,,,,,,,,,,,,,
,,,,,SPR24_039,20,F,2024-04-11_15h33.36.727,jersey_experiment_5_v0,2023.2.2,Win32,85.47008547,,,,,,,,,,,,,,,,409.6376,410.9318,410.9318,412.2259,return,0.5924,,70.44270833,,,,,,FBP-RB-81.png,0.45,1.2,40,0.5,0,32,32,39,1,,,,,,,,,,,,,,,,,,,,,,,,,,,,,,,,,,,,,,,,
,,,,,SPR24_039,20,F,2024-04-11_15h33.36.727,jersey_experiment_5_v0,2023.2.2,Win32,85.47008547,,,,,,,,,,,,,,,,412.2261,413.52,413.5201,415.4261,return,0.7333,,81.51041667,,,,,,FBP-OG-17.png,0.45,1.2,5,0.5,0,33,33,4,1,,,,,,,,,,,,,,,,,,,,,,,,,,,,,,,,,,,,,,,,
,,,,,SPR24_039,20,F,2024-04-11_15h33.36.727,jersey_experiment_5_v0,2023.2.2,Win32,85.47008547,,,,,,,,,,,,,,,,415.4263,416.4732,416.4732,419.8379,return,1.1728,,51.82291667,,,,,,FBP-YG-71.png,0.35,1.2,16,0.25,0,34,34,15,1,,,,,,,,,,,,,,,,,,,,,,,,,,,,,,,,,,,,,,,,
,,,,,SPR24_039,20,F,2024-04-11_15h33.36.727,jersey_experiment_5_v0,2023.2.2,Win32,85.47008547,,,,,,,,,,,,,,,,419.8382,421.1322,421.1322,422.6733,return,0.663,,75.65104167,,,,,,FBP-OG-18.png,0.43,1.2,9,0.5,0,35,35,8,1,,,,,,,,,,,,,,,,,,,,,,,,,,,,,,,,,,,,,,,,
,,,,,SPR24_039,20,F,2024-04-11_15h33.36.727,jersey_experiment_5_v0,2023.2.2,Win32,85.47008547,,,,,,,,,,,,,,,,422.6735,423.7205,423.7206,426.1441,return,1.1235,,11.71875,,,,,,FBP-PT-81.png,0.35,1.2,51,0.25,0,36,36,50,1,,,,,,,,,,,,,,,,,,,,,,,,,,,,,,,,,,,,,,,,
,,,,,SPR24_039,20,F,2024-04-11_15h33.36.727,jersey_experiment_5_v0,2023.2.2,Win32,85.47008547,,,,,,,,,,,,,,,,426.1445,427.4384,427.4384,428.6384,return,0.6411,,11.71875,,,,,,FBP-RB-91.png,0.35,1.2,41,0.5,0,37,37,40,1,,,,,,,,,,,,,,,,,,,,,,,,,,,,,,,,,,,,,,,,
,,,,,SPR24_039,20,F,2024-04-11_15h33.36.727,jersey_experiment_5_v0,2023.2.2,Win32,85.47008547,,,,,,,,,,,,,,,,428.6387,429.6853,429.6853,432.3913,return,1.694,,11.71875,,,,,,FBP-PT-71.png,0.35,1.2,46,0.25,0,38,38,45,1,,,,,,,,,,,,,,,,,,,,,,,,,,,,,,,,,,,,,,,,
,,,,,SPR24_039,20,F,2024-04-11_15h33.36.727,jersey_experiment_5_v0,2023.2.2,Win32,85.47008547,,,,,,,,,,,,,,,,432.3914,433.4385,433.4385,437.0738,return,1.9205,,54.94791667,,,,,,FBP-YG-91.png,0.37,1.2,27,0.25,0,39,39,26,1,,,,,,,,,,,,,,,,,,,,,,,,,,,,,,,,,,,,,,,,
,,,,,SPR24_039,20,F,2024-04-11_15h33.36.727,jersey_experiment_5_v0,2023.2.2,Win32,85.47008547,,,,,,,,,,,,,,,,437.074,438.368,438.3681,439.7327,return,0.5529,,74.08854167,,,,,,FBP-RB-71.png,0.43,1.2,34,0.5,0,40,40,33,1,,,,,,,,,,,,,,,,,,,,,,,,,,,,,,,,,,,,,,,,
,,,,,SPR24_039,20,F,2024-04-11_15h33.36.727,jersey_experiment_5_v0,2023.2.2,Win32,85.47008547,,,,,,,,,,,,,,,,439.7329,441.0269,441.0269,442.5917,return,0.6161,,73.828125,,,,,,FBP-OG-18.png,0.45,1.2,10,0.5,0,41,41,9,1,,,,,,,,,,,,,,,,,,,,,,,,,,,,,,,,,,,,,,,,
,,,,,SPR24_039,20,F,2024-04-11_15h33.36.727,jersey_experiment_5_v0,2023.2.2,Win32,85.47008547,,,,,,,,,,,,,,,,442.592,443.8859,443.8859,446.1801,return,0.9057,,65.49479167,,,,,,FBP-RB-71.png,0.37,1.2,32,0.5,0,42,42,31,1,,,,,,,,,,,,,,,,,,,,,,,,,,,,,,,,,,,,,,,,
,,,,,SPR24_039,20,F,2024-04-11_15h33.36.727,jersey_experiment_5_v0,2023.2.2,Win32,85.47008547,,,,,,,,,,,,,,,,446.1803,447.2272,447.2272,450.7214,return,0.6261,,62.890625,,,,,,FBP-YG-91.png,0.43,1.2,29,0.25,0,43,43,28,1,,,,,,,,,,,,,,,,,,,,,,,,,,,,,,,,,,,,,,,,
,,,,,SPR24_039,20,F,2024-04-11_15h33.36.727,jersey_experiment_5_v0,2023.2.2,Win32,85.47008547,,,,,,,,,,,,,,,,450.7216,451.7684,451.7685,453.745,return,0.6517,,52.60416667,,,,,,FBP-YG-71.png,0.4,1.2,18,0.25,0,44,44,17,1,,,,,,,,,,,,,,,,,,,,,,,,,,,,,,,,,,,,,,,,
,,,,,SPR24_039,20,F,2024-04-11_15h33.36.727,jersey_experiment_5_v0,2023.2.2,Win32,85.47008547,,,,,,,,,,,,,,,,453.7452,455.0392,455.0392,457.9099,return,1.8027,,42.578125,,,,,,FBP-OG-18.png,0.37,1.2,7,0.5,0,45,45,6,1,,,,,,,,,,,,,,,,,,,,,,,,,,,,,,,,,,,,,,,,
,,,,,SPR24_039,20,F,2024-04-11_15h33.36.727,jersey_experiment_5_v0,2023.2.2,Win32,85.47008547,,,,,,,,,,,,,,,,457.9101,458.957,458.9571,461.6159,return,1.3095,,60.80729167,,,,,,FBP-YG-91.png,0.45,1.2,30,0.25,0,46,46,29,1,,,,,,,,,,,,,,,,,,,,,,,,,,,,,,,,,,,,,,,,
,,,,,SPR24_039,20,F,2024-04-11_15h33.36.727,jersey_experiment_5_v0,2023.2.2,Win32,85.47008547,,,,,,,,,,,,,,,,461.6162,462.663,462.663,465.0865,return,0.665,,71.74479167,,,,,,FBP-PT-81.png,0.45,1.2,55,0.25,0,47,47,54,1,,,,,,,,,,,,,,,,,,,,,,,,,,,,,,,,,,,,,,,,
,,,,,SPR24_039,20,F,2024-04-11_15h33.36.727,jersey_experiment_5_v0,2023.2.2,Win32,85.47008547,,,,,,,,,,,,,,,,465.0867,466.3808,466.3809,469.3338,return,0.6448,,67.70833333,,,,,,FBP-RB-81.png,0.43,1.2,39,0.5,0,48,48,38,1,,,,,,,,,,,,,,,,,,,,,,,,,,,,,,,,,,,,,,,,
,,,,,SPR24_039,20,F,2024-04-11_15h33.36.727,jersey_experiment_5_v0,2023.2.2,Win32,85.47008547,,,,,,,,,,,,,,,,469.3341,470.6279,470.628,472.3575,return,0.7767,,78.64583333,,,,,,FBP-OG-19.png,0.45,1.2,15,0.5,0,49,49,14,1,,,,,,,,,,,,,,,,,,,,,,,,,,,,,,,,,,,,,,,,
,,,,,SPR24_039,20,F,2024-04-11_15h33.36.727,jersey_experiment_5_v0,2023.2.2,Win32,85.47008547,,,,,,,,,,,,,,,,472.3577,473.6517,473.6517,476.1458,return,1.4981,,74.34895833,,,,,,FBP-RB-71.png,0.45,1.2,35,0.5,0,50,50,34,1,,,,,,,,,,,,,,,,,,,,,,,,,,,,,,,,,,,,,,,,
,,,,,SPR24_039,20,F,2024-04-11_15h33.36.727,jersey_experiment_5_v0,2023.2.2,Win32,85.47008547,,,,,,,,,,,,,,,,476.146,477.4401,477.4401,479.4754,return,0.779,,65.234375,,,,,,FBP-RB-71.png,0.4,1.2,33,0.5,0,51,51,32,1,,,,,,,,,,,,,,,,,,,,,,,,,,,,,,,,,,,,,,,,
,,,,,SPR24_039,20,F,2024-04-11_15h33.36.727,jersey_experiment_5_v0,2023.2.2,Win32,85.47008547,,,,,,,,,,,,,,,,479.4755,480.7694,480.7694,482.4401,return,0.6218,,24.21875,,,,,,FBP-OG-19.png,0.35,1.2,11,0.5,0,52,52,10,1,,,,,,,,,,,,,,,,,,,,,,,,,,,,,,,,,,,,,,,,
,,,,,SPR24_039,20,F,2024-04-11_15h33.36.727,jersey_experiment_5_v0,2023.2.2,Win32,85.47008547,,,,,,,,,,,,,,,,482.4403,483.7342,483.7343,485.3933,return,0.6043,,24.21875,,,,,,FBP-OG-18.png,0.35,1.2,6,0.5,0,53,53,5,1,,,,,,,,,,,,,,,,,,,,,,,,,,,,,,,,,,,,,,,,
,,,,,SPR24_039,20,F,2024-04-11_15h33.36.727,jersey_experiment_5_v0,2023.2.2,Win32,85.47008547,,,,,,,,,,,,,,,,485.3935,486.4402,486.4402,491.6877,return,1.5767,,22.91666667,,,,,,FBP-YG-71.png,0.43,1.2,19,0.25,0,54,54,18,1,,,,,,,,,,,,,,,,,,,,,,,,,,,,,,,,,,,,,,,,
,,,,,SPR24_039,20,F,2024-04-11_15h33.36.727,jersey_experiment_5_v0,2023.2.2,Win32,85.47008547,,,,,,,,,,,,,,,,491.6878,492.7347,492.7347,495.6642,return,1.4273,,16.27604167,,,,,,FBP-PT-81.png,0.37,1.2,52,0.25,0,55,55,51,1,,,,,,,,,,,,,,,,,,,,,,,,,,,,,,,,,,,,,,,,
,,,,,SPR24_039,20,F,2024-04-11_15h33.36.727,jersey_experiment_5_v0,2023.2.2,Win32,85.47008547,,,,,,,,,,,,,,,,495.6644,496.7113,496.7113,498.5819,return,0.6355,,25,,,,,,FBP-YG-91.png,0.35,1.2,26,0.25,0,56,56,25,1,,,,,,,,,,,,,,,,,,,,,,,,,,,,,,,,,,,,,,,,
,,,,,SPR24_039,20,F,2024-04-11_15h33.36.727,jersey_experiment_5_v0,2023.2.2,Win32,85.47008547,,,,,,,,,,,,,,,,498.5821,499.876,499.876,502.2409,return,0.6282,,62.23958333,,,,,,FBP-RB-91.png,0.43,1.2,44,0.5,0,57,57,43,1,,,,,,,,,,,,,,,,,,,,,,,,,,,,,,,,,,,,,,,,
,,,,,SPR24_039,20,F,2024-04-11_15h33.36.727,jersey_experiment_5_v0,2023.2.2,Win32,85.47008547,,,,,,,,,,,,,,,,502.241,503.288,503.288,507.5822,return,0.8899,,65.625,,,,,,FBP-YG-81.png,0.45,1.2,25,0.25,0,58,58,24,1,,,,,,,,,,,,,,,,,,,,,,,,,,,,,,,,,,,,,,,,
,,,,,SPR24_039,20,F,2024-04-11_15h33.36.727,jersey_experiment_5_v0,2023.2.2,Win32,85.47008547,,,,,,,,,,,,,,,,507.5825,508.6293,508.6293,510.7118,return,0.6262,,24.08854167,,,,,,FBP-PT-91.png,0.35,1.2,56,0.25,0,59,59,55,1,,,,,,,,,,,,,,,,,,,,,,,,,,,,,,,,,,,,,,,,
,,,,,SPR24_039,20,F,2024-04-11_15h33.36.727,jersey_experiment_5_v0,2023.2.2,Win32,85.47008547,,,,,,,,,,,,,,,,,,,,,,,,,,,,,,,,,,,,,,,510.7122,630.7046,,,,,,,,,,,,,,,,,,,,,,,,,,,,,,,,,,,,,,
,,,,,SPR24_039,20,F,2024-04-11_15h33.36.727,jersey_experiment_5_v0,2023.2.2,Win32,85.47008547,,,,,,,,,,,,,,,,,,,,,,,,,,,,,,,,,,,,,,,,,630.7046,634.4809,return,3.7692,,,,,,,,,,,,,,,,,,,,,,,,,,,,,,,,,,
,,,,,SPR24_039,20,F,2024-04-11_15h33.36.727,jersey_experiment_5_v0,2023.2.2,Win32,85.47008547,,,,,,,,,,,,,,,,634.487,635.5396,635.5396,638.128,return,0.9936,,49.34895833,,,,,,FBP-RB-19.png,0.4,1.2,43,0.25,,,,,,,,,,,,,0,0,0,42,1,,,,,,,,,,,,,,,,,,,,,,,,,,,,
,,,,,SPR24_039,20,F,2024-04-11_15h33.36.727,jersey_experiment_5_v0,2023.2.2,Win32,85.47008547,,,,,,,,,,,,,,,,638.1282,639.1752,639.1752,640.3281,return,0.1413,,73.828125,,,,,,FBP-OG-81.png,0.45,1.2,10,0.25,,,,,,,,,,,,,0,1,1,9,1,,,,,,,,,,,,,,,,,,,,,,,,,,,,
,,,,,SPR24_039,20,F,2024-04-11_15h33.36.727,jersey_experiment_5_v0,2023.2.2,Win32,85.47008547,,,,,,,,,,,,,,,,640.3283,641.3753,641.3754,642.5163,return,0.141,,49.86979167,,,,,,FBP-RB-18.png,0.35,1.2,36,0.25,,,,,,,,,,,,,0,2,2,35,1,,,,,,,,,,,,,,,,,,,,,,,,,,,,
,,,,,SPR24_039,20,F,2024-04-11_15h33.36.727,jersey_experiment_5_v0,2023.2.2,Win32,85.47008547,,,,,,,,,,,,,,,,642.5165,643.8106,643.8106,645.1989,return,0.2167,,50.52083333,,,,,,FBP-PT-17.png,0.35,1.2,46,0.5,,,,,,,,,,,,,0,3,3,45,1,,,,,,,,,,,,,,,,,,,,,,,,,,,,
,,,,,SPR24_039,20,F,2024-04-11_15h33.36.727,jersey_experiment_5_v0,2023.2.2,Win32,85.47008547,,,,,,,,,,,,,,,,645.1991,646.4931,646.4931,647.999,return,0.0891,,24.47916667,,,,,,FBP-PT-18.png,0.35,1.2,51,0.5,,,,,,,,,,,,,0,4,4,50,1,,,,,,,,,,,,,,,,,,,,,,,,,,,,
,,,,,SPR24_039,20,F,2024-04-11_15h33.36.727,jersey_experiment_5_v0,2023.2.2,Win32,85.47008547,,,,,,,,,,,,,,,,647.9992,649.0461,649.0461,650.6461,return,0.1982,,63.93229167,,,,,,FBP-RB-17.png,0.43,1.2,34,0.25,,,,,,,,,,,,,0,5,5,33,1,,,,,,,,,,,,,,,,,,,,,,,,,,,,
,,,,,SPR24_039,20,F,2024-04-11_15h33.36.727,jersey_experiment_5_v0,2023.2.2,Win32,85.47008547,,,,,,,,,,,,,,,,650.6462,651.6932,651.6932,655.7641,return,1.9076,,41.796875,,,,,,FBP-OG-71.png,0.35,1.2,1,0.25,,,,,,,,,,,,,0,6,6,0,1,,,,,,,,,,,,,,,,,,,,,,,,,,,,
,,,,,SPR24_039,20,F,2024-04-11_15h33.36.727,jersey_experiment_5_v0,2023.2.2,Win32,85.47008547,,,,,,,,,,,,,,,,655.7643,656.8109,656.8109,658.0346,return,0.2018,,62.36979167,,,,,,FBP-RB-19.png,0.45,1.2,45,0.25,,,,,,,,,,,,,0,7,7,44,1,,,,,,,,,,,,,,,,,,,,,,,,,,,,
,,,,,SPR24_039,20,F,2024-04-11_15h33.36.727,jersey_experiment_5_v0,2023.2.2,Win32,85.47008547,,,,,,,,,,,,,,,,658.0348,659.0817,659.0818,666.7057,return,1.5088,,43.48958333,,,,,,FBP-OG-81.png,0.43,1.2,9,0.25,,,,,,,,,,,,,0,8,8,8,1,,,,,,,,,,,,,,,,,,,,,,,,,,,,
,,,,,SPR24_039,20,F,2024-04-11_15h33.36.727,jersey_experiment_5_v0,2023.2.2,Win32,85.47008547,,,,,,,,,,,,,,,,666.7059,667.9997,667.9997,669.1174,return,0.3712,,31.77083333,,,,,,FBP-YG-19.png,0.35,1.2,26,0.5,,,,,,,,,,,,,0,9,9,25,1,,,,,,,,,,,,,,,,,,,,,,,,,,,,
,,,,,SPR24_039,20,F,2024-04-11_15h33.36.727,jersey_experiment_5_v0,2023.2.2,Win32,85.47008547,,,,,,,,,,,,,,,,669.1175,670.4115,670.4115,673.1881,return,0.1662,,66.40625,,,,,,FBP-YG-17.png,0.45,1.2,20,0.5,,,,,,,,,,,,,0,10,10,19,1,,,,,,,,,,,,,,,,,,,,,,,,,,,,
,,,,,SPR24_039,20,F,2024-04-11_15h33.36.727,jersey_experiment_5_v0,2023.2.2,Win32,85.47008547,,,,,,,,,,,,,,,,673.1882,674.4822,674.4823,677.6823,return,1.8022,,71.22395833,,,,,,FBP-PT-18.png,0.4,1.2,53,0.5,,,,,,,,,,,,,0,11,11,52,1,,,,,,,,,,,,,,,,,,,,,,,,,,,,
,,,,,SPR24_039,20,F,2024-04-11_15h33.36.727,jersey_experiment_5_v0,2023.2.2,Win32,85.47008547,,,,,,,,,,,,,,,,677.6826,678.9766,678.9766,680.1294,return,0.2492,,70.703125,,,,,,FBP-YG-19.png,0.43,1.2,29,0.5,,,,,,,,,,,,,0,12,12,28,1,,,,,,,,,,,,,,,,,,,,,,,,,,,,
,,,,,SPR24_039,20,F,2024-04-11_15h33.36.727,jersey_experiment_5_v0,2023.2.2,Win32,85.47008547,,,,,,,,,,,,,,,,680.1296,681.4238,681.4238,682.7178,return,0.5256,,76.82291667,,,,,,FBP-YG-19.png,0.45,1.2,30,0.5,,,,,,,,,,,,,0,13,13,29,1,,,,,,,,,,,,,,,,,,,,,,,,,,,,
,,,,,SPR24_039,20,F,2024-04-11_15h33.36.727,jersey_experiment_5_v0,2023.2.2,Win32,85.47008547,,,,,,,,,,,,,,,,682.718,683.7648,683.7648,685.5414,return,0.2118,,75.390625,,,,,,FBP-OG-91.png,0.43,1.2,14,0.25,,,,,,,,,,,,,0,14,14,13,1,,,,,,,,,,,,,,,,,,,,,,,,,,,,
,,,,,SPR24_039,20,F,2024-04-11_15h33.36.727,jersey_experiment_5_v0,2023.2.2,Win32,85.47008547,,,,,,,,,,,,,,,,685.5416,686.5886,686.5887,689.2006,return,1.2269,,86.06770833,,,,,,FBP-RB-18.png,0.43,1.2,39,0.25,,,,,,,,,,,,,0,15,15,38,1,,,,,,,,,,,,,,,,,,,,,,,,,,,,
,,,,,SPR24_039,20,F,2024-04-11_15h33.36.727,jersey_experiment_5_v0,2023.2.2,Win32,85.47008547,,,,,,,,,,,,,,,,689.2008,690.4946,690.4946,692.4476,return,0.1119,,42.1875,,,,,,FBP-YG-17.png,0.37,1.2,17,0.5,,,,,,,,,,,,,0,16,16,16,1,,,,,,,,,,,,,,,,,,,,,,,,,,,,
,,,,,SPR24_039,20,F,2024-04-11_15h33.36.727,jersey_experiment_5_v0,2023.2.2,Win32,85.47008547,,,,,,,,,,,,,,,,692.4478,693.742,693.742,695.9537,return,0.8485,,84.63541667,,,,,,FBP-PT-19.png,0.45,1.2,60,0.5,,,,,,,,,,,,,0,17,17,59,1,,,,,,,,,,,,,,,,,,,,,,,,,,,,
,,,,,SPR24_039,20,F,2024-04-11_15h33.36.727,jersey_experiment_5_v0,2023.2.2,Win32,85.47008547,,,,,,,,,,,,,,,,695.954,697.2478,697.2478,699.5418,return,0.3637,,39.58333333,,,,,,FBP-PT-19.png,0.37,1.2,57,0.5,,,,,,,,,,,,,0,18,18,56,1,,,,,,,,,,,,,,,,,,,,,,,,,,,,
,,,,,SPR24_039,20,F,2024-04-11_15h33.36.727,jersey_experiment_5_v0,2023.2.2,Win32,85.47008547,,,,,,,,,,,,,,,,699.5421,700.8361,700.8361,702.342,return,0.0704,,69.66145833,,,,,,FBP-PT-19.png,0.43,1.2,59,0.5,,,,,,,,,,,,,0,19,19,58,1,,,,,,,,,,,,,,,,,,,,,,,,,,,,
,,,,,SPR24_039,20,F,2024-04-11_15h33.36.727,jersey_experiment_5_v0,2023.2.2,Win32,85.47008547,,,,,,,,,,,,,,,,702.3421,703.6362,703.6362,705.554,return,0.7684,,37.36979167,,,,,,FBP-PT-19.png,0.35,1.2,56,0.5,,,,,,,,,,,,,0,20,20,55,1,,,,,,,,,,,,,,,,,,,,,,,,,,,,
,,,,,SPR24_039,20,F,2024-04-11_15h33.36.727,jersey_experiment_5_v0,2023.2.2,Win32,85.47008547,,,,,,,,,,,,,,,,705.5542,706.601,706.601,708.1775,return,0.25,,37.36979167,,,,,,FBP-RB-17.png,0.37,1.2,32,0.25,,,,,,,,,,,,,0,21,21,31,1,,,,,,,,,,,,,,,,,,,,,,,,,,,,
,,,,,SPR24_039,20,F,2024-04-11_15h33.36.727,jersey_experiment_5_v0,2023.2.2,Win32,85.47008547,,,,,,,,,,,,,,,,708.1776,709.4716,709.4717,710.4483,return,0.2865,,37.36979167,,,,,,FBP-YG-19.png,0.37,1.2,27,0.5,,,,,,,,,,,,,0,22,22,26,1,,,,,,,,,,,,,,,,,,,,,,,,,,,,
,,,,,SPR24_039,20,F,2024-04-11_15h33.36.727,jersey_experiment_5_v0,2023.2.2,Win32,85.47008547,,,,,,,,,,,,,,,,710.4485,711.7423,711.7423,712.9425,return,0.1941,,62.23958333,,,,,,FBP-PT-17.png,0.4,1.2,48,0.5,,,,,,,,,,,,,0,23,23,47,1,,,,,,,,,,,,,,,,,,,,,,,,,,,,
,,,,,SPR24_039,20,F,2024-04-11_15h33.36.727,jersey_experiment_5_v0,2023.2.2,Win32,85.47008547,,,,,,,,,,,,,,,,712.9427,713.9894,713.9895,716.7425,return,0.4576,,66.92708333,,,,,,FBP-RB-18.png,0.45,1.2,40,0.25,,,,,,,,,,,,,0,24,24,39,1,,,,,,,,,,,,,,,,,,,,,,,,,,,,
,,,,,SPR24_039,20,F,2024-04-11_15h33.36.727,jersey_experiment_5_v0,2023.2.2,Win32,85.47008547,,,,,,,,,,,,,,,,716.7427,718.0367,718.0367,719.8721,return,0.8525,,85.9375,,,,,,FBP-PT-18.png,0.45,1.2,55,0.5,,,,,,,,,,,,,0,25,25,54,1,,,,,,,,,,,,,,,,,,,,,,,,,,,,
,,,,,SPR24_039,20,F,2024-04-11_15h33.36.727,jersey_experiment_5_v0,2023.2.2,Win32,85.47008547,,,,,,,,,,,,,,,,719.8724,720.9193,720.9193,723.4133,return,0.1543,,53.90625,,,,,,FBP-RB-19.png,0.37,1.2,42,0.25,,,,,,,,,,,,,0,26,26,41,1,,,,,,,,,,,,,,,,,,,,,,,,,,,,
,,,,,SPR24_039,20,F,2024-04-11_15h33.36.727,jersey_experiment_5_v0,2023.2.2,Win32,85.47008547,,,,,,,,,,,,,,,,723.4136,724.4605,724.4605,726.4135,return,0.5729,,41.27604167,,,,,,FBP-OG-81.png,0.35,1.2,6,0.25,,,,,,,,,,,,,0,27,27,5,1,,,,,,,,,,,,,,,,,,,,,,,,,,,,
,,,,,SPR24_039,20,F,2024-04-11_15h33.36.727,jersey_experiment_5_v0,2023.2.2,Win32,85.47008547,,,,,,,,,,,,,,,,726.4136,727.7076,727.7076,729.4253,return,0.7806,,74.609375,,,,,,FBP-PT-18.png,0.43,1.2,54,0.5,,,,,,,,,,,,,0,28,28,53,1,,,,,,,,,,,,,,,,,,,,,,,,,,,,
,,,,,SPR24_039,20,F,2024-04-11_15h33.36.727,jersey_experiment_5_v0,2023.2.2,Win32,85.47008547,,,,,,,,,,,,,,,,729.4255,730.7194,730.7194,732.0372,return,0.3299,,68.61979167,,,,,,FBP-YG-19.png,0.4,1.2,28,0.5,,,,,,,,,,,,,0,29,29,27,1,,,,,,,,,,,,,,,,,,,,,,,,,,,,
,,,,,SPR24_039,20,F,2024-04-11_15h33.36.727,jersey_experiment_5_v0,2023.2.2,Win32,85.47008547,,,,,,,,,,,,,,,,732.0375,733.0843,733.0843,735.108,return,0.7439,,67.83854167,,,,,,FBP-OG-91.png,0.4,1.2,13,0.25,,,,,,,,,,,,,0,30,30,12,1,,,,,,,,,,,,,,,,,,,,,,,,,,,,
,,,,,SPR24_039,20,F,2024-04-11_15h33.36.727,jersey_experiment_5_v0,2023.2.2,Win32,85.47008547,,,,,,,,,,,,,,,,735.1081,736.155,736.155,738.4493,return,0.2619,,38.02083333,,,,,,FBP-RB-19.png,0.35,1.2,41,0.25,,,,,,,,,,,,,0,31,31,40,1,,,,,,,,,,,,,,,,,,,,,,,,,,,,
,,,,,SPR24_039,20,F,2024-04-11_15h33.36.727,jersey_experiment_5_v0,2023.2.2,Win32,85.47008547,,,,,,,,,,,,,,,,738.4496,739.4964,739.4964,740.9317,return,0.1195,,31.11979167,,,,,,FBP-RB-17.png,0.35,1.2,31,0.25,,,,,,,,,,,,,0,32,32,30,1,,,,,,,,,,,,,,,,,,,,,,,,,,,,
,,,,,SPR24_039,20,F,2024-04-11_15h33.36.727,jersey_experiment_5_v0,2023.2.2,Win32,85.47008547,,,,,,,,,,,,,,,,740.932,742.2258,742.2259,744.4495,return,0.4021,,56.51041667,,,,,,FBP-YG-17.png,0.4,1.2,18,0.5,,,,,,,,,,,,,0,33,33,17,1,,,,,,,,,,,,,,,,,,,,,,,,,,,,
,,,,,SPR24_039,20,F,2024-04-11_15h33.36.727,jersey_experiment_5_v0,2023.2.2,Win32,85.47008547,,,,,,,,,,,,,,,,744.4497,745.7437,745.7437,747.5438,return,0.5979,,83.07291667,,,,,,FBP-PT-17.png,0.43,1.2,49,0.5,,,,,,,,,,,,,0,34,34,48,1,,,,,,,,,,,,,,,,,,,,,,,,,,,,
,,,,,SPR24_039,20,F,2024-04-11_15h33.36.727,jersey_experiment_5_v0,2023.2.2,Win32,85.47008547,,,,,,,,,,,,,,,,747.544,748.5908,748.5908,751.1673,return,0.1101,,55.98958333,,,,,,FBP-OG-91.png,0.37,1.2,12,0.25,,,,,,,,,,,,,0,35,35,11,1,,,,,,,,,,,,,,,,,,,,,,,,,,,,
,,,,,SPR24_039,20,F,2024-04-11_15h33.36.727,jersey_experiment_5_v0,2023.2.2,Win32,85.47008547,,,,,,,,,,,,,,,,751.1676,752.2145,752.2145,753.9439,return,0.6919,,85.9375,,,,,,FBP-RB-17.png,0.45,1.2,35,0.25,,,,,,,,,,,,,0,36,36,34,1,,,,,,,,,,,,,,,,,,,,,,,,,,,,
,,,,,SPR24_039,20,F,2024-04-11_15h33.36.727,jersey_experiment_5_v0,2023.2.2,Win32,85.47008547,,,,,,,,,,,,,,,,753.9441,755.238,755.2381,756.8145,return,0.1481,,75.65104167,,,,,,FBP-YG-18.png,0.43,1.2,24,0.5,,,,,,,,,,,,,0,37,37,23,1,,,,,,,,,,,,,,,,,,,,,,,,,,,,
,,,,,SPR24_039,20,F,2024-04-11_15h33.36.727,jersey_experiment_5_v0,2023.2.2,Win32,85.47008547,,,,,,,,,,,,,,,,756.8147,757.8617,757.8617,759.3086,return,0.2438,,75.65104167,,,,,,FBP-OG-71.png,0.4,1.2,3,0.25,,,,,,,,,,,,,0,38,38,2,1,,,,,,,,,,,,,,,,,,,,,,,,,,,,
,,,,,SPR24_039,20,F,2024-04-11_15h33.36.727,jersey_experiment_5_v0,2023.2.2,Win32,85.47008547,,,,,,,,,,,,,,,,759.3088,760.603,760.6031,762.0618,return,0.1121,,50.390625,,,,,,FBP-YG-18.png,0.35,1.2,21,0.5,,,,,,,,,,,,,0,39,39,20,1,,,,,,,,,,,,,,,,,,,,,,,,,,,,
,,,,,SPR24_039,20,F,2024-04-11_15h33.36.727,jersey_experiment_5_v0,2023.2.2,Win32,85.47008547,,,,,,,,,,,,,,,,762.0621,763.1089,763.1089,763.9089,return,0.2118,,50.390625,,,,,,FBP-RB-18.png,0.37,1.2,37,0.25,,,,,,,,,,,,,0,40,40,36,1,,,,,,,,,,,,,,,,,,,,,,,,,,,,
,,,,,SPR24_039,20,F,2024-04-11_15h33.36.727,jersey_experiment_5_v0,2023.2.2,Win32,85.47008547,,,,,,,,,,,,,,,,763.9091,765.2031,765.2031,767.2384,return,0.1415,,55.98958333,,,,,,FBP-YG-17.png,0.35,1.2,16,0.5,,,,,,,,,,,,,0,41,41,15,1,,,,,,,,,,,,,,,,,,,,,,,,,,,,
,,,,,SPR24_039,20,F,2024-04-11_15h33.36.727,jersey_experiment_5_v0,2023.2.2,Win32,85.47008547,,,,,,,,,,,,,,,,767.2387,768.2856,768.2856,770.9327,return,0.2225,,58.46354167,,,,,,FBP-OG-81.png,0.4,1.2,8,0.25,,,,,,,,,,,,,0,42,42,7,1,,,,,,,,,,,,,,,,,,,,,,,,,,,,
,,,,,SPR24_039,20,F,2024-04-11_15h33.36.727,jersey_experiment_5_v0,2023.2.2,Win32,85.47008547,,,,,,,,,,,,,,,,770.9329,772.2268,772.2268,774.0858,return,0.141,,61.71875,,,,,,FBP-PT-17.png,0.37,1.2,47,0.5,,,,,,,,,,,,,0,43,43,46,1,,,,,,,,,,,,,,,,,,,,,,,,,,,,
,,,,,SPR24_039,20,F,2024-04-11_15h33.36.727,jersey_experiment_5_v0,2023.2.2,Win32,85.47008547,,,,,,,,,,,,,,,,774.086,775.3797,775.3798,778.1564,return,0.8189,,60.28645833,,,,,,FBP-YG-18.png,0.37,1.2,22,0.5,,,,,,,,,,,,,0,44,44,21,1,,,,,,,,,,,,,,,,,,,,,,,,,,,,
,,,,,SPR24_039,20,F,2024-04-11_15h33.36.727,jersey_experiment_5_v0,2023.2.2,Win32,85.47008547,,,,,,,,,,,,,,,,778.1567,779.2036,779.2036,781.3565,return,0.1122,,53.90625,,,,,,FBP-OG-71.png,0.37,1.2,2,0.25,,,,,,,,,,,,,0,45,45,1,1,,,,,,,,,,,,,,,,,,,,,,,,,,,,
,,,,,SPR24_039,20,F,2024-04-11_15h33.36.727,jersey_experiment_5_v0,2023.2.2,Win32,85.47008547,,,,,,,,,,,,,,,,781.3568,782.4038,782.4038,784.8862,return,0.2218,,56.38020833,,,,,,FBP-RB-17.png,0.4,1.2,33,0.25,,,,,,,,,,,,,0,46,46,32,1,,,,,,,,,,,,,,,,,,,,,,,,,,,,
,,,,,SPR24_039,20,F,2024-04-11_15h33.36.727,jersey_experiment_5_v0,2023.2.2,Win32,85.47008547,,,,,,,,,,,,,,,,784.8866,785.9333,785.9333,787.2158,return,0.2748,,70.96354167,,,,,,FBP-RB-19.png,0.43,1.2,44,0.25,,,,,,,,,,,,,0,47,47,43,1,,,,,,,,,,,,,,,,,,,,,,,,,,,,
,,,,,SPR24_039,20,F,2024-04-11_15h33.36.727,jersey_experiment_5_v0,2023.2.2,Win32,85.47008547,,,,,,,,,,,,,,,,787.216,788.2627,788.2628,792.7688,return,0.3202,,67.31770833,,,,,,FBP-RB-18.png,0.4,1.2,38,0.25,,,,,,,,,,,,,0,48,48,37,1,,,,,,,,,,,,,,,,,,,,,,,,,,,,
,,,,,SPR24_039,20,F,2024-04-11_15h33.36.727,jersey_experiment_5_v0,2023.2.2,Win32,85.47008547,,,,,,,,,,,,,,,,792.769,794.0629,794.0629,795.6631,return,0.3922,,69.01041667,,,,,,FBP-PT-18.png,0.37,1.2,52,0.5,,,,,,,,,,,,,0,49,49,51,1,,,,,,,,,,,,,,,,,,,,,,,,,,,,
,,,,,SPR24_039,20,F,2024-04-11_15h33.36.727,jersey_experiment_5_v0,2023.2.2,Win32,85.47008547,,,,,,,,,,,,,,,,795.6633,796.7104,796.7104,798.0515,return,0.4008,,78.90625,,,,,,FBP-OG-71.png,0.43,1.2,4,0.25,,,,,,,,,,,,,0,50,50,3,1,,,,,,,,,,,,,,,,,,,,,,,,,,,,
,,,,,SPR24_039,20,F,2024-04-11_15h33.36.727,jersey_experiment_5_v0,2023.2.2,Win32,85.47008547,,,,,,,,,,,,,,,,798.0518,799.0983,799.0984,800.2043,return,0.2915,,78.38541667,,,,,,FBP-OG-91.png,0.45,1.2,15,0.25,,,,,,,,,,,,,0,51,51,14,1,,,,,,,,,,,,,,,,,,,,,,,,,,,,
,,,,,SPR24_039,20,F,2024-04-11_15h33.36.727,jersey_experiment_5_v0,2023.2.2,Win32,85.47008547,,,,,,,,,,,,,,,,800.2045,801.2514,801.2514,805.1223,return,0.1209,,54.03645833,,,,,,FBP-OG-91.png,0.35,1.2,11,0.25,,,,,,,,,,,,,0,52,52,10,1,,,,,,,,,,,,,,,,,,,,,,,,,,,,
,,,,,SPR24_039,20,F,2024-04-11_15h33.36.727,jersey_experiment_5_v0,2023.2.2,Win32,85.47008547,,,,,,,,,,,,,,,,805.1225,806.4163,806.4164,809.1223,return,0.3559,,61.97916667,,,,,,FBP-YG-18.png,0.4,1.2,23,0.5,,,,,,,,,,,,,0,53,53,22,1,,,,,,,,,,,,,,,,,,,,,,,,,,,,
,,,,,SPR24_039,20,F,2024-04-11_15h33.36.727,jersey_experiment_5_v0,2023.2.2,Win32,85.47008547,,,,,,,,,,,,,,,,809.1225,810.1695,810.1695,812.6639,return,1.5063,,84.24479167,,,,,,FBP-OG-71.png,0.45,1.2,5,0.25,,,,,,,,,,,,,0,54,54,4,1,,,,,,,,,,,,,,,,,,,,,,,,,,,,
,,,,,SPR24_039,20,F,2024-04-11_15h33.36.727,jersey_experiment_5_v0,2023.2.2,Win32,85.47008547,,,,,,,,,,,,,,,,812.6641,813.9578,813.9578,814.946,return,0.2032,,83.59375,,,,,,FBP-YG-18.png,0.45,1.2,25,0.5,,,,,,,,,,,,,0,55,55,24,1,,,,,,,,,,,,,,,,,,,,,,,,,,,,
,,,,,SPR24_039,20,F,2024-04-11_15h33.36.727,jersey_experiment_5_v0,2023.2.2,Win32,85.47008547,,,,,,,,,,,,,,,,814.9463,816.24,816.2401,817.9698,return,0.5077,,67.31770833,,,,,,FBP-PT-19.png,0.4,1.2,58,0.5,,,,,,,,,,,,,0,56,56,57,1,,,,,,,,,,,,,,,,,,,,,,,,,,,,
,,,,,SPR24_039,20,F,2024-04-11_15h33.36.727,jersey_experiment_5_v0,2023.2.2,Win32,85.47008547,,,,,,,,,,,,,,,,817.97,819.2638,819.2639,821.064,return,0.1649,,77.86458333,,,,,,FBP-PT-17.png,0.45,1.2,50,0.5,,,,,,,,,,,,,0,57,57,49,1,,,,,,,,,,,,,,,,,,,,,,,,,,,,
,,,,,SPR24_039,20,F,2024-04-11_15h33.36.727,jersey_experiment_5_v0,2023.2.2,Win32,85.47008547,,,,,,,,,,,,,,,,821.0642,822.358,822.3581,823.9347,return,0.2407,,78.90625,,,,,,FBP-YG-17.png,0.43,1.2,19,0.5,,,,,,,,,,,,,0,58,58,18,1,,,,,,,,,,,,,,,,,,,,,,,,,,,,
,,,,,SPR24_039,20,F,2024-04-11_15h33.36.727,jersey_experiment_5_v0,2023.2.2,Win32,85.47008547,,,,,,,,,,,,,,,,823.9349,824.9819,824.982,827.5348,return,0.4986,,64.97395833,,,,,,FBP-OG-81.png,0.37,1.2,7,0.25,,,,,,,,,,,,,0,59,59,6,1,,,,,,,,,,,,,,,,,,,,,,,,,,,,
,,,,,SPR24_039,20,F,2024-04-11_15h33.36.727,jersey_experiment_5_v0,2023.2.2,Win32,85.47008547,,,,,,,,,,,,,,,,827.5361,828.5818,828.5819,830.9466,return,1.1541,,88.15104167,,,,,,FBP-RB-91.png,0.45,1.2,45,0.25,,,,,,,,,,,,,,,,,,0,0,0,44,1,,,,,,,,,,,,,,,,,,,,,,,
,,,,,SPR24_039,20,F,2024-04-11_15h33.36.727,jersey_experiment_5_v0,2023.2.2,Win32,85.47008547,,,,,,,,,,,,,,,,830.9469,832.2408,832.2408,833.6056,return,0.1637,,67.05729167,,,,,,FBP-PT-81.png,0.37,1.2,52,0.5,,,,,,,,,,,,,,,,,,0,1,1,51,1,,,,,,,,,,,,,,,,,,,,,,,
,,,,,SPR24_039,20,F,2024-04-11_15h33.36.727,jersey_experiment_5_v0,2023.2.2,Win32,85.47008547,,,,,,,,,,,,,,,,833.6059,834.8996,834.8997,838.0528,return,0.3902,,64.453125,,,,,,FBP-YG-91.png,0.4,1.2,28,0.5,,,,,,,,,,,,,,,,,,0,2,2,27,1,,,,,,,,,,,,,,,,,,,,,,,
,,,,,SPR24_039,20,F,2024-04-11_15h33.36.727,jersey_experiment_5_v0,2023.2.2,Win32,85.47008547,,,,,,,,,,,,,,,,838.053,839.0998,839.0998,841.559,return,1.3415,,81.90104167,,,,,,FBP-OG-19.png,0.43,1.2,14,0.25,,,,,,,,,,,,,,,,,,0,3,3,13,1,,,,,,,,,,,,,,,,,,,,,,,
,,,,,SPR24_039,20,F,2024-04-11_15h33.36.727,jersey_experiment_5_v0,2023.2.2,Win32,85.47008547,,,,,,,,,,,,,,,,841.5591,842.6058,842.6059,844.1354,return,0.6697,,82.421875,,,,,,FBP-OG-17.png,0.45,1.2,5,0.25,,,,,,,,,,,,,,,,,,0,4,4,4,1,,,,,,,,,,,,,,,,,,,,,,,
,,,,,SPR24_039,20,F,2024-04-11_15h33.36.727,jersey_experiment_5_v0,2023.2.2,Win32,85.47008547,,,,,,,,,,,,,,,,844.1356,845.4294,845.4294,848.2765,return,0.7868,,53.90625,,,,,,FBP-YG-71.png,0.35,1.2,16,0.5,,,,,,,,,,,,,,,,,,0,5,5,15,1,,,,,,,,,,,,,,,,,,,,,,,
,,,,,SPR24_039,20,F,2024-04-11_15h33.36.727,jersey_experiment_5_v0,2023.2.2,Win32,85.47008547,,,,,,,,,,,,,,,,848.2768,849.5708,849.5708,851.9357,return,0.3939,,54.81770833,,,,,,FBP-PT-71.png,0.37,1.2,47,0.5,,,,,,,,,,,,,,,,,,0,6,6,46,1,,,,,,,,,,,,,,,,,,,,,,,
,,,,,SPR24_039,20,F,2024-04-11_15h33.36.727,jersey_experiment_5_v0,2023.2.2,Win32,85.47008547,,,,,,,,,,,,,,,,851.936,852.9826,852.9827,854.4063,return,0.165,,60.546875,,,,,,FBP-RB-91.png,0.43,1.2,44,0.25,,,,,,,,,,,,,,,,,,0,7,7,43,1,,,,,,,,,,,,,,,,,,,,,,,
,,,,,SPR24_039,20,F,2024-04-11_15h33.36.727,jersey_experiment_5_v0,2023.2.2,Win32,85.47008547,,,,,,,,,,,,,,,,854.4065,855.7005,855.7005,857.7358,return,0.2457,,61.19791667,,,,,,FBP-YG-91.png,0.37,1.2,27,0.5,,,,,,,,,,,,,,,,,,0,8,8,26,1,,,,,,,,,,,,,,,,,,,,,,,
,,,,,SPR24_039,20,F,2024-04-11_15h33.36.727,jersey_experiment_5_v0,2023.2.2,Win32,85.47008547,,,,,,,,,,,,,,,,857.736,858.7829,858.7829,860.2536,return,0.2194,,70.44270833,,,,,,FBP-OG-18.png,0.43,1.2,9,0.25,,,,,,,,,,,,,,,,,,0,9,9,8,1,,,,,,,,,,,,,,,,,,,,,,,
,,,,,SPR24_039,20,F,2024-04-11_15h33.36.727,jersey_experiment_5_v0,2023.2.2,Win32,85.47008547,,,,,,,,,,,,,,,,860.2538,861.5475,861.5476,863.6183,return,1.072,,70.703125,,,,,,FBP-PT-91.png,0.43,1.2,59,0.5,,,,,,,,,,,,,,,,,,0,10,10,58,1,,,,,,,,,,,,,,,,,,,,,,,
,,,,,SPR24_039,20,F,2024-04-11_15h33.36.727,jersey_experiment_5_v0,2023.2.2,Win32,85.47008547,,,,,,,,,,,,,,,,863.6186,864.9124,864.9124,867.4068,return,0.4064,,69.140625,,,,,,FBP-PT-91.png,0.37,1.2,57,0.5,,,,,,,,,,,,,,,,,,0,11,11,56,1,,,,,,,,,,,,,,,,,,,,,,,
,,,,,SPR24_039,20,F,2024-04-11_15h33.36.727,jersey_experiment_5_v0,2023.2.2,Win32,85.47008547,,,,,,,,,,,,,,,,867.407,868.4538,868.4538,870.1126,return,0.0753,,68.61979167,,,,,,FBP-RB-81.png,0.37,1.2,37,0.25,,,,,,,,,,,,,,,,,,0,12,12,36,1,,,,,,,,,,,,,,,,,,,,,,,
,,,,,SPR24_039,20,F,2024-04-11_15h33.36.727,jersey_experiment_5_v0,2023.2.2,Win32,85.47008547,,,,,,,,,,,,,,,,870.1128,871.4069,871.4069,872.7009,return,0.3717,,68.75,,,,,,FBP-PT-81.png,0.4,1.2,53,0.5,,,,,,,,,,,,,,,,,,0,13,13,52,1,,,,,,,,,,,,,,,,,,,,,,,
,,,,,SPR24_039,20,F,2024-04-11_15h33.36.727,jersey_experiment_5_v0,2023.2.2,Win32,85.47008547,,,,,,,,,,,,,,,,872.7011,873.9952,873.9952,877.1246,return,0.5976,,68.75,,,,,,FBP-YG-81.png,0.35,1.2,21,0.5,,,,,,,,,,,,,,,,,,0,14,14,20,1,,,,,,,,,,,,,,,,,,,,,,,
,,,,,SPR24_039,20,F,2024-04-11_15h33.36.727,jersey_experiment_5_v0,2023.2.2,Win32,85.47008547,,,,,,,,,,,,,,,,877.1249,878.1718,878.1719,880.2308,return,0.2684,,52.21354167,,,,,,FBP-OG-19.png,0.35,1.2,11,0.25,,,,,,,,,,,,,,,,,,0,15,15,10,1,,,,,,,,,,,,,,,,,,,,,,,
,,,,,SPR24_039,20,F,2024-04-11_15h33.36.727,jersey_experiment_5_v0,2023.2.2,Win32,85.47008547,,,,,,,,,,,,,,,,880.2311,881.5247,881.5247,883.2308,return,0.1595,,67.44791667,,,,,,FBP-YG-81.png,0.37,1.2,22,0.5,,,,,,,,,,,,,,,,,,0,16,16,21,1,,,,,,,,,,,,,,,,,,,,,,,
,,,,,SPR24_039,20,F,2024-04-11_15h33.36.727,jersey_experiment_5_v0,2023.2.2,Win32,85.47008547,,,,,,,,,,,,,,,,883.231,884.525,884.525,885.8427,return,0.1792,,81.11979167,,,,,,FBP-YG-91.png,0.43,1.2,29,0.5,,,,,,,,,,,,,,,,,,0,17,17,28,1,,,,,,,,,,,,,,,,,,,,,,,
,,,,,SPR24_039,20,F,2024-04-11_15h33.36.727,jersey_experiment_5_v0,2023.2.2,Win32,85.47008547,,,,,,,,,,,,,,,,885.8428,886.8898,886.8898,888.925,return,0.2658,,63.93229167,,,,,,FBP-OG-19.png,0.37,1.2,12,0.25,,,,,,,,,,,,,,,,,,0,18,18,11,1,,,,,,,,,,,,,,,,,,,,,,,
,,,,,SPR24_039,20,F,2024-04-11_15h33.36.727,jersey_experiment_5_v0,2023.2.2,Win32,85.47008547,,,,,,,,,,,,,,,,888.9253,890.2192,890.2193,891.7135,return,0.3101,,56.38020833,,,,,,FBP-YG-71.png,0.37,1.2,17,0.5,,,,,,,,,,,,,,,,,,0,19,19,16,1,,,,,,,,,,,,,,,,,,,,,,,
,,,,,SPR24_039,20,F,2024-04-11_15h33.36.727,jersey_experiment_5_v0,2023.2.2,Win32,85.47008547,,,,,,,,,,,,,,,,891.7136,893.0076,893.0077,894.3018,return,0.206,,87.63020833,,,,,,FBP-PT-71.png,0.45,1.2,50,0.5,,,,,,,,,,,,,,,,,,0,20,20,49,1,,,,,,,,,,,,,,,,,,,,,,,
,,,,,SPR24_039,20,F,2024-04-11_15h33.36.727,jersey_experiment_5_v0,2023.2.2,Win32,85.47008547,,,,,,,,,,,,,,,,894.302,895.3488,895.3488,897.0317,return,0.2361,,88.02083333,,,,,,FBP-RB-71.png,0.43,1.2,34,0.25,,,,,,,,,,,,,,,,,,0,21,21,33,1,,,,,,,,,,,,,,,,,,,,,,,
,,,,,SPR24_039,20,F,2024-04-11_15h33.36.727,jersey_experiment_5_v0,2023.2.2,Win32,85.47008547,,,,,,,,,,,,,,,,897.0319,898.3254,898.3255,899.608,return,0.2581,,87.109375,,,,,,FBP-YG-91.png,0.45,1.2,30,0.5,,,,,,,,,,,,,,,,,,0,22,22,29,1,,,,,,,,,,,,,,,,,,,,,,,
,,,,,SPR24_039,20,F,2024-04-11_15h33.36.727,jersey_experiment_5_v0,2023.2.2,Win32,85.47008547,,,,,,,,,,,,,,,,899.6082,900.902,900.902,902.0316,return,0.1461,,87.5,,,,,,FBP-PT-81.png,0.43,1.2,54,0.5,,,,,,,,,,,,,,,,,,0,23,23,53,1,,,,,,,,,,,,,,,,,,,,,,,
,,,,,SPR24_039,20,F,2024-04-11_15h33.36.727,jersey_experiment_5_v0,2023.2.2,Win32,85.47008547,,,,,,,,,,,,,,,,902.0319,903.3257,903.3257,905.6316,return,0.8985,,68.61979167,,,,,,FBP-PT-91.png,0.35,1.2,56,0.5,,,,,,,,,,,,,,,,,,0,24,24,55,1,,,,,,,,,,,,,,,,,,,,,,,
,,,,,SPR24_039,20,F,2024-04-11_15h33.36.727,jersey_experiment_5_v0,2023.2.2,Win32,85.47008547,,,,,,,,,,,,,,,,905.6317,906.6786,906.6786,911.5494,return,2.9491,,65.10416667,,,,,,FBP-OG-17.png,0.4,1.2,3,0.25,,,,,,,,,,,,,,,,,,0,25,25,2,1,,,,,,,,,,,,,,,,,,,,,,,
,,,,,SPR24_039,20,F,2024-04-11_15h33.36.727,jersey_experiment_5_v0,2023.2.2,Win32,85.47008547,,,,,,,,,,,,,,,,911.5537,912.5966,912.5966,913.8789,return,0.259,,63.28125,,,,,,FBP-OG-17.png,0.37,1.2,2,0.25,,,,,,,,,,,,,,,,,,0,26,26,1,1,,,,,,,,,,,,,,,,,,,,,,,
,,,,,SPR24_039,20,F,2024-04-11_15h33.36.727,jersey_experiment_5_v0,2023.2.2,Win32,85.47008547,,,,,,,,,,,,,,,,913.8791,914.926,914.9261,916.679,return,0.5881,,59.24479167,,,,,,FBP-OG-18.png,0.4,1.2,8,0.25,,,,,,,,,,,,,,,,,,0,27,27,7,1,,,,,,,,,,,,,,,,,,,,,,,
,,,,,SPR24_039,20,F,2024-04-11_15h33.36.727,jersey_experiment_5_v0,2023.2.2,Win32,85.47008547,,,,,,,,,,,,,,,,916.6791,917.7261,917.7261,919.7734,return,0.867,,83.72395833,,,,,,FBP-RB-81.png,0.45,1.2,40,0.25,,,,,,,,,,,,,,,,,,0,28,28,39,1,,,,,,,,,,,,,,,,,,,,,,,
,,,,,SPR24_039,20,F,2024-04-11_15h33.36.727,jersey_experiment_5_v0,2023.2.2,Win32,85.47008547,,,,,,,,,,,,,,,,919.7736,920.8203,920.8204,923.6204,return,1.234,,84.89583333,,,,,,FBP-RB-91.png,0.4,1.2,43,0.25,,,,,,,,,,,,,,,,,,0,29,29,42,1,,,,,,,,,,,,,,,,,,,,,,,
,,,,,SPR24_039,20,F,2024-04-11_15h33.36.727,jersey_experiment_5_v0,2023.2.2,Win32,85.47008547,,,,,,,,,,,,,,,,923.6206,924.9146,924.9146,926.0324,return,0.2049,,84.24479167,,,,,,FBP-YG-81.png,0.45,1.2,25,0.5,,,,,,,,,,,,,,,,,,0,30,30,24,1,,,,,,,,,,,,,,,,,,,,,,,
,,,,,SPR24_039,20,F,2024-04-11_15h33.36.727,jersey_experiment_5_v0,2023.2.2,Win32,85.47008547,,,,,,,,,,,,,,,,926.0326,927.0793,927.0793,928.6206,return,0.2182,,83.85416667,,,,,,FBP-OG-18.png,0.45,1.2,10,0.25,,,,,,,,,,,,,,,,,,0,31,31,9,1,,,,,,,,,,,,,,,,,,,,,,,
,,,,,SPR24_039,20,F,2024-04-11_15h33.36.727,jersey_experiment_5_v0,2023.2.2,Win32,85.47008547,,,,,,,,,,,,,,,,928.6208,929.9148,929.9148,930.868,return,0.2601,,87.76041667,,,,,,FBP-PT-91.png,0.45,1.2,60,0.5,,,,,,,,,,,,,,,,,,0,32,32,59,1,,,,,,,,,,,,,,,,,,,,,,,
,,,,,SPR24_039,20,F,2024-04-11_15h33.36.727,jersey_experiment_5_v0,2023.2.2,Win32,85.47008547,,,,,,,,,,,,,,,,930.868,931.9149,931.9149,934.5507,return,0.2018,,53.90625,,,,,,FBP-OG-19.png,0.4,1.2,13,0.25,,,,,,,,,,,,,,,,,,0,33,33,12,1,,,,,,,,,,,,,,,,,,,,,,,
,,,,,SPR24_039,20,F,2024-04-11_15h33.36.727,jersey_experiment_5_v0,2023.2.2,Win32,85.47008547,,,,,,,,,,,,,,,,934.5509,935.8445,935.8445,937.3621,return,0.249,,81.38020833,,,,,,FBP-PT-81.png,0.45,1.2,55,0.5,,,,,,,,,,,,,,,,,,0,34,34,54,1,,,,,,,,,,,,,,,,,,,,,,,
,,,,,SPR24_039,20,F,2024-04-11_15h33.36.727,jersey_experiment_5_v0,2023.2.2,Win32,85.47008547,,,,,,,,,,,,,,,,937.3622,938.6563,938.6563,942.174,return,1.5249,,51.953125,,,,,,FBP-YG-91.png,0.35,1.2,26,0.5,,,,,,,,,,,,,,,,,,0,35,35,25,1,,,,,,,,,,,,,,,,,,,,,,,
,,,,,SPR24_039,20,F,2024-04-11_15h33.36.727,jersey_experiment_5_v0,2023.2.2,Win32,85.47008547,,,,,,,,,,,,,,,,942.1742,943.2211,943.2212,944.8212,return,0.1411,,45.57291667,,,,,,FBP-OG-17.png,0.35,1.2,1,0.25,,,,,,,,,,,,,,,,,,0,36,36,0,1,,,,,,,,,,,,,,,,,,,,,,,
,,,,,SPR24_039,20,F,2024-04-11_15h33.36.727,jersey_experiment_5_v0,2023.2.2,Win32,85.47008547,,,,,,,,,,,,,,,,944.8213,945.8683,945.8683,947.7507,return,0.1413,,50.52083333,,,,,,FBP-RB-91.png,0.35,1.2,41,0.25,,,,,,,,,,,,,,,,,,0,37,37,40,1,,,,,,,,,,,,,,,,,,,,,,,
,,,,,SPR24_039,20,F,2024-04-11_15h33.36.727,jersey_experiment_5_v0,2023.2.2,Win32,85.47008547,,,,,,,,,,,,,,,,947.7508,948.7979,948.7979,950.5626,return,0.4965,,58.72395833,,,,,,FBP-RB-81.png,0.4,1.2,38,0.25,,,,,,,,,,,,,,,,,,0,38,38,37,1,,,,,,,,,,,,,,,,,,,,,,,
,,,,,SPR24_039,20,F,2024-04-11_15h33.36.727,jersey_experiment_5_v0,2023.2.2,Win32,85.47008547,,,,,,,,,,,,,,,,950.5627,951.6096,951.6097,953.2804,return,0.7566,,63.41145833,,,,,,FBP-RB-81.png,0.43,1.2,39,0.25,,,,,,,,,,,,,,,,,,0,39,39,38,1,,,,,,,,,,,,,,,,,,,,,,,
,,,,,SPR24_039,20,F,2024-04-11_15h33.36.727,jersey_experiment_5_v0,2023.2.2,Win32,85.47008547,,,,,,,,,,,,,,,,953.2806,954.3274,954.3274,955.5865,return,0.203,,84.375,,,,,,FBP-RB-71.png,0.45,1.2,35,0.25,,,,,,,,,,,,,,,,,,0,40,40,34,1,,,,,,,,,,,,,,,,,,,,,,,
,,,,,SPR24_039,20,F,2024-04-11_15h33.36.727,jersey_experiment_5_v0,2023.2.2,Win32,85.47008547,,,,,,,,,,,,,,,,955.5868,956.8804,956.8804,957.8686,return,0.2554,,84.63541667,,,,,,FBP-YG-71.png,0.45,1.2,20,0.5,,,,,,,,,,,,,,,,,,0,41,41,19,1,,,,,,,,,,,,,,,,,,,,,,,
,,,,,SPR24_039,20,F,2024-04-11_15h33.36.727,jersey_experiment_5_v0,2023.2.2,Win32,85.47008547,,,,,,,,,,,,,,,,957.8688,958.9159,958.9159,960.3393,return,0.1544,,65.88541667,,,,,,FBP-RB-91.png,0.37,1.2,42,0.25,,,,,,,,,,,,,,,,,,0,42,42,41,1,,,,,,,,,,,,,,,,,,,,,,,
,,,,,SPR24_039,20,F,2024-04-11_15h33.36.727,jersey_experiment_5_v0,2023.2.2,Win32,85.47008547,,,,,,,,,,,,,,,,960.3395,961.3864,961.3864,963.1512,return,0.44,,70.18229167,,,,,,FBP-OG-17.png,0.43,1.2,4,0.25,,,,,,,,,,,,,,,,,,0,43,43,3,1,,,,,,,,,,,,,,,,,,,,,,,
,,,,,SPR24_039,20,F,2024-04-11_15h33.36.727,jersey_experiment_5_v0,2023.2.2,Win32,85.47008547,,,,,,,,,,,,,,,,963.1516,964.1984,964.1984,966.7749,return,0.2355,,68.61979167,,,,,,FBP-RB-81.png,0.35,1.2,36,0.25,,,,,,,,,,,,,,,,,,0,44,44,35,1,,,,,,,,,,,,,,,,,,,,,,,
,,,,,SPR24_039,20,F,2024-04-11_15h33.36.727,jersey_experiment_5_v0,2023.2.2,Win32,85.47008547,,,,,,,,,,,,,,,,966.7752,967.822,967.8221,969.4691,return,0.3825,,55.46875,,,,,,FBP-OG-18.png,0.37,1.2,7,0.25,,,,,,,,,,,,,,,,,,0,45,45,6,1,,,,,,,,,,,,,,,,,,,,,,,
,,,,,SPR24_039,20,F,2024-04-11_15h33.36.727,jersey_experiment_5_v0,2023.2.2,Win32,85.47008547,,,,,,,,,,,,,,,,969.4692,970.7634,970.7635,973.1869,return,1.1531,,72.78645833,,,,,,FBP-PT-91.png,0.4,1.2,58,0.5,,,,,,,,,,,,,,,,,,0,46,46,57,1,,,,,,,,,,,,,,,,,,,,,,,
,,,,,SPR24_039,20,F,2024-04-11_15h33.36.727,jersey_experiment_5_v0,2023.2.2,Win32,85.47008547,,,,,,,,,,,,,,,,973.1871,974.4811,974.4811,975.7988,return,0.1874,,62.890625,,,,,,FBP-PT-71.png,0.35,1.2,46,0.5,,,,,,,,,,,,,,,,,,0,47,47,45,1,,,,,,,,,,,,,,,,,,,,,,,
,,,,,SPR24_039,20,F,2024-04-11_15h33.36.727,jersey_experiment_5_v0,2023.2.2,Win32,85.47008547,,,,,,,,,,,,,,,,975.7989,977.0931,977.0932,978.693,return,0.6484,,56.25,,,,,,FBP-PT-81.png,0.35,1.2,51,0.5,,,,,,,,,,,,,,,,,,0,48,48,50,1,,,,,,,,,,,,,,,,,,,,,,,
,,,,,SPR24_039,20,F,2024-04-11_15h33.36.727,jersey_experiment_5_v0,2023.2.2,Win32,85.47008547,,,,,,,,,,,,,,,,978.6933,979.7401,979.7401,981.5521,return,0.3815,,93.61979167,,,,,,FBP-OG-19.png,0.45,1.2,15,0.25,,,,,,,,,,,,,,,,,,0,49,49,14,1,,,,,,,,,,,,,,,,,,,,,,,
,,,,,SPR24_039,20,F,2024-04-11_15h33.36.727,jersey_experiment_5_v0,2023.2.2,Win32,85.47008547,,,,,,,,,,,,,,,,981.5523,982.846,982.846,984.4697,return,0.1411,,92.44791667,,,,,,FBP-YG-81.png,0.43,1.2,24,0.5,,,,,,,,,,,,,,,,,,0,50,50,23,1,,,,,,,,,,,,,,,,,,,,,,,
,,,,,SPR24_039,20,F,2024-04-11_15h33.36.727,jersey_experiment_5_v0,2023.2.2,Win32,85.47008547,,,,,,,,,,,,,,,,984.4698,985.7637,985.7637,987.47,return,0.2886,,66.27604167,,,,,,FBP-YG-71.png,0.4,1.2,18,0.5,,,,,,,,,,,,,,,,,,0,51,51,17,1,,,,,,,,,,,,,,,,,,,,,,,
,,,,,SPR24_039,20,F,2024-04-11_15h33.36.727,jersey_experiment_5_v0,2023.2.2,Win32,85.47008547,,,,,,,,,,,,,,,,987.4702,988.7639,988.7639,990.2112,return,0.3184,,71.484375,,,,,,FBP-PT-71.png,0.4,1.2,48,0.5,,,,,,,,,,,,,,,,,,0,52,52,47,1,,,,,,,,,,,,,,,,,,,,,,,
,,,,,SPR24_039,20,F,2024-04-11_15h33.36.727,jersey_experiment_5_v0,2023.2.2,Win32,85.47008547,,,,,,,,,,,,,,,,990.2115,991.2582,991.2582,992.9993,return,0.2015,,73.30729167,,,,,,FBP-RB-71.png,0.37,1.2,32,0.25,,,,,,,,,,,,,,,,,,0,53,53,31,1,,,,,,,,,,,,,,,,,,,,,,,
,,,,,SPR24_039,20,F,2024-04-11_15h33.36.727,jersey_experiment_5_v0,2023.2.2,Win32,85.47008547,,,,,,,,,,,,,,,,992.9996,994.0464,994.0465,995.5409,return,0.3898,,71.61458333,,,,,,FBP-RB-71.png,0.4,1.2,33,0.25,,,,,,,,,,,,,,,,,,0,54,54,32,1,,,,,,,,,,,,,,,,,,,,,,,
,,,,,SPR24_039,20,F,2024-04-11_15h33.36.727,jersey_experiment_5_v0,2023.2.2,Win32,85.47008547,,,,,,,,,,,,,,,,995.5411,996.8349,996.8349,997.9056,return,0.2026,,79.16666667,,,,,,FBP-YG-71.png,0.43,1.2,19,0.5,,,,,,,,,,,,,,,,,,0,55,55,18,1,,,,,,,,,,,,,,,,,,,,,,,
,,,,,SPR24_039,20,F,2024-04-11_15h33.36.727,jersey_experiment_5_v0,2023.2.2,Win32,85.47008547,,,,,,,,,,,,,,,,997.9057,998.9525,998.9525,1001.3409,return,0.573,,54.42708333,,,,,,FBP-RB-71.png,0.35,1.2,31,0.25,,,,,,,,,,,,,,,,,,0,56,56,30,1,,,,,,,,,,,,,,,,,,,,,,,
,,,,,SPR24_039,20,F,2024-04-11_15h33.36.727,jersey_experiment_5_v0,2023.2.2,Win32,85.47008547,,,,,,,,,,,,,,,,1001.341,1002.635,1002.635,1003.9526,return,0.3675,,60.41666667,,,,,,FBP-YG-81.png,0.4,1.2,23,0.5,,,,,,,,,,,,,,,,,,0,57,57,22,1,,,,,,,,,,,,,,,,,,,,,,,
,,,,,SPR24_039,20,F,2024-04-11_15h33.36.727,jersey_experiment_5_v0,2023.2.2,Win32,85.47008547,,,,,,,,,,,,,,,,1003.9528,1005.2468,1005.2468,1006.6704,return,0.4291,,82.8125,,,,,,FBP-PT-71.png,0.43,1.2,49,0.5,,,,,,,,,,,,,,,,,,0,58,58,48,1,,,,,,,,,,,,,,,,,,,,,,,
,,,,,SPR24_039,20,F,2024-04-11_15h33.36.727,jersey_experiment_5_v0,2023.2.2,Win32,85.47008547,,,,,,,,,,,,,,,,1006.6707,1007.7175,1007.7175,1010.7413,return,1.39,,52.60416667,,,,,,FBP-OG-18.png,0.35,1.2,6,0.25,,,,,,,,,,,,,,,,,,0,59,59,5,1,,,,,,,,,,,,,,,,,,,,,,,
,,,,,SPR24_039,20,F,2024-04-11_15h33.36.727,jersey_experiment_5_v0,2023.2.2,Win32,85.47008547,,,,,,,,,,,,,,,,,,,,,,,,,,,,,,,,,,,,,,,,,,,,,,,,,,,,,,,,1010.7417,1014.271,return,3.523,,,,,,,,,,,,,,,,,,,
,,,,,SPR24_039,20,F,2024-04-11_15h33.36.727,jersey_experiment_5_v0,2023.2.2,Win32,85.47008547,,,,,,,,,,,,,,,,,,,,,,,,,,,,,,,,,,,,,,,,,,,,,,,,,,,,,,,,,,,,,1014.2711,1018.471,1,2.4647,return,1.7175,,,,,,,,,,,,
,,,,,SPR24_039,20,F,2024-04-11_15h33.36.727,jersey_experiment_5_v0,2023.2.2,Win32,85.47008547,,,,,,,,,,,,,,,,,,,,,,,,,,,,,,,,,,,,,,,,,,,,,,,,,,,,,,,,,,,,,,,,,,,,1018.471,1047.4656,"no, felt a bit like body size and numbers repeated but otherwise no patterns",right,21.1538,,,,,,
,,,,,SPR24_039,20,F,2024-04-11_15h33.36.727,jersey_experiment_5_v0,2023.2.2,Win32,85.47008547,,,,,,,,,,,,,,,,,,,,,,,,,,,,,,,,,,,,,,,,,,,,,,,,,,,,,,,,,,,,,,,,,,,,,,,,,,1047.4657,1049.2602,return,1.7911,