requirements.started,requirements.stopped,key_resp_3.keys,key_resp_3.rt,key_resp_3.duration,Subject ID,Age,Gender,date,expName,psychopyVersion,OS,frameRate,instructions1.started,instructions1.stopped,key_resp.keys,key_resp.rt,key_resp.duration,example.started,example.stopped,enter_2.keys,enter_2.rt,enter_2.duration,instructions2.started,instructions2.stopped,enter_3.keys,enter_3.rt,enter_3.duration,image.started,image.stopped,slider_2.started,slider_2.stopped,next.keys,next.rt,next.duration,slider.response,trial_block_1.thisRepN,trial_block_1.thisTrialN,trial_block_1.thisN,trial_block_1.thisIndex,trial_block_1.ran,Path,Width,Height,Index,Duration,trial_block_2.thisRepN,trial_block_2.thisTrialN,trial_block_2.thisN,trial_block_2.thisIndex,trial_block_2.ran,rest_break.started,rest_break.stopped,end_break.started,end_break.stopped,key_resp_5.keys,key_resp_5.rt,key_resp_5.duration,trial_block_3.thisRepN,trial_block_3.thisTrialN,trial_block_3.thisN,trial_block_3.thisIndex,trial_block_3.ran,trial_block_4.thisRepN,trial_block_4.thisTrialN,trial_block_4.thisN,trial_block_4.thisIndex,trial_block_4.ran,questions_intro.started,questions_intro.stopped,enter_12.keys,enter_12.rt,enter_12.duration,question2.started,question2.stopped,question_doingbest.response,question_doingbest.rt,enter_15.keys,enter_15.rt,enter_15.duration,pattern.started,pattern.stopped,pattern_2.text,enter_17.keys,enter_17.rt,enter_17.duration,thankyou.started,thankyou.stopped,enter_14.keys,enter_14.rt,enter_14.duration
1E-04,12.7681,return,12.7601,,SPR24_052,19,Male,2024-04-16_15h10.57.408,jersey_experiment_5_v0,2023.2.2,Win32,85.47008547,,,,,,,,,,,,,,,,,,,,,,,,,,,,,,,,,,,,,,,,,,,,,,,,,,,,,,,,,,,,,,,,,,,,,,,,,,,,,,
,,,,,SPR24_052,19,Male,2024-04-16_15h10.57.408,jersey_experiment_5_v0,2023.2.2,Win32,85.47008547,12.7683,19.2184,return,6.4344,,,,,,,,,,,,,,,,,,,,,,,,,,,,,,,,,,,,,,,,,,,,,,,,,,,,,,,,,,,,,,,,,,,,,,,,,,
,,,,,SPR24_052,19,Male,2024-04-16_15h10.57.408,jersey_experiment_5_v0,2023.2.2,Win32,85.47008547,,,,,,19.2184,23.1845,return,3.9353,,,,,,,,,,,,,,,,,,,,,,,,,,,,,,,,,,,,,,,,,,,,,,,,,,,,,,,,,,,,,,,,,,,,,
,,,,,SPR24_052,19,Male,2024-04-16_15h10.57.408,jersey_experiment_5_v0,2023.2.2,Win32,85.47008547,,,,,,,,,,,23.1845,37.4749,return,14.2725,,,,,,,,,,,,,,,,,,,,,,,,,,,,,,,,,,,,,,,,,,,,,,,,,,,,,,,,,,,,,,,,
,,,,,SPR24_052,19,Male,2024-04-16_15h10.57.408,jersey_experiment_5_v0,2023.2.2,Win32,85.47008547,,,,,,,,,,,,,,,,37.4818,38.7806,38.7807,53.6757,return,10.9252,,67.1875,0,0,0,14,1,FBP-OG-91.png,0.45,1.2,15,0.5,,,,,,,,,,,,,,,,,,,,,,,,,,,,,,,,,,,,,,,,,,,,,
,,,,,SPR24_052,19,Male,2024-04-16_15h10.57.408,jersey_experiment_5_v0,2023.2.2,Win32,85.47008547,,,,,,,,,,,,,,,,53.6759,54.9691,54.9693,58.2753,return,0.9648,,62.36979167,0,1,1,13,1,FBP-OG-91.png,0.43,1.2,14,0.5,,,,,,,,,,,,,,,,,,,,,,,,,,,,,,,,,,,,,,,,,,,,,
,,,,,SPR24_052,19,Male,2024-04-16_15h10.57.408,jersey_experiment_5_v0,2023.2.2,Win32,85.47008547,,,,,,,,,,,,,,,,58.2755,59.5695,59.5697,65.4521,return,3.2186,,63.671875,0,2,2,31,1,FBP-RB-17.png,0.37,1.2,32,0.5,,,,,,,,,,,,,,,,,,,,,,,,,,,,,,,,,,,,,,,,,,,,,
,,,,,SPR24_052,19,Male,2024-04-16_15h10.57.408,jersey_experiment_5_v0,2023.2.2,Win32,85.47008547,,,,,,,,,,,,,,,,65.4523,66.499,66.4991,76.3819,return,6.8288,,37.76041667,0,3,3,20,1,FBP-YG-18.png,0.35,1.2,21,0.25,,,,,,,,,,,,,,,,,,,,,,,,,,,,,,,,,,,,,,,,,,,,,
,,,,,SPR24_052,19,Male,2024-04-16_15h10.57.408,jersey_experiment_5_v0,2023.2.2,Win32,85.47008547,,,,,,,,,,,,,,,,76.3822,77.4289,77.429,82.0526,return,1.2944,,83.33333333,0,4,4,54,1,FBP-PT-18.png,0.45,1.2,55,0.25,,,,,,,,,,,,,,,,,,,,,,,,,,,,,,,,,,,,,,,,,,,,,
,,,,,SPR24_052,19,Male,2024-04-16_15h10.57.408,jersey_experiment_5_v0,2023.2.2,Win32,85.47008547,,,,,,,,,,,,,,,,82.0528,83.0998,83.0998,87.3588,return,2.0021,,87.23958333,0,5,5,49,1,FBP-PT-17.png,0.45,1.2,50,0.25,,,,,,,,,,,,,,,,,,,,,,,,,,,,,,,,,,,,,,,,,,,,,
,,,,,SPR24_052,19,Male,2024-04-16_15h10.57.408,jersey_experiment_5_v0,2023.2.2,Win32,85.47008547,,,,,,,,,,,,,,,,87.359,88.4058,88.4058,93.1826,return,1.8015,,80.859375,0,6,6,27,1,FBP-YG-19.png,0.4,1.2,28,0.25,,,,,,,,,,,,,,,,,,,,,,,,,,,,,,,,,,,,,,,,,,,,,
,,,,,SPR24_052,19,Male,2024-04-16_15h10.57.408,jersey_experiment_5_v0,2023.2.2,Win32,85.47008547,,,,,,,,,,,,,,,,93.1827,94.4766,94.4767,102.2769,return,3.9202,,67.70833333,0,7,7,2,1,FBP-OG-71.png,0.4,1.2,3,0.5,,,,,,,,,,,,,,,,,,,,,,,,,,,,,,,,,,,,,,,,,,,,,
,,,,,SPR24_052,19,Male,2024-04-16_15h10.57.408,jersey_experiment_5_v0,2023.2.2,Win32,85.47008547,,,,,,,,,,,,,,,,102.277,103.5712,103.5712,111.4069,return,1.6958,,58.984375,0,8,8,41,1,FBP-RB-19.png,0.37,1.2,42,0.5,,,,,,,,,,,,,,,,,,,,,,,,,,,,,,,,,,,,,,,,,,,,,
,,,,,SPR24_052,19,Male,2024-04-16_15h10.57.408,jersey_experiment_5_v0,2023.2.2,Win32,85.47008547,,,,,,,,,,,,,,,,111.4072,112.7008,112.7008,118.6894,return,2.5291,,63.54166667,0,9,9,37,1,FBP-RB-18.png,0.4,1.2,38,0.5,,,,,,,,,,,,,,,,,,,,,,,,,,,,,,,,,,,,,,,,,,,,,
,,,,,SPR24_052,19,Male,2024-04-16_15h10.57.408,jersey_experiment_5_v0,2023.2.2,Win32,85.47008547,,,,,,,,,,,,,,,,118.6896,119.7363,119.7363,123.0658,return,1.1383,,74.609375,0,10,10,22,1,FBP-YG-18.png,0.4,1.2,23,0.25,,,,,,,,,,,,,,,,,,,,,,,,,,,,,,,,,,,,,,,,,,,,,
,,,,,SPR24_052,19,Male,2024-04-16_15h10.57.408,jersey_experiment_5_v0,2023.2.2,Win32,85.47008547,,,,,,,,,,,,,,,,123.066,124.3601,124.3601,126.9954,return,1.1059,,69.79166667,0,11,11,12,1,FBP-OG-91.png,0.4,1.2,13,0.5,,,,,,,,,,,,,,,,,,,,,,,,,,,,,,,,,,,,,,,,,,,,,
,,,,,SPR24_052,19,Male,2024-04-16_15h10.57.408,jersey_experiment_5_v0,2023.2.2,Win32,85.47008547,,,,,,,,,,,,,,,,126.9956,128.0426,128.0426,133.8546,return,2.6745,,35.02604167,0,12,12,25,1,FBP-YG-19.png,0.35,1.2,26,0.25,,,,,,,,,,,,,,,,,,,,,,,,,,,,,,,,,,,,,,,,,,,,,
,,,,,SPR24_052,19,Male,2024-04-16_15h10.57.408,jersey_experiment_5_v0,2023.2.2,Win32,85.47008547,,,,,,,,,,,,,,,,133.8548,134.9016,134.9017,138.09,return,1.6205,,91.40625,0,13,13,24,1,FBP-YG-18.png,0.45,1.2,25,0.25,,,,,,,,,,,,,,,,,,,,,,,,,,,,,,,,,,,,,,,,,,,,,
,,,,,SPR24_052,19,Male,2024-04-16_15h10.57.408,jersey_experiment_5_v0,2023.2.2,Win32,85.47008547,,,,,,,,,,,,,,,,138.0901,139.1369,139.1369,143.6431,return,2.3724,,41.27604167,0,14,14,46,1,FBP-PT-17.png,0.37,1.2,47,0.25,,,,,,,,,,,,,,,,,,,,,,,,,,,,,,,,,,,,,,,,,,,,,
,,,,,SPR24_052,19,Male,2024-04-16_15h10.57.408,jersey_experiment_5_v0,2023.2.2,Win32,85.47008547,,,,,,,,,,,,,,,,143.6433,144.9376,144.9376,147.4667,return,1.2646,,25.13020833,0,15,15,0,1,FBP-OG-71.png,0.35,1.2,1,0.5,,,,,,,,,,,,,,,,,,,,,,,,,,,,,,,,,,,,,,,,,,,,,
,,,,,SPR24_052,19,Male,2024-04-16_15h10.57.408,jersey_experiment_5_v0,2023.2.2,Win32,85.47008547,,,,,,,,,,,,,,,,147.4668,148.514,148.514,154.0789,return,2.8982,,27.21354167,0,16,16,17,1,FBP-YG-17.png,0.4,1.2,18,0.25,,,,,,,,,,,,,,,,,,,,,,,,,,,,,,,,,,,,,,,,,,,,,
,,,,,SPR24_052,19,Male,2024-04-16_15h10.57.408,jersey_experiment_5_v0,2023.2.2,Win32,85.47008547,,,,,,,,,,,,,,,,154.0791,155.126,155.1261,158.9967,return,1.8353,,78.90625,0,17,17,48,1,FBP-PT-17.png,0.43,1.2,49,0.25,,,,,,,,,,,,,,,,,,,,,,,,,,,,,,,,,,,,,,,,,,,,,
,,,,,SPR24_052,19,Male,2024-04-16_15h10.57.408,jersey_experiment_5_v0,2023.2.2,Win32,85.47008547,,,,,,,,,,,,,,,,158.9969,160.0438,160.0439,163.691,return,1.088,,56.51041667,0,18,18,57,1,FBP-PT-19.png,0.4,1.2,58,0.25,,,,,,,,,,,,,,,,,,,,,,,,,,,,,,,,,,,,,,,,,,,,,
,,,,,SPR24_052,19,Male,2024-04-16_15h10.57.408,jersey_experiment_5_v0,2023.2.2,Win32,85.47008547,,,,,,,,,,,,,,,,163.6913,164.738,164.738,170.2911,return,3.8122,,50.91145833,0,19,19,47,1,FBP-PT-17.png,0.4,1.2,48,0.25,,,,,,,,,,,,,,,,,,,,,,,,,,,,,,,,,,,,,,,,,,,,,
,,,,,SPR24_052,19,Male,2024-04-16_15h10.57.408,jersey_experiment_5_v0,2023.2.2,Win32,85.47008547,,,,,,,,,,,,,,,,170.2914,171.5853,171.5853,174.4795,return,1.4386,,39.19270833,0,20,20,36,1,FBP-RB-18.png,0.37,1.2,37,0.5,,,,,,,,,,,,,,,,,,,,,,,,,,,,,,,,,,,,,,,,,,,,,
,,,,,SPR24_052,19,Male,2024-04-16_15h10.57.408,jersey_experiment_5_v0,2023.2.2,Win32,85.47008547,,,,,,,,,,,,,,,,174.4797,175.7736,175.7737,180.2445,return,2.4331,,78.515625,0,21,21,3,1,FBP-OG-71.png,0.43,1.2,4,0.5,,,,,,,,,,,,,,,,,,,,,,,,,,,,,,,,,,,,,,,,,,,,,
,,,,,SPR24_052,19,Male,2024-04-16_15h10.57.408,jersey_experiment_5_v0,2023.2.2,Win32,85.47008547,,,,,,,,,,,,,,,,180.2446,181.5387,181.5387,183.7857,return,1.0656,,84.11458333,0,22,22,8,1,FBP-OG-81.png,0.43,1.2,9,0.5,,,,,,,,,,,,,,,,,,,,,,,,,,,,,,,,,,,,,,,,,,,,,
,,,,,SPR24_052,19,Male,2024-04-16_15h10.57.408,jersey_experiment_5_v0,2023.2.2,Win32,85.47008547,,,,,,,,,,,,,,,,183.786,185.08,185.0801,187.5037,return,1.0266,,38.28125,0,23,23,1,1,FBP-OG-71.png,0.37,1.2,2,0.5,,,,,,,,,,,,,,,,,,,,,,,,,,,,,,,,,,,,,,,,,,,,,
,,,,,SPR24_052,19,Male,2024-04-16_15h10.57.408,jersey_experiment_5_v0,2023.2.2,Win32,85.47008547,,,,,,,,,,,,,,,,187.5039,188.7978,188.7979,197.0922,return,5.0923,,69.40104167,0,24,24,43,1,FBP-RB-19.png,0.43,1.2,44,0.5,,,,,,,,,,,,,,,,,,,,,,,,,,,,,,,,,,,,,,,,,,,,,
,,,,,SPR24_052,19,Male,2024-04-16_15h10.57.408,jersey_experiment_5_v0,2023.2.2,Win32,85.47008547,,,,,,,,,,,,,,,,197.0924,198.1393,198.1393,202.1395,return,3.2191,,83.33333333,0,25,25,28,1,FBP-YG-19.png,0.43,1.2,29,0.25,,,,,,,,,,,,,,,,,,,,,,,,,,,,,,,,,,,,,,,,,,,,,
,,,,,SPR24_052,19,Male,2024-04-16_15h10.57.408,jersey_experiment_5_v0,2023.2.2,Win32,85.47008547,,,,,,,,,,,,,,,,202.1397,203.4336,203.4336,207.8573,return,3.2381,,98.95833333,0,26,26,34,1,FBP-RB-17.png,0.45,1.2,35,0.5,,,,,,,,,,,,,,,,,,,,,,,,,,,,,,,,,,,,,,,,,,,,,
,,,,,SPR24_052,19,Male,2024-04-16_15h10.57.408,jersey_experiment_5_v0,2023.2.2,Win32,85.47008547,,,,,,,,,,,,,,,,207.8575,209.1515,209.1515,211.2572,return,0.8195,,99.86979167,0,27,27,39,1,FBP-RB-18.png,0.45,1.2,40,0.5,,,,,,,,,,,,,,,,,,,,,,,,,,,,,,,,,,,,,,,,,,,,,
,,,,,SPR24_052,19,Male,2024-04-16_15h10.57.408,jersey_experiment_5_v0,2023.2.2,Win32,85.47008547,,,,,,,,,,,,,,,,211.2575,212.5515,212.5515,216.0457,return,2.2523,,94.79166667,0,28,28,44,1,FBP-RB-19.png,0.45,1.2,45,0.5,,,,,,,,,,,,,,,,,,,,,,,,,,,,,,,,,,,,,,,,,,,,,
,,,,,SPR24_052,19,Male,2024-04-16_15h10.57.408,jersey_experiment_5_v0,2023.2.2,Win32,85.47008547,,,,,,,,,,,,,,,,216.0459,217.0927,217.0927,220.0107,return,0.9111,,16.66666667,0,29,29,50,1,FBP-PT-18.png,0.35,1.2,51,0.25,,,,,,,,,,,,,,,,,,,,,,,,,,,,,,,,,,,,,,,,,,,,,
,,,,,SPR24_052,19,Male,2024-04-16_15h10.57.408,jersey_experiment_5_v0,2023.2.2,Win32,85.47008547,,,,,,,,,,,,,,,,220.0109,221.058,221.0581,223.6578,return,1.1855,,57.94270833,0,30,30,58,1,FBP-PT-19.png,0.43,1.2,59,0.25,,,,,,,,,,,,,,,,,,,,,,,,,,,,,,,,,,,,,,,,,,,,,
,,,,,SPR24_052,19,Male,2024-04-16_15h10.57.408,jersey_experiment_5_v0,2023.2.2,Win32,85.47008547,,,,,,,,,,,,,,,,223.6579,224.705,224.705,228.1639,return,0.7673,,20.57291667,0,31,31,26,1,FBP-YG-19.png,0.37,1.2,27,0.25,,,,,,,,,,,,,,,,,,,,,,,,,,,,,,,,,,,,,,,,,,,,,
,,,,,SPR24_052,19,Male,2024-04-16_15h10.57.408,jersey_experiment_5_v0,2023.2.2,Win32,85.47008547,,,,,,,,,,,,,,,,228.1641,229.4581,229.4582,234.6699,return,3.9907,,46.09375,0,32,32,32,1,FBP-RB-17.png,0.4,1.2,33,0.5,,,,,,,,,,,,,,,,,,,,,,,,,,,,,,,,,,,,,,,,,,,,,
,,,,,SPR24_052,19,Male,2024-04-16_15h10.57.408,jersey_experiment_5_v0,2023.2.2,Win32,85.47008547,,,,,,,,,,,,,,,,234.6701,235.7171,235.7172,241.5057,return,4.2116,,25,0,33,33,55,1,FBP-PT-19.png,0.35,1.2,56,0.25,,,,,,,,,,,,,,,,,,,,,,,,,,,,,,,,,,,,,,,,,,,,,
,,,,,SPR24_052,19,Male,2024-04-16_15h10.57.408,jersey_experiment_5_v0,2023.2.2,Win32,85.47008547,,,,,,,,,,,,,,,,241.5059,242.7997,242.7998,245.8116,return,0.7671,,19.27083333,0,34,34,6,1,FBP-OG-81.png,0.37,1.2,7,0.5,,,,,,,,,,,,,,,,,,,,,,,,,,,,,,,,,,,,,,,,,,,,,
,,,,,SPR24_052,19,Male,2024-04-16_15h10.57.408,jersey_experiment_5_v0,2023.2.2,Win32,85.47008547,,,,,,,,,,,,,,,,245.8119,246.8586,246.8586,248.8,return,0.8472,,16.14583333,0,35,35,15,1,FBP-YG-17.png,0.35,1.2,16,0.25,,,,,,,,,,,,,,,,,,,,,,,,,,,,,,,,,,,,,,,,,,,,,
,,,,,SPR24_052,19,Male,2024-04-16_15h10.57.408,jersey_experiment_5_v0,2023.2.2,Win32,85.47008547,,,,,,,,,,,,,,,,248.8002,249.847,249.847,252.0589,return,0.7469,,30.20833333,0,36,36,52,1,FBP-PT-18.png,0.4,1.2,53,0.25,,,,,,,,,,,,,,,,,,,,,,,,,,,,,,,,,,,,,,,,,,,,,
,,,,,SPR24_052,19,Male,2024-04-16_15h10.57.408,jersey_experiment_5_v0,2023.2.2,Win32,85.47008547,,,,,,,,,,,,,,,,252.059,253.106,253.106,257.2827,return,2.8945,,19.79166667,0,37,37,45,1,FBP-PT-17.png,0.35,1.2,46,0.25,,,,,,,,,,,,,,,,,,,,,,,,,,,,,,,,,,,,,,,,,,,,,
,,,,,SPR24_052,19,Male,2024-04-16_15h10.57.408,jersey_experiment_5_v0,2023.2.2,Win32,85.47008547,,,,,,,,,,,,,,,,257.2829,258.3298,258.3299,261.071,return,0.8832,,93.09895833,0,38,38,23,1,FBP-YG-18.png,0.43,1.2,24,0.25,,,,,,,,,,,,,,,,,,,,,,,,,,,,,,,,,,,,,,,,,,,,,
,,,,,SPR24_052,19,Male,2024-04-16_15h10.57.408,jersey_experiment_5_v0,2023.2.2,Win32,85.47008547,,,,,,,,,,,,,,,,261.0714,262.3651,262.3652,264.6712,return,0.8037,,32.29166667,0,39,39,30,1,FBP-RB-17.png,0.35,1.2,31,0.5,,,,,,,,,,,,,,,,,,,,,,,,,,,,,,,,,,,,,,,,,,,,,
,,,,,SPR24_052,19,Male,2024-04-16_15h10.57.408,jersey_experiment_5_v0,2023.2.2,Win32,85.47008547,,,,,,,,,,,,,,,,264.6713,265.7184,265.7184,269.4596,return,2.4462,,90.49479167,0,40,40,18,1,FBP-YG-17.png,0.43,1.2,19,0.25,,,,,,,,,,,,,,,,,,,,,,,,,,,,,,,,,,,,,,,,,,,,,
,,,,,SPR24_052,19,Male,2024-04-16_15h10.57.408,jersey_experiment_5_v0,2023.2.2,Win32,85.47008547,,,,,,,,,,,,,,,,269.4598,270.5065,270.5066,272.9891,return,0.9442,,98.95833333,0,41,41,59,1,FBP-PT-19.png,0.45,1.2,60,0.25,,,,,,,,,,,,,,,,,,,,,,,,,,,,,,,,,,,,,,,,,,,,,
,,,,,SPR24_052,19,Male,2024-04-16_15h10.57.408,jersey_experiment_5_v0,2023.2.2,Win32,85.47008547,,,,,,,,,,,,,,,,272.9893,274.2833,274.2834,276.0598,return,0.6754,,94.01041667,0,42,42,4,1,FBP-OG-71.png,0.45,1.2,5,0.5,,,,,,,,,,,,,,,,,,,,,,,,,,,,,,,,,,,,,,,,,,,,,
,,,,,SPR24_052,19,Male,2024-04-16_15h10.57.408,jersey_experiment_5_v0,2023.2.2,Win32,85.47008547,,,,,,,,,,,,,,,,276.0601,277.3538,277.3538,281.8132,return,2.297,,58.203125,0,43,43,7,1,FBP-OG-81.png,0.4,1.2,8,0.5,,,,,,,,,,,,,,,,,,,,,,,,,,,,,,,,,,,,,,,,,,,,,
,,,,,SPR24_052,19,Male,2024-04-16_15h10.57.408,jersey_experiment_5_v0,2023.2.2,Win32,85.47008547,,,,,,,,,,,,,,,,281.8133,283.1071,283.1072,285.2601,return,0.8302,,28.90625,0,44,44,10,1,FBP-OG-91.png,0.35,1.2,11,0.5,,,,,,,,,,,,,,,,,,,,,,,,,,,,,,,,,,,,,,,,,,,,,
,,,,,SPR24_052,19,Male,2024-04-16_15h10.57.408,jersey_experiment_5_v0,2023.2.2,Win32,85.47008547,,,,,,,,,,,,,,,,285.2602,286.3073,286.3073,288.5307,return,0.7622,,99.86979167,0,45,45,19,1,FBP-YG-17.png,0.45,1.2,20,0.25,,,,,,,,,,,,,,,,,,,,,,,,,,,,,,,,,,,,,,,,,,,,,
,,,,,SPR24_052,19,Male,2024-04-16_15h10.57.408,jersey_experiment_5_v0,2023.2.2,Win32,85.47008547,,,,,,,,,,,,,,,,288.5309,289.8251,289.8251,291.6604,return,1.2393,,99.86979167,0,46,46,38,1,FBP-RB-18.png,0.43,1.2,39,0.5,,,,,,,,,,,,,,,,,,,,,,,,,,,,,,,,,,,,,,,,,,,,,
,,,,,SPR24_052,19,Male,2024-04-16_15h10.57.408,jersey_experiment_5_v0,2023.2.2,Win32,85.47008547,,,,,,,,,,,,,,,,291.6606,292.7074,292.7075,295.9312,return,0.8429,,46.61458333,0,47,47,21,1,FBP-YG-18.png,0.37,1.2,22,0.25,,,,,,,,,,,,,,,,,,,,,,,,,,,,,,,,,,,,,,,,,,,,,
,,,,,SPR24_052,19,Male,2024-04-16_15h10.57.408,jersey_experiment_5_v0,2023.2.2,Win32,85.47008547,,,,,,,,,,,,,,,,295.9313,297.2254,297.2254,299.5665,return,1.2983,,42.578125,0,48,48,35,1,FBP-RB-18.png,0.35,1.2,36,0.5,,,,,,,,,,,,,,,,,,,,,,,,,,,,,,,,,,,,,,,,,,,,,
,,,,,SPR24_052,19,Male,2024-04-16_15h10.57.408,jersey_experiment_5_v0,2023.2.2,Win32,85.47008547,,,,,,,,,,,,,,,,299.5668,300.8607,300.8607,304.8254,return,2.6423,,49.34895833,0,49,49,40,1,FBP-RB-19.png,0.35,1.2,41,0.5,,,,,,,,,,,,,,,,,,,,,,,,,,,,,,,,,,,,,,,,,,,,,
,,,,,SPR24_052,19,Male,2024-04-16_15h10.57.408,jersey_experiment_5_v0,2023.2.2,Win32,85.47008547,,,,,,,,,,,,,,,,304.8256,306.1197,306.1197,308.4022,return,1.1062,,62.109375,0,50,50,42,1,FBP-RB-19.png,0.4,1.2,43,0.5,,,,,,,,,,,,,,,,,,,,,,,,,,,,,,,,,,,,,,,,,,,,,
,,,,,SPR24_052,19,Male,2024-04-16_15h10.57.408,jersey_experiment_5_v0,2023.2.2,Win32,85.47008547,,,,,,,,,,,,,,,,308.4024,309.4492,309.4492,312.2847,return,1.5094,,93.75,0,51,51,53,1,FBP-PT-18.png,0.43,1.2,54,0.25,,,,,,,,,,,,,,,,,,,,,,,,,,,,,,,,,,,,,,,,,,,,,
,,,,,SPR24_052,19,Male,2024-04-16_15h10.57.408,jersey_experiment_5_v0,2023.2.2,Win32,85.47008547,,,,,,,,,,,,,,,,312.2848,313.3318,313.3319,315.9318,return,1.5716,,96.35416667,0,52,52,29,1,FBP-YG-19.png,0.45,1.2,30,0.25,,,,,,,,,,,,,,,,,,,,,,,,,,,,,,,,,,,,,,,,,,,,,
,,,,,SPR24_052,19,Male,2024-04-16_15h10.57.408,jersey_experiment_5_v0,2023.2.2,Win32,85.47008547,,,,,,,,,,,,,,,,315.9321,317.2261,317.2261,321.7792,return,0.951,,60.02604167,0,53,53,11,1,FBP-OG-91.png,0.37,1.2,12,0.5,,,,,,,,,,,,,,,,,,,,,,,,,,,,,,,,,,,,,,,,,,,,,
,,,,,SPR24_052,19,Male,2024-04-16_15h10.57.408,jersey_experiment_5_v0,2023.2.2,Win32,85.47008547,,,,,,,,,,,,,,,,321.7794,322.8261,322.8263,325.1086,return,0.8937,,31.640625,0,54,54,56,1,FBP-PT-19.png,0.37,1.2,57,0.25,,,,,,,,,,,,,,,,,,,,,,,,,,,,,,,,,,,,,,,,,,,,,
,,,,,SPR24_052,19,Male,2024-04-16_15h10.57.408,jersey_experiment_5_v0,2023.2.2,Win32,85.47008547,,,,,,,,,,,,,,,,325.1089,326.1557,326.1558,328.3795,return,0.6168,,30.20833333,0,55,55,51,1,FBP-PT-18.png,0.37,1.2,52,0.25,,,,,,,,,,,,,,,,,,,,,,,,,,,,,,,,,,,,,,,,,,,,,
,,,,,SPR24_052,19,Male,2024-04-16_15h10.57.408,jersey_experiment_5_v0,2023.2.2,Win32,85.47008547,,,,,,,,,,,,,,,,328.3796,329.4263,329.4263,331.5089,return,0.9179,,31.38020833,0,56,56,16,1,FBP-YG-17.png,0.37,1.2,17,0.25,,,,,,,,,,,,,,,,,,,,,,,,,,,,,,,,,,,,,,,,,,,,,
,,,,,SPR24_052,19,Male,2024-04-16_15h10.57.408,jersey_experiment_5_v0,2023.2.2,Win32,85.47008547,,,,,,,,,,,,,,,,331.5091,332.8031,332.8032,337.1208,return,2.6607,,88.28125,0,57,57,9,1,FBP-OG-81.png,0.45,1.2,10,0.5,,,,,,,,,,,,,,,,,,,,,,,,,,,,,,,,,,,,,,,,,,,,,
,,,,,SPR24_052,19,Male,2024-04-16_15h10.57.408,jersey_experiment_5_v0,2023.2.2,Win32,85.47008547,,,,,,,,,,,,,,,,337.1211,338.4149,338.4149,341.3798,return,1.2337,,22.39583333,0,58,58,5,1,FBP-OG-81.png,0.35,1.2,6,0.5,,,,,,,,,,,,,,,,,,,,,,,,,,,,,,,,,,,,,,,,,,,,,
,,,,,SPR24_052,19,Male,2024-04-16_15h10.57.408,jersey_experiment_5_v0,2023.2.2,Win32,85.47008547,,,,,,,,,,,,,,,,341.38,342.674,342.674,346.2742,return,2.4711,,79.6875,0,59,59,33,1,FBP-RB-17.png,0.43,1.2,34,0.5,,,,,,,,,,,,,,,,,,,,,,,,,,,,,,,,,,,,,,,,,,,,,
,,,,,SPR24_052,19,Male,2024-04-16_15h10.57.408,jersey_experiment_5_v0,2023.2.2,Win32,85.47008547,,,,,,,,,,,,,,,,346.2768,347.3213,347.3213,351.0977,return,0.795,,59.24479167,,,,,,FBP-YG-71.png,0.37,1.2,17,0.25,0,0,0,16,1,,,,,,,,,,,,,,,,,,,,,,,,,,,,,,,,,,,,,,,,
,,,,,SPR24_052,19,Male,2024-04-16_15h10.57.408,jersey_experiment_5_v0,2023.2.2,Win32,85.47008547,,,,,,,,,,,,,,,,351.0981,352.1449,352.145,354.0981,return,0.7668,,89.97395833,,,,,,FBP-YG-91.png,0.45,1.2,30,0.25,0,1,1,29,1,,,,,,,,,,,,,,,,,,,,,,,,,,,,,,,,,,,,,,,,
,,,,,SPR24_052,19,Male,2024-04-16_15h10.57.408,jersey_experiment_5_v0,2023.2.2,Win32,85.47008547,,,,,,,,,,,,,,,,354.0983,355.1451,355.1451,359.1806,return,2.6866,,64.84375,,,,,,FBP-PT-91.png,0.4,1.2,58,0.25,0,2,2,57,1,,,,,,,,,,,,,,,,,,,,,,,,,,,,,,,,,,,,,,,,
,,,,,SPR24_052,19,Male,2024-04-16_15h10.57.408,jersey_experiment_5_v0,2023.2.2,Win32,85.47008547,,,,,,,,,,,,,,,,359.1808,360.4746,360.4747,363.4512,return,0.7695,,39.32291667,,,,,,FBP-OG-18.png,0.37,1.2,7,0.5,0,3,3,6,1,,,,,,,,,,,,,,,,,,,,,,,,,,,,,,,,,,,,,,,,
,,,,,SPR24_052,19,Male,2024-04-16_15h10.57.408,jersey_experiment_5_v0,2023.2.2,Win32,85.47008547,,,,,,,,,,,,,,,,363.4514,364.4984,364.4984,367.4868,return,1.4611,,82.16145833,,,,,,FBP-PT-71.png,0.43,1.2,49,0.25,0,4,4,48,1,,,,,,,,,,,,,,,,,,,,,,,,,,,,,,,,,,,,,,,,
,,,,,SPR24_052,19,Male,2024-04-16_15h10.57.408,jersey_experiment_5_v0,2023.2.2,Win32,85.47008547,,,,,,,,,,,,,,,,367.4871,368.5336,368.5336,370.6044,return,0.9006,,83.203125,,,,,,FBP-YG-91.png,0.43,1.2,29,0.25,0,5,5,28,1,,,,,,,,,,,,,,,,,,,,,,,,,,,,,,,,,,,,,,,,
,,,,,SPR24_052,19,Male,2024-04-16_15h10.57.408,jersey_experiment_5_v0,2023.2.2,Win32,85.47008547,,,,,,,,,,,,,,,,370.6046,371.6516,371.6516,376.5576,return,2.7436,,71.875,,,,,,FBP-YG-81.png,0.37,1.2,22,0.25,0,6,6,21,1,,,,,,,,,,,,,,,,,,,,,,,,,,,,,,,,,,,,,,,,
,,,,,SPR24_052,19,Male,2024-04-16_15h10.57.408,jersey_experiment_5_v0,2023.2.2,Win32,85.47008547,,,,,,,,,,,,,,,,376.5578,377.6048,377.6049,379.7697,return,0.9626,,88.41145833,,,,,,FBP-PT-71.png,0.45,1.2,50,0.25,0,7,7,49,1,,,,,,,,,,,,,,,,,,,,,,,,,,,,,,,,,,,,,,,,
,,,,,SPR24_052,19,Male,2024-04-16_15h10.57.408,jersey_experiment_5_v0,2023.2.2,Win32,85.47008547,,,,,,,,,,,,,,,,379.77,380.8166,380.8167,383.946,return,0.8185,,66.53645833,,,,,,FBP-YG-91.png,0.4,1.2,28,0.25,0,8,8,27,1,,,,,,,,,,,,,,,,,,,,,,,,,,,,,,,,,,,,,,,,
,,,,,SPR24_052,19,Male,2024-04-16_15h10.57.408,jersey_experiment_5_v0,2023.2.2,Win32,85.47008547,,,,,,,,,,,,,,,,383.9462,384.9932,384.9933,387.5346,return,0.8158,,80.98958333,,,,,,FBP-PT-81.png,0.43,1.2,54,0.25,0,9,9,53,1,,,,,,,,,,,,,,,,,,,,,,,,,,,,,,,,,,,,,,,,
,,,,,SPR24_052,19,Male,2024-04-16_15h10.57.408,jersey_experiment_5_v0,2023.2.2,Win32,85.47008547,,,,,,,,,,,,,,,,387.5349,388.8288,388.8288,400.2526,return,2.1236,,84.50520833,,,,,,FBP-OG-18.png,0.43,1.2,9,0.5,0,10,10,8,1,,,,,,,,,,,,,,,,,,,,,,,,,,,,,,,,,,,,,,,,
,,,,,SPR24_052,19,Male,2024-04-16_15h10.57.408,jersey_experiment_5_v0,2023.2.2,Win32,85.47008547,,,,,,,,,,,,,,,,400.2528,401.5467,401.5468,404.2527,return,1.2298,,41.015625,,,,,,FBP-OG-17.png,0.4,1.2,3,0.5,0,11,11,2,1,,,,,,,,,,,,,,,,,,,,,,,,,,,,,,,,,,,,,,,,
,,,,,SPR24_052,19,Male,2024-04-16_15h10.57.408,jersey_experiment_5_v0,2023.2.2,Win32,85.47008547,,,,,,,,,,,,,,,,404.253,405.2999,405.3,407.147,return,0.69,,33.984375,,,,,,FBP-PT-81.png,0.37,1.2,52,0.25,0,12,12,51,1,,,,,,,,,,,,,,,,,,,,,,,,,,,,,,,,,,,,,,,,
,,,,,SPR24_052,19,Male,2024-04-16_15h10.57.408,jersey_experiment_5_v0,2023.2.2,Win32,85.47008547,,,,,,,,,,,,,,,,407.1472,408.1941,408.1941,410.5942,return,0.8153,,31.77083333,,,,,,FBP-YG-91.png,0.37,1.2,27,0.25,0,13,13,26,1,,,,,,,,,,,,,,,,,,,,,,,,,,,,,,,,,,,,,,,,
,,,,,SPR24_052,19,Male,2024-04-16_15h10.57.408,jersey_experiment_5_v0,2023.2.2,Win32,85.47008547,,,,,,,,,,,,,,,,410.5945,411.6413,411.6413,414.9239,return,0.7952,,55.20833333,,,,,,FBP-PT-71.png,0.4,1.2,48,0.25,0,14,14,47,1,,,,,,,,,,,,,,,,,,,,,,,,,,,,,,,,,,,,,,,,
,,,,,SPR24_052,19,Male,2024-04-16_15h10.57.408,jersey_experiment_5_v0,2023.2.2,Win32,85.47008547,,,,,,,,,,,,,,,,414.9241,416.2178,416.2179,418.2886,return,0.7059,,87.109375,,,,,,FBP-OG-17.png,0.45,1.2,5,0.5,0,15,15,4,1,,,,,,,,,,,,,,,,,,,,,,,,,,,,,,,,,,,,,,,,
,,,,,SPR24_052,19,Male,2024-04-16_15h10.57.408,jersey_experiment_5_v0,2023.2.2,Win32,85.47008547,,,,,,,,,,,,,,,,418.2888,419.5827,419.5827,421.7476,return,0.8375,,62.890625,,,,,,FBP-OG-18.png,0.4,1.2,8,0.5,0,16,16,7,1,,,,,,,,,,,,,,,,,,,,,,,,,,,,,,,,,,,,,,,,
,,,,,SPR24_052,19,Male,2024-04-16_15h10.57.408,jersey_experiment_5_v0,2023.2.2,Win32,85.47008547,,,,,,,,,,,,,,,,421.7478,422.7945,422.7945,427.7477,return,0.5558,,39.97395833,,,,,,FBP-YG-71.png,0.35,1.2,16,0.25,0,17,17,15,1,,,,,,,,,,,,,,,,,,,,,,,,,,,,,,,,,,,,,,,,
,,,,,SPR24_052,19,Male,2024-04-16_15h10.57.408,jersey_experiment_5_v0,2023.2.2,Win32,85.47008547,,,,,,,,,,,,,,,,427.7479,428.7948,428.7949,431.0654,return,0.9622,,70.18229167,,,,,,FBP-PT-91.png,0.43,1.2,59,0.25,0,18,18,58,1,,,,,,,,,,,,,,,,,,,,,,,,,,,,,,,,,,,,,,,,
,,,,,SPR24_052,19,Male,2024-04-16_15h10.57.408,jersey_experiment_5_v0,2023.2.2,Win32,85.47008547,,,,,,,,,,,,,,,,431.0658,432.1125,432.1125,434.7362,return,1.2858,,60.02604167,,,,,,FBP-PT-71.png,0.37,1.2,47,0.25,0,19,19,46,1,,,,,,,,,,,,,,,,,,,,,,,,,,,,,,,,,,,,,,,,
,,,,,SPR24_052,19,Male,2024-04-16_15h10.57.408,jersey_experiment_5_v0,2023.2.2,Win32,85.47008547,,,,,,,,,,,,,,,,434.7365,436.0304,436.0304,439.76,return,1.3672,,53.515625,,,,,,FBP-OG-17.png,0.37,1.2,2,0.5,0,20,20,1,1,,,,,,,,,,,,,,,,,,,,,,,,,,,,,,,,,,,,,,,,
,,,,,SPR24_052,19,Male,2024-04-16_15h10.57.408,jersey_experiment_5_v0,2023.2.2,Win32,85.47008547,,,,,,,,,,,,,,,,439.7602,440.8071,440.8071,443.3955,return,0.7526,,69.40104167,,,,,,FBP-YG-81.png,0.43,1.2,24,0.25,0,21,21,23,1,,,,,,,,,,,,,,,,,,,,,,,,,,,,,,,,,,,,,,,,
,,,,,SPR24_052,19,Male,2024-04-16_15h10.57.408,jersey_experiment_5_v0,2023.2.2,Win32,85.47008547,,,,,,,,,,,,,,,,443.3957,444.4425,444.4425,446.2073,return,0.9541,,82.55208333,,,,,,FBP-YG-81.png,0.45,1.2,25,0.25,0,22,22,24,1,,,,,,,,,,,,,,,,,,,,,,,,,,,,,,,,,,,,,,,,
,,,,,SPR24_052,19,Male,2024-04-16_15h10.57.408,jersey_experiment_5_v0,2023.2.2,Win32,85.47008547,,,,,,,,,,,,,,,,446.2076,447.5013,447.5014,452.4192,return,3.563,,76.953125,,,,,,FBP-OG-19.png,0.43,1.2,14,0.5,0,23,23,13,1,,,,,,,,,,,,,,,,,,,,,,,,,,,,,,,,,,,,,,,,
,,,,,SPR24_052,19,Male,2024-04-16_15h10.57.408,jersey_experiment_5_v0,2023.2.2,Win32,85.47008547,,,,,,,,,,,,,,,,452.4195,453.7134,453.7135,459.443,return,2.3436,,70.83333333,,,,,,FBP-RB-91.png,0.4,1.2,43,0.5,0,24,24,42,1,,,,,,,,,,,,,,,,,,,,,,,,,,,,,,,,,,,,,,,,
,,,,,SPR24_052,19,Male,2024-04-16_15h10.57.408,jersey_experiment_5_v0,2023.2.2,Win32,85.47008547,,,,,,,,,,,,,,,,459.4433,460.49,460.4901,462.9137,return,0.7537,,59.50520833,,,,,,FBP-YG-91.png,0.35,1.2,26,0.25,0,25,25,25,1,,,,,,,,,,,,,,,,,,,,,,,,,,,,,,,,,,,,,,,,
,,,,,SPR24_052,19,Male,2024-04-16_15h10.57.408,jersey_experiment_5_v0,2023.2.2,Win32,85.47008547,,,,,,,,,,,,,,,,462.914,464.2079,464.2079,468.4434,return,3.2408,,72.265625,,,,,,FBP-RB-91.png,0.45,1.2,45,0.5,0,26,26,44,1,,,,,,,,,,,,,,,,,,,,,,,,,,,,,,,,,,,,,,,,
,,,,,SPR24_052,19,Male,2024-04-16_15h10.57.408,jersey_experiment_5_v0,2023.2.2,Win32,85.47008547,,,,,,,,,,,,,,,,468.4437,469.7375,469.7375,472.8435,return,0.7603,,43.75,,,,,,FBP-RB-81.png,0.37,1.2,37,0.5,0,27,27,36,1,,,,,,,,,,,,,,,,,,,,,,,,,,,,,,,,,,,,,,,,
,,,,,SPR24_052,19,Male,2024-04-16_15h10.57.408,jersey_experiment_5_v0,2023.2.2,Win32,85.47008547,,,,,,,,,,,,,,,,472.8438,473.8906,473.8907,477.4205,return,0.946,,37.890625,,,,,,FBP-PT-71.png,0.35,1.2,46,0.25,0,28,28,45,1,,,,,,,,,,,,,,,,,,,,,,,,,,,,,,,,,,,,,,,,
,,,,,SPR24_052,19,Male,2024-04-16_15h10.57.408,jersey_experiment_5_v0,2023.2.2,Win32,85.47008547,,,,,,,,,,,,,,,,477.4207,478.4672,478.4672,481.3733,return,0.6149,,58.984375,,,,,,FBP-YG-81.png,0.4,1.2,23,0.25,0,29,29,22,1,,,,,,,,,,,,,,,,,,,,,,,,,,,,,,,,,,,,,,,,
,,,,,SPR24_052,19,Male,2024-04-16_15h10.57.408,jersey_experiment_5_v0,2023.2.2,Win32,85.47008547,,,,,,,,,,,,,,,,481.3735,482.6675,482.6676,485.6323,return,2.0847,,74.609375,,,,,,FBP-RB-91.png,0.43,1.2,44,0.5,0,30,30,43,1,,,,,,,,,,,,,,,,,,,,,,,,,,,,,,,,,,,,,,,,
,,,,,SPR24_052,19,Male,2024-04-16_15h10.57.408,jersey_experiment_5_v0,2023.2.2,Win32,85.47008547,,,,,,,,,,,,,,,,485.6326,486.9266,486.9266,489.9501,return,1.9342,,39.84375,,,,,,FBP-OG-18.png,0.35,1.2,6,0.5,0,31,31,5,1,,,,,,,,,,,,,,,,,,,,,,,,,,,,,,,,,,,,,,,,
,,,,,SPR24_052,19,Male,2024-04-16_15h10.57.408,jersey_experiment_5_v0,2023.2.2,Win32,85.47008547,,,,,,,,,,,,,,,,489.9503,491.2442,491.2442,493.7383,return,1.373,,83.72395833,,,,,,FBP-RB-81.png,0.45,1.2,40,0.5,0,32,32,39,1,,,,,,,,,,,,,,,,,,,,,,,,,,,,,,,,,,,,,,,,
,,,,,SPR24_052,19,Male,2024-04-16_15h10.57.408,jersey_experiment_5_v0,2023.2.2,Win32,85.47008547,,,,,,,,,,,,,,,,493.7386,494.7854,494.7855,496.8915,return,1.1461,,94.53125,,,,,,FBP-PT-81.png,0.45,1.2,55,0.25,0,33,33,54,1,,,,,,,,,,,,,,,,,,,,,,,,,,,,,,,,,,,,,,,,
,,,,,SPR24_052,19,Male,2024-04-16_15h10.57.408,jersey_experiment_5_v0,2023.2.2,Win32,85.47008547,,,,,,,,,,,,,,,,496.8917,498.1855,498.1856,499.7739,return,0.7698,,97.13541667,,,,,,FBP-OG-17.png,0.43,1.2,4,0.5,0,34,34,3,1,,,,,,,,,,,,,,,,,,,,,,,,,,,,,,,,,,,,,,,,
,,,,,SPR24_052,19,Male,2024-04-16_15h10.57.408,jersey_experiment_5_v0,2023.2.2,Win32,85.47008547,,,,,,,,,,,,,,,,499.7741,501.068,501.068,503.1033,return,0.6856,,75.26041667,,,,,,FBP-OG-19.png,0.4,1.2,13,0.5,0,35,35,12,1,,,,,,,,,,,,,,,,,,,,,,,,,,,,,,,,,,,,,,,,
,,,,,SPR24_052,19,Male,2024-04-16_15h10.57.408,jersey_experiment_5_v0,2023.2.2,Win32,85.47008547,,,,,,,,,,,,,,,,503.1036,504.1506,504.1506,506.5389,return,1.3115,,85.02604167,,,,,,FBP-PT-91.png,0.45,1.2,60,0.25,0,36,36,59,1,,,,,,,,,,,,,,,,,,,,,,,,,,,,,,,,,,,,,,,,
,,,,,SPR24_052,19,Male,2024-04-16_15h10.57.408,jersey_experiment_5_v0,2023.2.2,Win32,85.47008547,,,,,,,,,,,,,,,,506.539,507.586,507.586,509.8095,return,0.7066,,69.921875,,,,,,FBP-PT-81.png,0.4,1.2,53,0.25,0,37,37,52,1,,,,,,,,,,,,,,,,,,,,,,,,,,,,,,,,,,,,,,,,
,,,,,SPR24_052,19,Male,2024-04-16_15h10.57.408,jersey_experiment_5_v0,2023.2.2,Win32,85.47008547,,,,,,,,,,,,,,,,509.8098,511.1037,511.1037,513.1158,return,0.5599,,59.24479167,,,,,,FBP-OG-19.png,0.37,1.2,12,0.5,0,38,38,11,1,,,,,,,,,,,,,,,,,,,,,,,,,,,,,,,,,,,,,,,,
,,,,,SPR24_052,19,Male,2024-04-16_15h10.57.408,jersey_experiment_5_v0,2023.2.2,Win32,85.47008547,,,,,,,,,,,,,,,,513.1159,514.4098,514.4099,516.2687,return,1.156,,38.93229167,,,,,,FBP-RB-91.png,0.35,1.2,41,0.5,0,39,39,40,1,,,,,,,,,,,,,,,,,,,,,,,,,,,,,,,,,,,,,,,,
,,,,,SPR24_052,19,Male,2024-04-16_15h10.57.408,jersey_experiment_5_v0,2023.2.2,Win32,85.47008547,,,,,,,,,,,,,,,,516.2689,517.5629,517.563,519.1394,return,0.8237,,73.95833333,,,,,,FBP-OG-19.png,0.45,1.2,15,0.5,0,40,40,14,1,,,,,,,,,,,,,,,,,,,,,,,,,,,,,,,,,,,,,,,,
,,,,,SPR24_052,19,Male,2024-04-16_15h10.57.408,jersey_experiment_5_v0,2023.2.2,Win32,85.47008547,,,,,,,,,,,,,,,,519.1396,520.1864,520.1864,527.0336,return,5.7502,,44.79166667,,,,,,FBP-YG-71.png,0.4,1.2,18,0.25,0,41,41,17,1,,,,,,,,,,,,,,,,,,,,,,,,,,,,,,,,,,,,,,,,
,,,,,SPR24_052,19,Male,2024-04-16_15h10.57.408,jersey_experiment_5_v0,2023.2.2,Win32,85.47008547,,,,,,,,,,,,,,,,527.0339,528.328,528.328,530.4339,return,0.7296,,26.69270833,,,,,,FBP-OG-17.png,0.35,1.2,1,0.5,0,42,42,0,1,,,,,,,,,,,,,,,,,,,,,,,,,,,,,,,,,,,,,,,,
,,,,,SPR24_052,19,Male,2024-04-16_15h10.57.408,jersey_experiment_5_v0,2023.2.2,Win32,85.47008547,,,,,,,,,,,,,,,,530.4341,531.481,531.481,535.9988,return,3.2982,,92.578125,,,,,,FBP-YG-71.png,0.45,1.2,20,0.25,0,43,43,19,1,,,,,,,,,,,,,,,,,,,,,,,,,,,,,,,,,,,,,,,,
,,,,,SPR24_052,19,Male,2024-04-16_15h10.57.408,jersey_experiment_5_v0,2023.2.2,Win32,85.47008547,,,,,,,,,,,,,,,,535.999,537.0459,537.0459,539.1047,return,0.6843,,29.42708333,,,,,,FBP-PT-81.png,0.35,1.2,51,0.25,0,44,44,50,1,,,,,,,,,,,,,,,,,,,,,,,,,,,,,,,,,,,,,,,,
,,,,,SPR24_052,19,Male,2024-04-16_15h10.57.408,jersey_experiment_5_v0,2023.2.2,Win32,85.47008547,,,,,,,,,,,,,,,,539.105,540.1518,540.1519,542.7168,return,0.7466,,74.73958333,,,,,,FBP-YG-71.png,0.43,1.2,19,0.25,0,45,45,18,1,,,,,,,,,,,,,,,,,,,,,,,,,,,,,,,,,,,,,,,,
,,,,,SPR24_052,19,Male,2024-04-16_15h10.57.408,jersey_experiment_5_v0,2023.2.2,Win32,85.47008547,,,,,,,,,,,,,,,,542.717,544.011,544.0111,545.458,return,0.9888,,82.94270833,,,,,,FBP-RB-81.png,0.43,1.2,39,0.5,0,46,46,38,1,,,,,,,,,,,,,,,,,,,,,,,,,,,,,,,,,,,,,,,,
,,,,,SPR24_052,19,Male,2024-04-16_15h10.57.408,jersey_experiment_5_v0,2023.2.2,Win32,85.47008547,,,,,,,,,,,,,,,,545.4582,546.5051,546.5051,554.2348,return,6.1732,,39.71354167,,,,,,FBP-PT-91.png,0.35,1.2,56,0.25,0,47,47,55,1,,,,,,,,,,,,,,,,,,,,,,,,,,,,,,,,,,,,,,,,
,,,,,SPR24_052,19,Male,2024-04-16_15h10.57.408,jersey_experiment_5_v0,2023.2.2,Win32,85.47008547,,,,,,,,,,,,,,,,554.239,555.5406,555.5406,558.835,return,1.4356,,63.93229167,,,,,,FBP-RB-81.png,0.4,1.2,38,0.5,0,48,48,37,1,,,,,,,,,,,,,,,,,,,,,,,,,,,,,,,,,,,,,,,,
,,,,,SPR24_052,19,Male,2024-04-16_15h10.57.408,jersey_experiment_5_v0,2023.2.2,Win32,85.47008547,,,,,,,,,,,,,,,,558.8353,559.882,559.882,561.9527,return,0.9903,,32.421875,,,,,,FBP-YG-81.png,0.35,1.2,21,0.25,0,49,49,20,1,,,,,,,,,,,,,,,,,,,,,,,,,,,,,,,,,,,,,,,,
,,,,,SPR24_052,19,Male,2024-04-16_15h10.57.408,jersey_experiment_5_v0,2023.2.2,Win32,85.47008547,,,,,,,,,,,,,,,,561.953,563.2469,563.2469,565.3764,return,0.6592,,67.05729167,,,,,,FBP-OG-18.png,0.45,1.2,10,0.5,0,50,50,9,1,,,,,,,,,,,,,,,,,,,,,,,,,,,,,,,,,,,,,,,,
,,,,,SPR24_052,19,Male,2024-04-16_15h10.57.408,jersey_experiment_5_v0,2023.2.2,Win32,85.47008547,,,,,,,,,,,,,,,,565.3766,566.6704,566.6704,569.6588,return,1.8652,,28.64583333,,,,,,FBP-OG-19.png,0.35,1.2,11,0.5,0,51,51,10,1,,,,,,,,,,,,,,,,,,,,,,,,,,,,,,,,,,,,,,,,
,,,,,SPR24_052,19,Male,2024-04-16_15h10.57.408,jersey_experiment_5_v0,2023.2.2,Win32,85.47008547,,,,,,,,,,,,,,,,569.659,570.9531,570.9531,572.8119,return,0.7808,,30.078125,,,,,,FBP-RB-91.png,0.37,1.2,42,0.5,0,52,52,41,1,,,,,,,,,,,,,,,,,,,,,,,,,,,,,,,,,,,,,,,,
,,,,,SPR24_052,19,Male,2024-04-16_15h10.57.408,jersey_experiment_5_v0,2023.2.2,Win32,85.47008547,,,,,,,,,,,,,,,,572.8122,574.106,574.1061,576.6591,return,1.9866,,30.078125,,,,,,FBP-RB-81.png,0.35,1.2,36,0.5,0,53,53,35,1,,,,,,,,,,,,,,,,,,,,,,,,,,,,,,,,,,,,,,,,
,,,,,SPR24_052,19,Male,2024-04-16_15h10.57.408,jersey_experiment_5_v0,2023.2.2,Win32,85.47008547,,,,,,,,,,,,,,,,576.6592,577.9532,577.9532,579.9885,return,1.2001,,30.078125,,,,,,FBP-RB-71.png,0.35,1.2,31,0.5,0,54,54,30,1,,,,,,,,,,,,,,,,,,,,,,,,,,,,,,,,,,,,,,,,
,,,,,SPR24_052,19,Male,2024-04-16_15h10.57.408,jersey_experiment_5_v0,2023.2.2,Win32,85.47008547,,,,,,,,,,,,,,,,579.9887,581.2828,581.2828,582.9416,return,0.9698,,30.078125,,,,,,FBP-RB-71.png,0.37,1.2,32,0.5,0,55,55,31,1,,,,,,,,,,,,,,,,,,,,,,,,,,,,,,,,,,,,,,,,
,,,,,SPR24_052,19,Male,2024-04-16_15h10.57.408,jersey_experiment_5_v0,2023.2.2,Win32,85.47008547,,,,,,,,,,,,,,,,582.9418,583.9888,583.9888,590.5773,return,0.579,,34.89583333,,,,,,FBP-PT-91.png,0.37,1.2,57,0.25,0,56,56,56,1,,,,,,,,,,,,,,,,,,,,,,,,,,,,,,,,,,,,,,,,
,,,,,SPR24_052,19,Male,2024-04-16_15h10.57.408,jersey_experiment_5_v0,2023.2.2,Win32,85.47008547,,,,,,,,,,,,,,,,590.5775,591.8714,591.8714,593.7891,return,0.8527,,63.54166667,,,,,,FBP-RB-71.png,0.43,1.2,34,0.5,0,57,57,33,1,,,,,,,,,,,,,,,,,,,,,,,,,,,,,,,,,,,,,,,,
,,,,,SPR24_052,19,Male,2024-04-16_15h10.57.408,jersey_experiment_5_v0,2023.2.2,Win32,85.47008547,,,,,,,,,,,,,,,,593.7893,595.0834,595.0834,596.9422,return,1.4023,,80.46875,,,,,,FBP-RB-71.png,0.45,1.2,35,0.5,0,58,58,34,1,,,,,,,,,,,,,,,,,,,,,,,,,,,,,,,,,,,,,,,,
,,,,,SPR24_052,19,Male,2024-04-16_15h10.57.408,jersey_experiment_5_v0,2023.2.2,Win32,85.47008547,,,,,,,,,,,,,,,,596.9424,598.2363,598.2363,599.8247,return,0.8145,,64.71354167,,,,,,FBP-RB-71.png,0.4,1.2,33,0.5,0,59,59,32,1,,,,,,,,,,,,,,,,,,,,,,,,,,,,,,,,,,,,,,,,
,,,,,SPR24_052,19,Male,2024-04-16_15h10.57.408,jersey_experiment_5_v0,2023.2.2,Win32,85.47008547,,,,,,,,,,,,,,,,,,,,,,,,,,,,,,,,,,,,,,,599.8251,719.8176,,,,,,,,,,,,,,,,,,,,,,,,,,,,,,,,,,,,,,
,,,,,SPR24_052,19,Male,2024-04-16_15h10.57.408,jersey_experiment_5_v0,2023.2.2,Win32,85.47008547,,,,,,,,,,,,,,,,,,,,,,,,,,,,,,,,,,,,,,,,,719.8178,723.3233,return,3.4994,,,,,,,,,,,,,,,,,,,,,,,,,,,,,,,,,,
,,,,,SPR24_052,19,Male,2024-04-16_15h10.57.408,jersey_experiment_5_v0,2023.2.2,Win32,85.47008547,,,,,,,,,,,,,,,,723.3292,724.3821,724.3821,727.994,return,2.4674,,79.6875,,,,,,FBP-RB-18.png,0.45,1.2,40,0.25,,,,,,,,,,,,,0,0,0,39,1,,,,,,,,,,,,,,,,,,,,,,,,,,,,
,,,,,SPR24_052,19,Male,2024-04-16_15h10.57.408,jersey_experiment_5_v0,2023.2.2,Win32,85.47008547,,,,,,,,,,,,,,,,727.9945,729.0411,729.0412,730.6059,return,0.7695,,82.68229167,,,,,,FBP-RB-17.png,0.43,1.2,34,0.25,,,,,,,,,,,,,0,1,1,33,1,,,,,,,,,,,,,,,,,,,,,,,,,,,,
,,,,,SPR24_052,19,Male,2024-04-16_15h10.57.408,jersey_experiment_5_v0,2023.2.2,Win32,85.47008547,,,,,,,,,,,,,,,,730.6061,731.9002,731.9002,733.5709,return,1.2846,,81.25,,,,,,FBP-YG-17.png,0.43,1.2,19,0.5,,,,,,,,,,,,,0,2,2,18,1,,,,,,,,,,,,,,,,,,,,,,,,,,,,
,,,,,SPR24_052,19,Male,2024-04-16_15h10.57.408,jersey_experiment_5_v0,2023.2.2,Win32,85.47008547,,,,,,,,,,,,,,,,733.5711,734.865,734.865,736.512,return,0.5789,,39.58333333,,,,,,FBP-YG-17.png,0.35,1.2,16,0.5,,,,,,,,,,,,,0,3,3,15,1,,,,,,,,,,,,,,,,,,,,,,,,,,,,
,,,,,SPR24_052,19,Male,2024-04-16_15h10.57.408,jersey_experiment_5_v0,2023.2.2,Win32,85.47008547,,,,,,,,,,,,,,,,736.5122,737.8061,737.8061,739.2181,return,0.7434,,53.90625,,,,,,FBP-YG-19.png,0.43,1.2,29,0.5,,,,,,,,,,,,,0,4,4,28,1,,,,,,,,,,,,,,,,,,,,,,,,,,,,
,,,,,SPR24_052,19,Male,2024-04-16_15h10.57.408,jersey_experiment_5_v0,2023.2.2,Win32,85.47008547,,,,,,,,,,,,,,,,739.2183,740.5122,740.5123,745.9948,return,4.2645,,61.328125,,,,,,FBP-PT-18.png,0.43,1.2,54,0.5,,,,,,,,,,,,,0,5,5,53,1,,,,,,,,,,,,,,,,,,,,,,,,,,,,
,,,,,SPR24_052,19,Male,2024-04-16_15h10.57.408,jersey_experiment_5_v0,2023.2.2,Win32,85.47008547,,,,,,,,,,,,,,,,745.9951,747.2889,747.289,749.2301,return,1.4633,,29.81770833,,,,,,FBP-YG-19.png,0.35,1.2,26,0.5,,,,,,,,,,,,,0,6,6,25,1,,,,,,,,,,,,,,,,,,,,,,,,,,,,
,,,,,SPR24_052,19,Male,2024-04-16_15h10.57.408,jersey_experiment_5_v0,2023.2.2,Win32,85.47008547,,,,,,,,,,,,,,,,749.2303,750.2773,750.2774,754.348,return,2.9362,,35.15625,,,,,,FBP-OG-71.png,0.37,1.2,2,0.25,,,,,,,,,,,,,0,7,7,1,1,,,,,,,,,,,,,,,,,,,,,,,,,,,,
,,,,,SPR24_052,19,Male,2024-04-16_15h10.57.408,jersey_experiment_5_v0,2023.2.2,Win32,85.47008547,,,,,,,,,,,,,,,,754.3482,755.3951,755.3952,758.3246,return,0.6028,,56.77083333,,,,,,FBP-OG-81.png,0.45,1.2,10,0.25,,,,,,,,,,,,,0,8,8,9,1,,,,,,,,,,,,,,,,,,,,,,,,,,,,
,,,,,SPR24_052,19,Male,2024-04-16_15h10.57.408,jersey_experiment_5_v0,2023.2.2,Win32,85.47008547,,,,,,,,,,,,,,,,758.3249,759.6188,759.6188,761.3482,return,0.5506,,63.02083333,,,,,,FBP-PT-19.png,0.43,1.2,59,0.5,,,,,,,,,,,,,0,9,9,58,1,,,,,,,,,,,,,,,,,,,,,,,,,,,,
,,,,,SPR24_052,19,Male,2024-04-16_15h10.57.408,jersey_experiment_5_v0,2023.2.2,Win32,85.47008547,,,,,,,,,,,,,,,,761.3484,762.3953,762.3955,764.4307,return,0.804,,32.94270833,,,,,,FBP-RB-17.png,0.37,1.2,32,0.25,,,,,,,,,,,,,0,10,10,31,1,,,,,,,,,,,,,,,,,,,,,,,,,,,,
,,,,,SPR24_052,19,Male,2024-04-16_15h10.57.408,jersey_experiment_5_v0,2023.2.2,Win32,85.47008547,,,,,,,,,,,,,,,,764.4309,765.4779,765.4779,774.0665,return,0.649,,47.265625,,,,,,FBP-RB-18.png,0.35,1.2,36,0.25,,,,,,,,,,,,,0,11,11,35,1,,,,,,,,,,,,,,,,,,,,,,,,,,,,
,,,,,SPR24_052,19,Male,2024-04-16_15h10.57.408,jersey_experiment_5_v0,2023.2.2,Win32,85.47008547,,,,,,,,,,,,,,,,774.0667,775.3607,775.3607,776.8311,return,0.5683,,92.96875,,,,,,FBP-PT-18.png,0.45,1.2,55,0.5,,,,,,,,,,,,,0,12,12,54,1,,,,,,,,,,,,,,,,,,,,,,,,,,,,
,,,,,SPR24_052,19,Male,2024-04-16_15h10.57.408,jersey_experiment_5_v0,2023.2.2,Win32,85.47008547,,,,,,,,,,,,,,,,776.8313,777.8782,777.8783,780.6196,return,1.8995,,73.95833333,,,,,,FBP-OG-71.png,0.43,1.2,4,0.25,,,,,,,,,,,,,0,13,13,3,1,,,,,,,,,,,,,,,,,,,,,,,,,,,,
,,,,,SPR24_052,19,Male,2024-04-16_15h10.57.408,jersey_experiment_5_v0,2023.2.2,Win32,85.47008547,,,,,,,,,,,,,,,,780.6197,781.9136,781.9136,789.5729,return,6.683,,75.390625,,,,,,FBP-YG-18.png,0.45,1.2,25,0.5,,,,,,,,,,,,,0,14,14,24,1,,,,,,,,,,,,,,,,,,,,,,,,,,,,
,,,,,SPR24_052,19,Male,2024-04-16_15h10.57.408,jersey_experiment_5_v0,2023.2.2,Win32,85.47008547,,,,,,,,,,,,,,,,789.5731,790.6198,790.6199,792.0906,return,0.5943,,69.79166667,,,,,,FBP-RB-18.png,0.4,1.2,38,0.25,,,,,,,,,,,,,0,15,15,37,1,,,,,,,,,,,,,,,,,,,,,,,,,,,,
,,,,,SPR24_052,19,Male,2024-04-16_15h10.57.408,jersey_experiment_5_v0,2023.2.2,Win32,85.47008547,,,,,,,,,,,,,,,,792.0908,793.1376,793.1377,796.3496,return,2.0968,,66.14583333,,,,,,FBP-OG-71.png,0.4,1.2,3,0.25,,,,,,,,,,,,,0,16,16,2,1,,,,,,,,,,,,,,,,,,,,,,,,,,,,
,,,,,SPR24_052,19,Male,2024-04-16_15h10.57.408,jersey_experiment_5_v0,2023.2.2,Win32,85.47008547,,,,,,,,,,,,,,,,796.3498,797.3965,797.3965,799.0555,return,0.7304,,68.09895833,,,,,,FBP-RB-17.png,0.4,1.2,33,0.25,,,,,,,,,,,,,0,17,17,32,1,,,,,,,,,,,,,,,,,,,,,,,,,,,,
,,,,,SPR24_052,19,Male,2024-04-16_15h10.57.408,jersey_experiment_5_v0,2023.2.2,Win32,85.47008547,,,,,,,,,,,,,,,,799.0558,800.3497,800.3498,801.9968,return,0.9917,,58.203125,,,,,,FBP-PT-18.png,0.4,1.2,53,0.5,,,,,,,,,,,,,0,18,18,52,1,,,,,,,,,,,,,,,,,,,,,,,,,,,,
,,,,,SPR24_052,19,Male,2024-04-16_15h10.57.408,jersey_experiment_5_v0,2023.2.2,Win32,85.47008547,,,,,,,,,,,,,,,,801.997,803.291,803.291,805.9145,return,1.9371,,39.32291667,,,,,,FBP-PT-17.png,0.35,1.2,46,0.5,,,,,,,,,,,,,0,19,19,45,1,,,,,,,,,,,,,,,,,,,,,,,,,,,,
,,,,,SPR24_052,19,Male,2024-04-16_15h10.57.408,jersey_experiment_5_v0,2023.2.2,Win32,85.47008547,,,,,,,,,,,,,,,,805.9148,806.9617,806.9617,809.0441,return,0.6679,,40.36458333,,,,,,FBP-RB-19.png,0.37,1.2,42,0.25,,,,,,,,,,,,,0,20,20,41,1,,,,,,,,,,,,,,,,,,,,,,,,,,,,
,,,,,SPR24_052,19,Male,2024-04-16_15h10.57.408,jersey_experiment_5_v0,2023.2.2,Win32,85.47008547,,,,,,,,,,,,,,,,809.0443,810.3382,810.3382,814.2914,return,0.6119,,70.57291667,,,,,,FBP-YG-19.png,0.45,1.2,30,0.5,,,,,,,,,,,,,0,21,21,29,1,,,,,,,,,,,,,,,,,,,,,,,,,,,,
,,,,,SPR24_052,19,Male,2024-04-16_15h10.57.408,jersey_experiment_5_v0,2023.2.2,Win32,85.47008547,,,,,,,,,,,,,,,,814.2917,815.3385,815.3386,817.9974,return,0.6522,,25.390625,,,,,,FBP-OG-81.png,0.37,1.2,7,0.25,,,,,,,,,,,,,0,22,22,6,1,,,,,,,,,,,,,,,,,,,,,,,,,,,,
,,,,,SPR24_052,19,Male,2024-04-16_15h10.57.408,jersey_experiment_5_v0,2023.2.2,Win32,85.47008547,,,,,,,,,,,,,,,,817.9976,819.0444,819.0444,821.4565,return,0.7681,,55.859375,,,,,,FBP-OG-91.png,0.43,1.2,14,0.25,,,,,,,,,,,,,0,23,23,13,1,,,,,,,,,,,,,,,,,,,,,,,,,,,,
,,,,,SPR24_052,19,Male,2024-04-16_15h10.57.408,jersey_experiment_5_v0,2023.2.2,Win32,85.47008547,,,,,,,,,,,,,,,,821.457,822.5035,822.5035,826.1389,return,1.6316,,37.109375,,,,,,FBP-OG-81.png,0.4,1.2,8,0.25,,,,,,,,,,,,,0,24,24,7,1,,,,,,,,,,,,,,,,,,,,,,,,,,,,
,,,,,SPR24_052,19,Male,2024-04-16_15h10.57.408,jersey_experiment_5_v0,2023.2.2,Win32,85.47008547,,,,,,,,,,,,,,,,826.1391,827.4329,827.4329,829.6331,return,0.7529,,6.380208333,,,,,,FBP-PT-18.png,0.35,1.2,51,0.5,,,,,,,,,,,,,0,25,25,50,1,,,,,,,,,,,,,,,,,,,,,,,,,,,,
,,,,,SPR24_052,19,Male,2024-04-16_15h10.57.408,jersey_experiment_5_v0,2023.2.2,Win32,85.47008547,,,,,,,,,,,,,,,,829.6333,830.9273,830.9273,832.8802,return,0.7198,,70.57291667,,,,,,FBP-YG-18.png,0.43,1.2,24,0.5,,,,,,,,,,,,,0,26,26,23,1,,,,,,,,,,,,,,,,,,,,,,,,,,,,
,,,,,SPR24_052,19,Male,2024-04-16_15h10.57.408,jersey_experiment_5_v0,2023.2.2,Win32,85.47008547,,,,,,,,,,,,,,,,832.8804,834.1745,834.1745,835.7745,return,0.9806,,83.203125,,,,,,FBP-PT-17.png,0.45,1.2,50,0.5,,,,,,,,,,,,,0,27,27,49,1,,,,,,,,,,,,,,,,,,,,,,,,,,,,
,,,,,SPR24_052,19,Male,2024-04-16_15h10.57.408,jersey_experiment_5_v0,2023.2.2,Win32,85.47008547,,,,,,,,,,,,,,,,835.7749,837.0687,837.0687,839.4099,return,0.6829,,38.28125,,,,,,FBP-PT-19.png,0.37,1.2,57,0.5,,,,,,,,,,,,,0,28,28,56,1,,,,,,,,,,,,,,,,,,,,,,,,,,,,
,,,,,SPR24_052,19,Male,2024-04-16_15h10.57.408,jersey_experiment_5_v0,2023.2.2,Win32,85.47008547,,,,,,,,,,,,,,,,839.4101,840.457,840.4571,842.4922,return,0.6978,,69.40104167,,,,,,FBP-RB-19.png,0.43,1.2,44,0.25,,,,,,,,,,,,,0,29,29,43,1,,,,,,,,,,,,,,,,,,,,,,,,,,,,
,,,,,SPR24_052,19,Male,2024-04-16_15h10.57.408,jersey_experiment_5_v0,2023.2.2,Win32,85.47008547,,,,,,,,,,,,,,,,842.4925,843.7866,843.7866,845.9984,return,0.5075,,70.3125,,,,,,FBP-PT-17.png,0.43,1.2,49,0.5,,,,,,,,,,,,,0,30,30,48,1,,,,,,,,,,,,,,,,,,,,,,,,,,,,
,,,,,SPR24_052,19,Male,2024-04-16_15h10.57.408,jersey_experiment_5_v0,2023.2.2,Win32,85.47008547,,,,,,,,,,,,,,,,845.9985,847.0454,847.0454,851.1869,return,3.1675,,51.04166667,,,,,,FBP-RB-19.png,0.4,1.2,43,0.25,,,,,,,,,,,,,0,31,31,42,1,,,,,,,,,,,,,,,,,,,,,,,,,,,,
,,,,,SPR24_052,19,Male,2024-04-16_15h10.57.408,jersey_experiment_5_v0,2023.2.2,Win32,85.47008547,,,,,,,,,,,,,,,,851.1871,852.481,852.481,854.387,return,1.2237,,74.73958333,,,,,,FBP-YG-17.png,0.45,1.2,20,0.5,,,,,,,,,,,,,0,32,32,19,1,,,,,,,,,,,,,,,,,,,,,,,,,,,,
,,,,,SPR24_052,19,Male,2024-04-16_15h10.57.408,jersey_experiment_5_v0,2023.2.2,Win32,85.47008547,,,,,,,,,,,,,,,,854.3872,855.6813,855.6813,857.9518,return,1.3912,,64.97395833,,,,,,FBP-PT-19.png,0.4,1.2,58,0.5,,,,,,,,,,,,,0,33,33,57,1,,,,,,,,,,,,,,,,,,,,,,,,,,,,
,,,,,SPR24_052,19,Male,2024-04-16_15h10.57.408,jersey_experiment_5_v0,2023.2.2,Win32,85.47008547,,,,,,,,,,,,,,,,857.952,858.9988,858.9989,862.5637,return,1.0118,,54.296875,,,,,,FBP-RB-19.png,0.35,1.2,41,0.25,,,,,,,,,,,,,0,34,34,40,1,,,,,,,,,,,,,,,,,,,,,,,,,,,,
,,,,,SPR24_052,19,Male,2024-04-16_15h10.57.408,jersey_experiment_5_v0,2023.2.2,Win32,85.47008547,,,,,,,,,,,,,,,,862.5638,863.8578,863.8578,865.1049,return,0.6602,,39.32291667,,,,,,FBP-PT-17.png,0.37,1.2,47,0.5,,,,,,,,,,,,,0,35,35,46,1,,,,,,,,,,,,,,,,,,,,,,,,,,,,
,,,,,SPR24_052,19,Male,2024-04-16_15h10.57.408,jersey_experiment_5_v0,2023.2.2,Win32,85.47008547,,,,,,,,,,,,,,,,865.1052,866.1521,866.1521,868.3521,return,0.7179,,38.54166667,,,,,,FBP-RB-18.png,0.37,1.2,37,0.25,,,,,,,,,,,,,0,36,36,36,1,,,,,,,,,,,,,,,,,,,,,,,,,,,,
,,,,,SPR24_052,19,Male,2024-04-16_15h10.57.408,jersey_experiment_5_v0,2023.2.2,Win32,85.47008547,,,,,,,,,,,,,,,,868.3524,869.3993,869.3993,871.5522,return,0.5764,,79.42708333,,,,,,FBP-OG-71.png,0.45,1.2,5,0.25,,,,,,,,,,,,,0,37,37,4,1,,,,,,,,,,,,,,,,,,,,,,,,,,,,
,,,,,SPR24_052,19,Male,2024-04-16_15h10.57.408,jersey_experiment_5_v0,2023.2.2,Win32,85.47008547,,,,,,,,,,,,,,,,871.5524,872.5996,872.5996,875.0701,return,0.6515,,39.19270833,,,,,,FBP-RB-17.png,0.35,1.2,31,0.25,,,,,,,,,,,,,0,38,38,30,1,,,,,,,,,,,,,,,,,,,,,,,,,,,,
,,,,,SPR24_052,19,Male,2024-04-16_15h10.57.408,jersey_experiment_5_v0,2023.2.2,Win32,85.47008547,,,,,,,,,,,,,,,,875.0703,876.1172,876.1172,877.6819,return,0.5652,,73.69791667,,,,,,FBP-OG-91.png,0.45,1.2,15,0.25,,,,,,,,,,,,,0,39,39,14,1,,,,,,,,,,,,,,,,,,,,,,,,,,,,
,,,,,SPR24_052,19,Male,2024-04-16_15h10.57.408,jersey_experiment_5_v0,2023.2.2,Win32,85.47008547,,,,,,,,,,,,,,,,877.6821,878.729,878.729,880.082,return,0.5556,,66.015625,,,,,,FBP-OG-81.png,0.43,1.2,9,0.25,,,,,,,,,,,,,0,40,40,8,1,,,,,,,,,,,,,,,,,,,,,,,,,,,,
,,,,,SPR24_052,19,Male,2024-04-16_15h10.57.408,jersey_experiment_5_v0,2023.2.2,Win32,85.47008547,,,,,,,,,,,,,,,,880.0822,881.3762,881.3762,883.1645,return,0.4649,,38.93229167,,,,,,FBP-YG-17.png,0.4,1.2,18,0.5,,,,,,,,,,,,,0,41,41,17,1,,,,,,,,,,,,,,,,,,,,,,,,,,,,
,,,,,SPR24_052,19,Male,2024-04-16_15h10.57.408,jersey_experiment_5_v0,2023.2.2,Win32,85.47008547,,,,,,,,,,,,,,,,883.1647,884.2115,884.2115,887.247,return,1.5803,,35.28645833,,,,,,FBP-OG-91.png,0.35,1.2,11,0.25,,,,,,,,,,,,,0,42,42,10,1,,,,,,,,,,,,,,,,,,,,,,,,,,,,
,,,,,SPR24_052,19,Male,2024-04-16_15h10.57.408,jersey_experiment_5_v0,2023.2.2,Win32,85.47008547,,,,,,,,,,,,,,,,887.2472,888.2942,888.2942,889.8237,return,0.5323,,25.390625,,,,,,FBP-OG-71.png,0.35,1.2,1,0.25,,,,,,,,,,,,,0,43,43,0,1,,,,,,,,,,,,,,,,,,,,,,,,,,,,
,,,,,SPR24_052,19,Male,2024-04-16_15h10.57.408,jersey_experiment_5_v0,2023.2.2,Win32,85.47008547,,,,,,,,,,,,,,,,889.8239,891.1178,891.1179,892.4355,return,0.6595,,24.08854167,,,,,,FBP-YG-19.png,0.37,1.2,27,0.5,,,,,,,,,,,,,0,44,44,26,1,,,,,,,,,,,,,,,,,,,,,,,,,,,,
,,,,,SPR24_052,19,Male,2024-04-16_15h10.57.408,jersey_experiment_5_v0,2023.2.2,Win32,85.47008547,,,,,,,,,,,,,,,,892.4357,893.4823,893.4824,895.2828,return,0.6262,,81.25,,,,,,FBP-RB-19.png,0.45,1.2,45,0.25,,,,,,,,,,,,,0,45,45,44,1,,,,,,,,,,,,,,,,,,,,,,,,,,,,
,,,,,SPR24_052,19,Male,2024-04-16_15h10.57.408,jersey_experiment_5_v0,2023.2.2,Win32,85.47008547,,,,,,,,,,,,,,,,895.2832,896.3297,896.3297,897.8591,return,0.6922,,87.76041667,,,,,,FBP-RB-17.png,0.45,1.2,35,0.25,,,,,,,,,,,,,0,46,46,34,1,,,,,,,,,,,,,,,,,,,,,,,,,,,,
,,,,,SPR24_052,19,Male,2024-04-16_15h10.57.408,jersey_experiment_5_v0,2023.2.2,Win32,85.47008547,,,,,,,,,,,,,,,,897.8594,898.9062,898.9062,900.6592,return,0.5884,,62.36979167,,,,,,FBP-OG-91.png,0.4,1.2,13,0.25,,,,,,,,,,,,,0,47,47,12,1,,,,,,,,,,,,,,,,,,,,,,,,,,,,
,,,,,SPR24_052,19,Male,2024-04-16_15h10.57.408,jersey_experiment_5_v0,2023.2.2,Win32,85.47008547,,,,,,,,,,,,,,,,900.6593,901.9533,901.9534,903.4593,return,0.5883,,7.421875,,,,,,FBP-PT-19.png,0.35,1.2,56,0.5,,,,,,,,,,,,,0,48,48,55,1,,,,,,,,,,,,,,,,,,,,,,,,,,,,
,,,,,SPR24_052,19,Male,2024-04-16_15h10.57.408,jersey_experiment_5_v0,2023.2.2,Win32,85.47008547,,,,,,,,,,,,,,,,903.4595,904.7534,904.7534,906.3536,return,0.6461,,8.854166667,,,,,,FBP-YG-17.png,0.37,1.2,17,0.5,,,,,,,,,,,,,0,49,49,16,1,,,,,,,,,,,,,,,,,,,,,,,,,,,,
,,,,,SPR24_052,19,Male,2024-04-16_15h10.57.408,jersey_experiment_5_v0,2023.2.2,Win32,85.47008547,,,,,,,,,,,,,,,,906.3537,907.6477,907.6477,910.2243,return,0.7768,,60.41666667,,,,,,FBP-PT-17.png,0.4,1.2,48,0.5,,,,,,,,,,,,,0,50,50,47,1,,,,,,,,,,,,,,,,,,,,,,,,,,,,
,,,,,SPR24_052,19,Male,2024-04-16_15h10.57.408,jersey_experiment_5_v0,2023.2.2,Win32,85.47008547,,,,,,,,,,,,,,,,910.2245,911.5185,911.5185,916.9774,return,2.767,,43.75,,,,,,FBP-PT-18.png,0.37,1.2,52,0.5,,,,,,,,,,,,,0,51,51,51,1,,,,,,,,,,,,,,,,,,,,,,,,,,,,
,,,,,SPR24_052,19,Male,2024-04-16_15h10.57.408,jersey_experiment_5_v0,2023.2.2,Win32,85.47008547,,,,,,,,,,,,,,,,916.9776,918.2717,918.2717,921.1658,return,1.9792,,32.55208333,,,,,,FBP-YG-18.png,0.35,1.2,21,0.5,,,,,,,,,,,,,0,52,52,20,1,,,,,,,,,,,,,,,,,,,,,,,,,,,,
,,,,,SPR24_052,19,Male,2024-04-16_15h10.57.408,jersey_experiment_5_v0,2023.2.2,Win32,85.47008547,,,,,,,,,,,,,,,,921.166,922.2129,922.2129,924.3188,return,0.6744,,30.98958333,,,,,,FBP-OG-81.png,0.35,1.2,6,0.25,,,,,,,,,,,,,0,53,53,5,1,,,,,,,,,,,,,,,,,,,,,,,,,,,,
,,,,,SPR24_052,19,Male,2024-04-16_15h10.57.408,jersey_experiment_5_v0,2023.2.2,Win32,85.47008547,,,,,,,,,,,,,,,,924.3191,925.6132,925.6132,929.1192,return,0.6737,,40.49479167,,,,,,FBP-YG-19.png,0.4,1.2,28,0.5,,,,,,,,,,,,,0,54,54,27,1,,,,,,,,,,,,,,,,,,,,,,,,,,,,
,,,,,SPR24_052,19,Male,2024-04-16_15h10.57.408,jersey_experiment_5_v0,2023.2.2,Win32,85.47008547,,,,,,,,,,,,,,,,929.1196,930.1662,930.1662,932.4957,return,1.0943,,72.65625,,,,,,FBP-RB-18.png,0.43,1.2,39,0.25,,,,,,,,,,,,,0,55,55,38,1,,,,,,,,,,,,,,,,,,,,,,,,,,,,
,,,,,SPR24_052,19,Male,2024-04-16_15h10.57.408,jersey_experiment_5_v0,2023.2.2,Win32,85.47008547,,,,,,,,,,,,,,,,932.4959,933.7898,933.7898,936.6606,return,1.5771,,67.31770833,,,,,,FBP-YG-18.png,0.4,1.2,23,0.5,,,,,,,,,,,,,0,56,56,22,1,,,,,,,,,,,,,,,,,,,,,,,,,,,,
,,,,,SPR24_052,19,Male,2024-04-16_15h10.57.408,jersey_experiment_5_v0,2023.2.2,Win32,85.47008547,,,,,,,,,,,,,,,,936.6609,937.9546,937.9547,939.4842,return,0.759,,79.16666667,,,,,,FBP-PT-19.png,0.45,1.2,60,0.5,,,,,,,,,,,,,0,57,57,59,1,,,,,,,,,,,,,,,,,,,,,,,,,,,,
,,,,,SPR24_052,19,Male,2024-04-16_15h10.57.408,jersey_experiment_5_v0,2023.2.2,Win32,85.47008547,,,,,,,,,,,,,,,,939.4845,940.7782,940.7782,943.4373,return,0.6735,,47.00520833,,,,,,FBP-YG-18.png,0.37,1.2,22,0.5,,,,,,,,,,,,,0,58,58,21,1,,,,,,,,,,,,,,,,,,,,,,,,,,,,
,,,,,SPR24_052,19,Male,2024-04-16_15h10.57.408,jersey_experiment_5_v0,2023.2.2,Win32,85.47008547,,,,,,,,,,,,,,,,943.4376,944.4845,944.4845,946.7787,return,0.7935,,43.359375,,,,,,FBP-OG-91.png,0.37,1.2,12,0.25,,,,,,,,,,,,,0,59,59,11,1,,,,,,,,,,,,,,,,,,,,,,,,,,,,
,,,,,SPR24_052,19,Male,2024-04-16_15h10.57.408,jersey_experiment_5_v0,2023.2.2,Win32,85.47008547,,,,,,,,,,,,,,,,946.7805,947.8256,947.8256,950.6257,return,0.6591,,84.375,,,,,,FBP-RB-71.png,0.45,1.2,35,0.25,,,,,,,,,,,,,,,,,,0,0,0,34,1,,,,,,,,,,,,,,,,,,,,,,,
,,,,,SPR24_052,19,Male,2024-04-16_15h10.57.408,jersey_experiment_5_v0,2023.2.2,Win32,85.47008547,,,,,,,,,,,,,,,,950.626,951.9198,951.9199,956.3553,return,0.6355,,44.140625,,,,,,FBP-PT-91.png,0.35,1.2,56,0.5,,,,,,,,,,,,,,,,,,0,1,1,55,1,,,,,,,,,,,,,,,,,,,,,,,
,,,,,SPR24_052,19,Male,2024-04-16_15h10.57.408,jersey_experiment_5_v0,2023.2.2,Win32,85.47008547,,,,,,,,,,,,,,,,956.3555,957.6494,957.6495,959.473,return,0.6354,,69.01041667,,,,,,FBP-YG-71.png,0.45,1.2,20,0.5,,,,,,,,,,,,,,,,,,0,2,2,19,1,,,,,,,,,,,,,,,,,,,,,,,
,,,,,SPR24_052,19,Male,2024-04-16_15h10.57.408,jersey_experiment_5_v0,2023.2.2,Win32,85.47008547,,,,,,,,,,,,,,,,959.4732,960.5202,960.5202,963.2497,return,1.1538,,30.59895833,,,,,,FBP-RB-71.png,0.35,1.2,31,0.25,,,,,,,,,,,,,,,,,,0,3,3,30,1,,,,,,,,,,,,,,,,,,,,,,,
,,,,,SPR24_052,19,Male,2024-04-16_15h10.57.408,jersey_experiment_5_v0,2023.2.2,Win32,85.47008547,,,,,,,,,,,,,,,,963.2499,964.2968,964.2968,967.4851,return,1.2052,,64.84375,,,,,,FBP-RB-71.png,0.4,1.2,33,0.25,,,,,,,,,,,,,,,,,,0,4,4,32,1,,,,,,,,,,,,,,,,,,,,,,,
,,,,,SPR24_052,19,Male,2024-04-16_15h10.57.408,jersey_experiment_5_v0,2023.2.2,Win32,85.47008547,,,,,,,,,,,,,,,,967.4854,968.7793,968.7793,971.203,return,0.6353,,74.609375,,,,,,FBP-YG-81.png,0.43,1.2,24,0.5,,,,,,,,,,,,,,,,,,0,5,5,23,1,,,,,,,,,,,,,,,,,,,,,,,
,,,,,SPR24_052,19,Male,2024-04-16_15h10.57.408,jersey_experiment_5_v0,2023.2.2,Win32,85.47008547,,,,,,,,,,,,,,,,971.2031,972.25,972.25,974.862,return,0.7457,,77.86458333,,,,,,FBP-RB-91.png,0.43,1.2,44,0.25,,,,,,,,,,,,,,,,,,0,6,6,43,1,,,,,,,,,,,,,,,,,,,,,,,
,,,,,SPR24_052,19,Male,2024-04-16_15h10.57.408,jersey_experiment_5_v0,2023.2.2,Win32,85.47008547,,,,,,,,,,,,,,,,974.8623,975.909,975.909,978.015,return,0.9096,,64.0625,,,,,,FBP-RB-91.png,0.37,1.2,42,0.25,,,,,,,,,,,,,,,,,,0,7,7,41,1,,,,,,,,,,,,,,,,,,,,,,,
,,,,,SPR24_052,19,Male,2024-04-16_15h10.57.408,jersey_experiment_5_v0,2023.2.2,Win32,85.47008547,,,,,,,,,,,,,,,,978.0152,979.3092,979.3092,981.5682,return,0.9551,,78.38541667,,,,,,FBP-PT-91.png,0.43,1.2,59,0.5,,,,,,,,,,,,,,,,,,0,8,8,58,1,,,,,,,,,,,,,,,,,,,,,,,
,,,,,SPR24_052,19,Male,2024-04-16_15h10.57.408,jersey_experiment_5_v0,2023.2.2,Win32,85.47008547,,,,,,,,,,,,,,,,981.5683,982.8623,982.8623,984.274,return,0.7763,,85.67708333,,,,,,FBP-PT-71.png,0.45,1.2,50,0.5,,,,,,,,,,,,,,,,,,0,9,9,49,1,,,,,,,,,,,,,,,,,,,,,,,
,,,,,SPR24_052,19,Male,2024-04-16_15h10.57.408,jersey_experiment_5_v0,2023.2.2,Win32,85.47008547,,,,,,,,,,,,,,,,984.2742,985.3212,985.3213,987.3801,return,0.6267,,43.359375,,,,,,FBP-RB-81.png,0.37,1.2,37,0.25,,,,,,,,,,,,,,,,,,0,10,10,36,1,,,,,,,,,,,,,,,,,,,,,,,
,,,,,SPR24_052,19,Male,2024-04-16_15h10.57.408,jersey_experiment_5_v0,2023.2.2,Win32,85.47008547,,,,,,,,,,,,,,,,987.3803,988.4272,988.4272,991.8861,return,0.6021,,42.44791667,,,,,,FBP-RB-91.png,0.35,1.2,41,0.25,,,,,,,,,,,,,,,,,,0,11,11,40,1,,,,,,,,,,,,,,,,,,,,,,,
,,,,,SPR24_052,19,Male,2024-04-16_15h10.57.408,jersey_experiment_5_v0,2023.2.2,Win32,85.47008547,,,,,,,,,,,,,,,,991.8863,992.9332,992.9332,995.604,return,1.9532,,39.71354167,,,,,,FBP-OG-18.png,0.37,1.2,7,0.25,,,,,,,,,,,,,,,,,,0,12,12,6,1,,,,,,,,,,,,,,,,,,,,,,,
,,,,,SPR24_052,19,Male,2024-04-16_15h10.57.408,jersey_experiment_5_v0,2023.2.2,Win32,85.47008547,,,,,,,,,,,,,,,,995.6042,996.898,996.8981,1001.4394,return,0.6239,,77.86458333,,,,,,FBP-YG-91.png,0.45,1.2,30,0.5,,,,,,,,,,,,,,,,,,0,13,13,29,1,,,,,,,,,,,,,,,,,,,,,,,
,,,,,SPR24_052,19,Male,2024-04-16_15h10.57.408,jersey_experiment_5_v0,2023.2.2,Win32,85.47008547,,,,,,,,,,,,,,,,1001.4396,1002.7335,1002.7336,1004.9454,return,1.0835,,35.41666667,,,,,,FBP-PT-81.png,0.35,1.2,51,0.5,,,,,,,,,,,,,,,,,,0,14,14,50,1,,,,,,,,,,,,,,,,,,,,,,,
,,,,,SPR24_052,19,Male,2024-04-16_15h10.57.408,jersey_experiment_5_v0,2023.2.2,Win32,85.47008547,,,,,,,,,,,,,,,,1004.9456,1005.9925,1005.9925,1008.0278,return,0.6989,,76.69270833,,,,,,FBP-OG-17.png,0.45,1.2,5,0.25,,,,,,,,,,,,,,,,,,0,15,15,4,1,,,,,,,,,,,,,,,,,,,,,,,
,,,,,SPR24_052,19,Male,2024-04-16_15h10.57.408,jersey_experiment_5_v0,2023.2.2,Win32,85.47008547,,,,,,,,,,,,,,,,1008.0281,1009.075,1009.075,1010.5926,return,0.6373,,85.15625,,,,,,FBP-OG-18.png,0.45,1.2,10,0.25,,,,,,,,,,,,,,,,,,0,16,16,9,1,,,,,,,,,,,,,,,,,,,,,,,
,,,,,SPR24_052,19,Male,2024-04-16_15h10.57.408,jersey_experiment_5_v0,2023.2.2,Win32,85.47008547,,,,,,,,,,,,,,,,1010.5928,1011.8868,1011.8868,1014.8047,return,2.0105,,34.11458333,,,,,,FBP-YG-71.png,0.35,1.2,16,0.5,,,,,,,,,,,,,,,,,,0,17,17,15,1,,,,,,,,,,,,,,,,,,,,,,,
,,,,,SPR24_052,19,Male,2024-04-16_15h10.57.408,jersey_experiment_5_v0,2023.2.2,Win32,85.47008547,,,,,,,,,,,,,,,,1014.8048,1015.8517,1015.8518,1018.5106,return,0.6608,,36.45833333,,,,,,FBP-OG-17.png,0.37,1.2,2,0.25,,,,,,,,,,,,,,,,,,0,18,18,1,1,,,,,,,,,,,,,,,,,,,,,,,
,,,,,SPR24_052,19,Male,2024-04-16_15h10.57.408,jersey_experiment_5_v0,2023.2.2,Win32,85.47008547,,,,,,,,,,,,,,,,1018.5108,1019.5577,1019.5577,1021.6638,return,1.1305,,29.6875,,,,,,FBP-OG-17.png,0.35,1.2,1,0.25,,,,,,,,,,,,,,,,,,0,19,19,0,1,,,,,,,,,,,,,,,,,,,,,,,
,,,,,SPR24_052,19,Male,2024-04-16_15h10.57.408,jersey_experiment_5_v0,2023.2.2,Win32,85.47008547,,,,,,,,,,,,,,,,1021.664,1022.9579,1022.9579,1024.5695,return,0.6205,,25.65104167,,,,,,FBP-PT-91.png,0.4,1.2,58,0.5,,,,,,,,,,,,,,,,,,0,20,20,57,1,,,,,,,,,,,,,,,,,,,,,,,
,,,,,SPR24_052,19,Male,2024-04-16_15h10.57.408,jersey_experiment_5_v0,2023.2.2,Win32,85.47008547,,,,,,,,,,,,,,,,1024.5698,1025.6168,1025.6169,1027.5345,return,0.5312,,25,,,,,,FBP-OG-18.png,0.4,1.2,8,0.25,,,,,,,,,,,,,,,,,,0,21,21,7,1,,,,,,,,,,,,,,,,,,,,,,,
,,,,,SPR24_052,19,Male,2024-04-16_15h10.57.408,jersey_experiment_5_v0,2023.2.2,Win32,85.47008547,,,,,,,,,,,,,,,,1027.5347,1028.5816,1028.5816,1032.3699,return,0.6492,,24.86979167,,,,,,FBP-OG-18.png,0.35,1.2,6,0.25,,,,,,,,,,,,,,,,,,0,22,22,5,1,,,,,,,,,,,,,,,,,,,,,,,
,,,,,SPR24_052,19,Male,2024-04-16_15h10.57.408,jersey_experiment_5_v0,2023.2.2,Win32,85.47008547,,,,,,,,,,,,,,,,1032.3701,1033.417,1033.417,1035.6523,return,0.9977,,25,,,,,,FBP-RB-71.png,0.37,1.2,32,0.25,,,,,,,,,,,,,,,,,,0,23,23,31,1,,,,,,,,,,,,,,,,,,,,,,,
,,,,,SPR24_052,19,Male,2024-04-16_15h10.57.408,jersey_experiment_5_v0,2023.2.2,Win32,85.47008547,,,,,,,,,,,,,,,,1035.6525,1036.9466,1036.9466,1038.876,return,0.7681,,24.08854167,,,,,,FBP-PT-71.png,0.37,1.2,47,0.5,,,,,,,,,,,,,,,,,,0,24,24,46,1,,,,,,,,,,,,,,,,,,,,,,,
,,,,,SPR24_052,19,Male,2024-04-16_15h10.57.408,jersey_experiment_5_v0,2023.2.2,Win32,85.47008547,,,,,,,,,,,,,,,,1038.8762,1040.1702,1040.1703,1042.5704,return,1.3728,,65.88541667,,,,,,FBP-YG-91.png,0.43,1.2,29,0.5,,,,,,,,,,,,,,,,,,0,25,25,28,1,,,,,,,,,,,,,,,,,,,,,,,
,,,,,SPR24_052,19,Male,2024-04-16_15h10.57.408,jersey_experiment_5_v0,2023.2.2,Win32,85.47008547,,,,,,,,,,,,,,,,1042.5706,1043.6175,1043.6175,1046.1587,return,0.5896,,59.63541667,,,,,,FBP-OG-19.png,0.4,1.2,13,0.25,,,,,,,,,,,,,,,,,,0,26,26,12,1,,,,,,,,,,,,,,,,,,,,,,,
,,,,,SPR24_052,19,Male,2024-04-16_15h10.57.408,jersey_experiment_5_v0,2023.2.2,Win32,85.47008547,,,,,,,,,,,,,,,,1046.159,1047.2058,1047.2059,1048.8647,return,0.7059,,80.46875,,,,,,FBP-RB-91.png,0.45,1.2,45,0.25,,,,,,,,,,,,,,,,,,0,27,27,44,1,,,,,,,,,,,,,,,,,,,,,,,
,,,,,SPR24_052,19,Male,2024-04-16_15h10.57.408,jersey_experiment_5_v0,2023.2.2,Win32,85.47008547,,,,,,,,,,,,,,,,1048.8649,1050.1588,1050.1589,1052.2413,return,1.225,,65.88541667,,,,,,FBP-YG-91.png,0.4,1.2,28,0.5,,,,,,,,,,,,,,,,,,0,28,28,27,1,,,,,,,,,,,,,,,,,,,,,,,
,,,,,SPR24_052,19,Male,2024-04-16_15h10.57.408,jersey_experiment_5_v0,2023.2.2,Win32,85.47008547,,,,,,,,,,,,,,,,1052.2415,1053.5354,1053.5354,1058.2064,return,3.3336,,72.13541667,,,,,,FBP-PT-81.png,0.43,1.2,54,0.5,,,,,,,,,,,,,,,,,,0,29,29,53,1,,,,,,,,,,,,,,,,,,,,,,,
,,,,,SPR24_052,19,Male,2024-04-16_15h10.57.408,jersey_experiment_5_v0,2023.2.2,Win32,85.47008547,,,,,,,,,,,,,,,,1058.2066,1059.2533,1059.2533,1061.3122,return,0.6116,,63.93229167,,,,,,FBP-RB-91.png,0.4,1.2,43,0.25,,,,,,,,,,,,,,,,,,0,30,30,42,1,,,,,,,,,,,,,,,,,,,,,,,
,,,,,SPR24_052,19,Male,2024-04-16_15h10.57.408,jersey_experiment_5_v0,2023.2.2,Win32,85.47008547,,,,,,,,,,,,,,,,1061.3125,1062.3592,1062.3593,1064.1946,return,0.7529,,77.99479167,,,,,,FBP-RB-81.png,0.45,1.2,40,0.25,,,,,,,,,,,,,,,,,,0,31,31,39,1,,,,,,,,,,,,,,,,,,,,,,,
,,,,,SPR24_052,19,Male,2024-04-16_15h10.57.408,jersey_experiment_5_v0,2023.2.2,Win32,85.47008547,,,,,,,,,,,,,,,,1064.1947,1065.4888,1065.4889,1068.6653,return,2.3005,,42.1875,,,,,,FBP-YG-91.png,0.35,1.2,26,0.5,,,,,,,,,,,,,,,,,,0,32,32,25,1,,,,,,,,,,,,,,,,,,,,,,,
,,,,,SPR24_052,19,Male,2024-04-16_15h10.57.408,jersey_experiment_5_v0,2023.2.2,Win32,85.47008547,,,,,,,,,,,,,,,,1068.6655,1069.9595,1069.9595,1071.7007,return,1.0211,,42.1875,,,,,,FBP-PT-71.png,0.4,1.2,48,0.5,,,,,,,,,,,,,,,,,,0,33,33,47,1,,,,,,,,,,,,,,,,,,,,,,,
,,,,,SPR24_052,19,Male,2024-04-16_15h10.57.408,jersey_experiment_5_v0,2023.2.2,Win32,85.47008547,,,,,,,,,,,,,,,,1071.7009,1072.9949,1072.9949,1074.7009,return,0.7703,,41.66666667,,,,,,FBP-YG-81.png,0.4,1.2,23,0.5,,,,,,,,,,,,,,,,,,0,34,34,22,1,,,,,,,,,,,,,,,,,,,,,,,
,,,,,SPR24_052,19,Male,2024-04-16_15h10.57.408,jersey_experiment_5_v0,2023.2.2,Win32,85.47008547,,,,,,,,,,,,,,,,1074.7012,1075.995,1075.9951,1078.0775,return,0.6737,,42.44791667,,,,,,FBP-YG-71.png,0.4,1.2,18,0.5,,,,,,,,,,,,,,,,,,0,35,35,17,1,,,,,,,,,,,,,,,,,,,,,,,
,,,,,SPR24_052,19,Male,2024-04-16_15h10.57.408,jersey_experiment_5_v0,2023.2.2,Win32,85.47008547,,,,,,,,,,,,,,,,1078.0776,1079.1246,1079.1246,1083.1954,return,2.3249,,43.22916667,,,,,,FBP-RB-81.png,0.4,1.2,38,0.25,,,,,,,,,,,,,,,,,,0,36,36,37,1,,,,,,,,,,,,,,,,,,,,,,,
,,,,,SPR24_052,19,Male,2024-04-16_15h10.57.408,jersey_experiment_5_v0,2023.2.2,Win32,85.47008547,,,,,,,,,,,,,,,,1083.1956,1084.4895,1084.4896,1086.0426,return,0.7588,,42.44791667,,,,,,FBP-PT-81.png,0.4,1.2,53,0.5,,,,,,,,,,,,,,,,,,0,37,37,52,1,,,,,,,,,,,,,,,,,,,,,,,
,,,,,SPR24_052,19,Male,2024-04-16_15h10.57.408,jersey_experiment_5_v0,2023.2.2,Win32,85.47008547,,,,,,,,,,,,,,,,1086.0429,1087.3366,1087.3367,1089.5486,return,1.2268,,61.71875,,,,,,FBP-YG-71.png,0.43,1.2,19,0.5,,,,,,,,,,,,,,,,,,0,38,38,18,1,,,,,,,,,,,,,,,,,,,,,,,
,,,,,SPR24_052,19,Male,2024-04-16_15h10.57.408,jersey_experiment_5_v0,2023.2.2,Win32,85.47008547,,,,,,,,,,,,,,,,1089.5488,1090.8427,1090.8427,1092.9486,return,0.6689,,52.99479167,,,,,,FBP-YG-81.png,0.37,1.2,22,0.5,,,,,,,,,,,,,,,,,,0,39,39,21,1,,,,,,,,,,,,,,,,,,,,,,,
,,,,,SPR24_052,19,Male,2024-04-16_15h10.57.408,jersey_experiment_5_v0,2023.2.2,Win32,85.47008547,,,,,,,,,,,,,,,,1092.9487,1094.2427,1094.2427,1097.4194,return,1.4425,,40.49479167,,,,,,FBP-PT-71.png,0.35,1.2,46,0.5,,,,,,,,,,,,,,,,,,0,40,40,45,1,,,,,,,,,,,,,,,,,,,,,,,
,,,,,SPR24_052,19,Male,2024-04-16_15h10.57.408,jersey_experiment_5_v0,2023.2.2,Win32,85.47008547,,,,,,,,,,,,,,,,1097.4197,1098.7136,1098.7136,1101.8549,return,2.2981,,83.203125,,,,,,FBP-YG-81.png,0.45,1.2,25,0.5,,,,,,,,,,,,,,,,,,0,41,41,24,1,,,,,,,,,,,,,,,,,,,,,,,
,,,,,SPR24_052,19,Male,2024-04-16_15h10.57.408,jersey_experiment_5_v0,2023.2.2,Win32,85.47008547,,,,,,,,,,,,,,,,1101.8552,1102.9019,1102.9019,1104.6904,return,0.5742,,75.52083333,,,,,,FBP-OG-17.png,0.43,1.2,4,0.25,,,,,,,,,,,,,,,,,,0,42,42,3,1,,,,,,,,,,,,,,,,,,,,,,,
,,,,,SPR24_052,19,Male,2024-04-16_15h10.57.408,jersey_experiment_5_v0,2023.2.2,Win32,85.47008547,,,,,,,,,,,,,,,,1104.6904,1105.9843,1105.9843,1107.1963,return,0.8512,,75.390625,,,,,,FBP-PT-71.png,0.43,1.2,49,0.5,,,,,,,,,,,,,,,,,,0,43,43,48,1,,,,,,,,,,,,,,,,,,,,,,,
,,,,,SPR24_052,19,Male,2024-04-16_15h10.57.408,jersey_experiment_5_v0,2023.2.2,Win32,85.47008547,,,,,,,,,,,,,,,,1107.1964,1108.2432,1108.2432,1109.7612,return,0.6962,,69.79166667,,,,,,FBP-OG-18.png,0.43,1.2,9,0.25,,,,,,,,,,,,,,,,,,0,44,44,8,1,,,,,,,,,,,,,,,,,,,,,,,
,,,,,SPR24_052,19,Male,2024-04-16_15h10.57.408,jersey_experiment_5_v0,2023.2.2,Win32,85.47008547,,,,,,,,,,,,,,,,1109.7614,1110.8081,1110.8082,1112.5729,return,0.6261,,69.140625,,,,,,FBP-RB-71.png,0.43,1.2,34,0.25,,,,,,,,,,,,,,,,,,0,45,45,33,1,,,,,,,,,,,,,,,,,,,,,,,
,,,,,SPR24_052,19,Male,2024-04-16_15h10.57.408,jersey_experiment_5_v0,2023.2.2,Win32,85.47008547,,,,,,,,,,,,,,,,1112.5731,1113.62,1113.62,1115.2672,return,0.7905,,72.78645833,,,,,,FBP-OG-19.png,0.45,1.2,15,0.25,,,,,,,,,,,,,,,,,,0,46,46,14,1,,,,,,,,,,,,,,,,,,,,,,,
,,,,,SPR24_052,19,Male,2024-04-16_15h10.57.408,jersey_experiment_5_v0,2023.2.2,Win32,85.47008547,,,,,,,,,,,,,,,,1115.2674,1116.3141,1116.3142,1118.6084,return,0.8379,,30.59895833,,,,,,FBP-RB-81.png,0.35,1.2,36,0.25,,,,,,,,,,,,,,,,,,0,47,47,35,1,,,,,,,,,,,,,,,,,,,,,,,
,,,,,SPR24_052,19,Male,2024-04-16_15h10.57.408,jersey_experiment_5_v0,2023.2.2,Win32,85.47008547,,,,,,,,,,,,,,,,1118.6087,1119.9026,1119.9026,1122.0675,return,1.591,,26.82291667,,,,,,FBP-YG-71.png,0.37,1.2,17,0.5,,,,,,,,,,,,,,,,,,0,48,48,16,1,,,,,,,,,,,,,,,,,,,,,,,
,,,,,SPR24_052,19,Male,2024-04-16_15h10.57.408,jersey_experiment_5_v0,2023.2.2,Win32,85.47008547,,,,,,,,,,,,,,,,1122.0677,1123.3615,1123.3616,1125.6676,return,1.4972,,26.30208333,,,,,,FBP-PT-81.png,0.37,1.2,52,0.5,,,,,,,,,,,,,,,,,,0,49,49,51,1,,,,,,,,,,,,,,,,,,,,,,,
,,,,,SPR24_052,19,Male,2024-04-16_15h10.57.408,jersey_experiment_5_v0,2023.2.2,Win32,85.47008547,,,,,,,,,,,,,,,,1125.6678,1126.7147,1126.7147,1130.0678,return,1.4973,,33.46354167,,,,,,FBP-OG-17.png,0.4,1.2,3,0.25,,,,,,,,,,,,,,,,,,0,50,50,2,1,,,,,,,,,,,,,,,,,,,,,,,
,,,,,SPR24_052,19,Male,2024-04-16_15h10.57.408,jersey_experiment_5_v0,2023.2.2,Win32,85.47008547,,,,,,,,,,,,,,,,1130.068,1131.1148,1131.1148,1132.8208,return,0.8463,,29.55729167,,,,,,FBP-OG-19.png,0.37,1.2,12,0.25,,,,,,,,,,,,,,,,,,0,51,51,11,1,,,,,,,,,,,,,,,,,,,,,,,
,,,,,SPR24_052,19,Male,2024-04-16_15h10.57.408,jersey_experiment_5_v0,2023.2.2,Win32,85.47008547,,,,,,,,,,,,,,,,1132.8211,1134.1151,1134.1152,1135.6679,return,0.7194,,29.55729167,,,,,,FBP-YG-81.png,0.35,1.2,21,0.5,,,,,,,,,,,,,,,,,,0,52,52,20,1,,,,,,,,,,,,,,,,,,,,,,,
,,,,,SPR24_052,19,Male,2024-04-16_15h10.57.408,jersey_experiment_5_v0,2023.2.2,Win32,85.47008547,,,,,,,,,,,,,,,,1135.6682,1136.962,1136.9621,1140.6445,return,1.916,,35.02604167,,,,,,FBP-PT-91.png,0.37,1.2,57,0.5,,,,,,,,,,,,,,,,,,0,53,53,56,1,,,,,,,,,,,,,,,,,,,,,,,
,,,,,SPR24_052,19,Male,2024-04-16_15h10.57.408,jersey_experiment_5_v0,2023.2.2,Win32,85.47008547,,,,,,,,,,,,,,,,1140.6448,1141.9386,1141.9387,1143.9977,return,1.1081,,78.64583333,,,,,,FBP-PT-81.png,0.45,1.2,55,0.5,,,,,,,,,,,,,,,,,,0,54,54,54,1,,,,,,,,,,,,,,,,,,,,,,,
,,,,,SPR24_052,19,Male,2024-04-16_15h10.57.408,jersey_experiment_5_v0,2023.2.2,Win32,85.47008547,,,,,,,,,,,,,,,,1143.9979,1145.0446,1145.0447,1147.1037,return,0.6356,,74.34895833,,,,,,FBP-OG-19.png,0.43,1.2,14,0.25,,,,,,,,,,,,,,,,,,0,55,55,13,1,,,,,,,,,,,,,,,,,,,,,,,
,,,,,SPR24_052,19,Male,2024-04-16_15h10.57.408,jersey_experiment_5_v0,2023.2.2,Win32,85.47008547,,,,,,,,,,,,,,,,1147.1038,1148.3978,1148.3979,1150.1156,return,0.8934,,81.25,,,,,,FBP-PT-91.png,0.45,1.2,60,0.5,,,,,,,,,,,,,,,,,,0,56,56,59,1,,,,,,,,,,,,,,,,,,,,,,,
,,,,,SPR24_052,19,Male,2024-04-16_15h10.57.408,jersey_experiment_5_v0,2023.2.2,Win32,85.47008547,,,,,,,,,,,,,,,,1150.1159,1151.1627,1151.1627,1153.2097,return,0.95,,41.92708333,,,,,,FBP-OG-19.png,0.35,1.2,11,0.25,,,,,,,,,,,,,,,,,,0,57,57,10,1,,,,,,,,,,,,,,,,,,,,,,,
,,,,,SPR24_052,19,Male,2024-04-16_15h10.57.408,jersey_experiment_5_v0,2023.2.2,Win32,85.47008547,,,,,,,,,,,,,,,,1153.21,1154.5039,1154.5039,1155.9862,return,0.7389,,35.9375,,,,,,FBP-YG-91.png,0.37,1.2,27,0.5,,,,,,,,,,,,,,,,,,0,58,58,26,1,,,,,,,,,,,,,,,,,,,,,,,
,,,,,SPR24_052,19,Male,2024-04-16_15h10.57.408,jersey_experiment_5_v0,2023.2.2,Win32,85.47008547,,,,,,,,,,,,,,,,1155.9865,1157.0334,1157.0335,1158.7864,return,0.6354,,71.22395833,,,,,,FBP-RB-81.png,0.43,1.2,39,0.25,,,,,,,,,,,,,,,,,,0,59,59,38,1,,,,,,,,,,,,,,,,,,,,,,,
,,,,,SPR24_052,19,Male,2024-04-16_15h10.57.408,jersey_experiment_5_v0,2023.2.2,Win32,85.47008547,,,,,,,,,,,,,,,,,,,,,,,,,,,,,,,,,,,,,,,,,,,,,,,,,,,,,,,,1158.7868,1165.9634,return,7.1698,,,,,,,,,,,,,,,,,,,
,,,,,SPR24_052,19,Male,2024-04-16_15h10.57.408,jersey_experiment_5_v0,2023.2.2,Win32,85.47008547,,,,,,,,,,,,,,,,,,,,,,,,,,,,,,,,,,,,,,,,,,,,,,,,,,,,,,,,,,,,,1165.9635,1175.3637,1,6.3156,return,3.0588,,,,,,,,,,,,
,,,,,SPR24_052,19,Male,2024-04-16_15h10.57.408,jersey_experiment_5_v0,2023.2.2,Win32,85.47008547,,,,,,,,,,,,,,,,,,,,,,,,,,,,,,,,,,,,,,,,,,,,,,,,,,,,,,,,,,,,,,,,,,,,1175.3639,1368.9525,"Possibly on the effect that perspectives on skin color have on perception of physical size. It seemed that football players of the same size were showed one after another, but sometimes with a different skin color. It also seemed that certain sizes of football players were returned to after showing football players with a very different size.",right,178.5935,,,,,,
,,,,,SPR24_052,19,Male,2024-04-16_15h10.57.408,jersey_experiment_5_v0,2023.2.2,Win32,85.47008547,,,,,,,,,,,,,,,,,,,,,,,,,,,,,,,,,,,,,,,,,,,,,,,,,,,,,,,,,,,,,,,,,,,,,,,,,,1368.9525,1374.0417,return,5.0852,