requirements.started,requirements.stopped,key_resp_3.keys,key_resp_3.rt,key_resp_3.duration,Subject ID,Age,Gender,date,expName,psychopyVersion,OS,frameRate,instructions1.started,instructions1.stopped,key_resp.keys,key_resp.rt,key_resp.duration,example.started,example.stopped,enter_2.keys,enter_2.rt,enter_2.duration,instructions2.started,instructions2.stopped,enter_3.keys,enter_3.rt,enter_3.duration,image.started,image.stopped,slider_2.started,slider_2.stopped,next.keys,next.rt,next.duration,slider.response,trial_block_1.thisRepN,trial_block_1.thisTrialN,trial_block_1.thisN,trial_block_1.thisIndex,trial_block_1.ran,Path,Width,Height,Index,Duration,trial_block_2.thisRepN,trial_block_2.thisTrialN,trial_block_2.thisN,trial_block_2.thisIndex,trial_block_2.ran,rest_break.started,rest_break.stopped,end_break.started,end_break.stopped,key_resp_5.keys,key_resp_5.rt,key_resp_5.duration,trial_block_3.thisRepN,trial_block_3.thisTrialN,trial_block_3.thisN,trial_block_3.thisIndex,trial_block_3.ran,trial_block_4.thisRepN,trial_block_4.thisTrialN,trial_block_4.thisN,trial_block_4.thisIndex,trial_block_4.ran,questions_intro.started,questions_intro.stopped,enter_12.keys,enter_12.rt,enter_12.duration,question2.started,question2.stopped,question_doingbest.response,question_doingbest.rt,enter_15.keys,enter_15.rt,enter_15.duration,pattern.started,pattern.stopped,pattern_2.text,enter_17.keys,enter_17.rt,enter_17.duration,thankyou.started,thankyou.stopped,enter_14.keys,enter_14.rt,enter_14.duration
0.0002,15.3196,return,15.3147,,SPR24_071,20,Female,2024-04-19_10h05.03.949,jersey_experiment_5_v0,2023.2.2,Win32,84.74576271,,,,,,,,,,,,,,,,,,,,,,,,,,,,,,,,,,,,,,,,,,,,,,,,,,,,,,,,,,,,,,,,,,,,,,,,,,,,,,
,,,,,SPR24_071,20,Female,2024-04-19_10h05.03.949,jersey_experiment_5_v0,2023.2.2,Win32,84.74576271,15.3198,25.0173,return,9.6866,,,,,,,,,,,,,,,,,,,,,,,,,,,,,,,,,,,,,,,,,,,,,,,,,,,,,,,,,,,,,,,,,,,,,,,,,,
,,,,,SPR24_071,20,Female,2024-04-19_10h05.03.949,jersey_experiment_5_v0,2023.2.2,Win32,84.74576271,,,,,,25.0174,32.7351,return,7.6774,,,,,,,,,,,,,,,,,,,,,,,,,,,,,,,,,,,,,,,,,,,,,,,,,,,,,,,,,,,,,,,,,,,,,
,,,,,SPR24_071,20,Female,2024-04-19_10h05.03.949,jersey_experiment_5_v0,2023.2.2,Win32,84.74576271,,,,,,,,,,,32.7352,60.6656,return,27.9089,,,,,,,,,,,,,,,,,,,,,,,,,,,,,,,,,,,,,,,,,,,,,,,,,,,,,,,,,,,,,,,,
,,,,,SPR24_071,20,Female,2024-04-19_10h05.03.949,jersey_experiment_5_v0,2023.2.2,Win32,84.74576271,,,,,,,,,,,,,,,,60.6726,61.7243,61.7245,69.4658,return,2.5423,,49.73958333,0,0,0,27,1,FBP-YG-19.png,0.4,1.2,28,0.25,,,,,,,,,,,,,,,,,,,,,,,,,,,,,,,,,,,,,,,,,,,,,
,,,,,SPR24_071,20,Female,2024-04-19_10h05.03.949,jersey_experiment_5_v0,2023.2.2,Win32,84.74576271,,,,,,,,,,,,,,,,69.4662,70.7599,70.76,78.3482,return,4.0809,,79.55729167,0,1,1,39,1,FBP-RB-18.png,0.45,1.2,40,0.5,,,,,,,,,,,,,,,,,,,,,,,,,,,,,,,,,,,,,,,,,,,,,
,,,,,SPR24_071,20,Female,2024-04-19_10h05.03.949,jersey_experiment_5_v0,2023.2.2,Win32,84.74576271,,,,,,,,,,,,,,,,78.3485,79.6424,79.6425,85.5956,return,1.7759,,25.13020833,0,2,2,36,1,FBP-RB-18.png,0.37,1.2,37,0.5,,,,,,,,,,,,,,,,,,,,,,,,,,,,,,,,,,,,,,,,,,,,,
,,,,,SPR24_071,20,Female,2024-04-19_10h05.03.949,jersey_experiment_5_v0,2023.2.2,Win32,84.74576271,,,,,,,,,,,,,,,,85.5958,86.6428,86.6429,92.9019,return,3.3604,,75,0,3,3,28,1,FBP-YG-19.png,0.43,1.2,29,0.25,,,,,,,,,,,,,,,,,,,,,,,,,,,,,,,,,,,,,,,,,,,,,
,,,,,SPR24_071,20,Female,2024-04-19_10h05.03.949,jersey_experiment_5_v0,2023.2.2,Win32,84.74576271,,,,,,,,,,,,,,,,92.9021,94.1959,94.196,97.5961,return,1.2014,,82.94270833,0,4,4,4,1,FBP-OG-71.png,0.45,1.2,5,0.5,,,,,,,,,,,,,,,,,,,,,,,,,,,,,,,,,,,,,,,,,,,,,
,,,,,SPR24_071,20,Female,2024-04-19_10h05.03.949,jersey_experiment_5_v0,2023.2.2,Win32,84.74576271,,,,,,,,,,,,,,,,97.5963,98.8902,98.8902,108.7729,return,7.7732,,58.59375,0,5,5,13,1,FBP-OG-91.png,0.43,1.2,14,0.5,,,,,,,,,,,,,,,,,,,,,,,,,,,,,,,,,,,,,,,,,,,,,
,,,,,SPR24_071,20,Female,2024-04-19_10h05.03.949,jersey_experiment_5_v0,2023.2.2,Win32,84.74576271,,,,,,,,,,,,,,,,108.7731,109.8202,109.8202,112.9497,return,0.8425,,74.08854167,0,6,6,24,1,FBP-YG-18.png,0.45,1.2,25,0.25,,,,,,,,,,,,,,,,,,,,,,,,,,,,,,,,,,,,,,,,,,,,,
,,,,,SPR24_071,20,Female,2024-04-19_10h05.03.949,jersey_experiment_5_v0,2023.2.2,Win32,84.74576271,,,,,,,,,,,,,,,,112.9499,114.2438,114.2438,116.4909,return,1.3762,,74.08854167,0,7,7,9,1,FBP-OG-81.png,0.45,1.2,10,0.5,,,,,,,,,,,,,,,,,,,,,,,,,,,,,,,,,,,,,,,,,,,,,
,,,,,SPR24_071,20,Female,2024-04-19_10h05.03.949,jersey_experiment_5_v0,2023.2.2,Win32,84.74576271,,,,,,,,,,,,,,,,116.4911,117.7849,117.785,125.4794,return,5.9208,,13.28125,0,8,8,40,1,FBP-RB-19.png,0.35,1.2,41,0.5,,,,,,,,,,,,,,,,,,,,,,,,,,,,,,,,,,,,,,,,,,,,,
,,,,,SPR24_071,20,Female,2024-04-19_10h05.03.949,jersey_experiment_5_v0,2023.2.2,Win32,84.74576271,,,,,,,,,,,,,,,,125.4796,126.5266,126.5266,132.0207,return,3.3496,,2.473958333,0,9,9,50,1,FBP-PT-18.png,0.35,1.2,51,0.25,,,,,,,,,,,,,,,,,,,,,,,,,,,,,,,,,,,,,,,,,,,,,
,,,,,SPR24_071,20,Female,2024-04-19_10h05.03.949,jersey_experiment_5_v0,2023.2.2,Win32,84.74576271,,,,,,,,,,,,,,,,132.0253,133.3267,133.3267,137.3976,return,0.9226,,77.99479167,0,10,10,34,1,FBP-RB-17.png,0.45,1.2,35,0.5,,,,,,,,,,,,,,,,,,,,,,,,,,,,,,,,,,,,,,,,,,,,,
,,,,,SPR24_071,20,Female,2024-04-19_10h05.03.949,jersey_experiment_5_v0,2023.2.2,Win32,84.74576271,,,,,,,,,,,,,,,,137.398,138.6918,138.6918,143.1743,return,3.1692,,86.71875,0,11,11,43,1,FBP-RB-19.png,0.43,1.2,44,0.5,,,,,,,,,,,,,,,,,,,,,,,,,,,,,,,,,,,,,,,,,,,,,
,,,,,SPR24_071,20,Female,2024-04-19_10h05.03.949,jersey_experiment_5_v0,2023.2.2,Win32,84.74576271,,,,,,,,,,,,,,,,143.1744,144.2213,144.2213,149.4686,return,2.541,,0.390625,0,12,12,45,1,FBP-PT-17.png,0.35,1.2,46,0.25,,,,,,,,,,,,,,,,,,,,,,,,,,,,,,,,,,,,,,,,,,,,,
,,,,,SPR24_071,20,Female,2024-04-19_10h05.03.949,jersey_experiment_5_v0,2023.2.2,Win32,84.74576271,,,,,,,,,,,,,,,,149.4687,150.5155,150.5156,154.551,return,2.0037,,2.734375,0,13,13,16,1,FBP-YG-17.png,0.37,1.2,17,0.25,,,,,,,,,,,,,,,,,,,,,,,,,,,,,,,,,,,,,,,,,,,,,
,,,,,SPR24_071,20,Female,2024-04-19_10h05.03.949,jersey_experiment_5_v0,2023.2.2,Win32,84.74576271,,,,,,,,,,,,,,,,154.5512,155.8454,155.8454,160.5158,return,2.527,,61.58854167,0,14,14,8,1,FBP-OG-81.png,0.43,1.2,9,0.5,,,,,,,,,,,,,,,,,,,,,,,,,,,,,,,,,,,,,,,,,,,,,
,,,,,SPR24_071,20,Female,2024-04-19_10h05.03.949,jersey_experiment_5_v0,2023.2.2,Win32,84.74576271,,,,,,,,,,,,,,,,160.516,161.5631,161.5631,163.316,return,0.5126,,49.73958333,0,15,15,57,1,FBP-PT-19.png,0.4,1.2,58,0.25,,,,,,,,,,,,,,,,,,,,,,,,,,,,,,,,,,,,,,,,,,,,,
,,,,,SPR24_071,20,Female,2024-04-19_10h05.03.949,jersey_experiment_5_v0,2023.2.2,Win32,84.74576271,,,,,,,,,,,,,,,,163.3163,164.6102,164.6103,167.0456,return,1.502,,62.890625,0,16,16,38,1,FBP-RB-18.png,0.43,1.2,39,0.5,,,,,,,,,,,,,,,,,,,,,,,,,,,,,,,,,,,,,,,,,,,,,
,,,,,SPR24_071,20,Female,2024-04-19_10h05.03.949,jersey_experiment_5_v0,2023.2.2,Win32,84.74576271,,,,,,,,,,,,,,,,167.0458,168.3398,168.3398,171.3986,return,1.2981,,77.60416667,0,17,17,44,1,FBP-RB-19.png,0.45,1.2,45,0.5,,,,,,,,,,,,,,,,,,,,,,,,,,,,,,,,,,,,,,,,,,,,,
,,,,,SPR24_071,20,Female,2024-04-19_10h05.03.949,jersey_experiment_5_v0,2023.2.2,Win32,84.74576271,,,,,,,,,,,,,,,,171.3988,172.4458,172.4458,177.1753,return,2.9,,87.63020833,0,18,18,49,1,FBP-PT-17.png,0.45,1.2,50,0.25,,,,,,,,,,,,,,,,,,,,,,,,,,,,,,,,,,,,,,,,,,,,,
,,,,,SPR24_071,20,Female,2024-04-19_10h05.03.949,jersey_experiment_5_v0,2023.2.2,Win32,84.74576271,,,,,,,,,,,,,,,,177.1807,178.2227,178.2227,181.3873,return,1.084,,49.47916667,0,19,19,22,1,FBP-YG-18.png,0.4,1.2,23,0.25,,,,,,,,,,,,,,,,,,,,,,,,,,,,,,,,,,,,,,,,,,,,,
,,,,,SPR24_071,20,Female,2024-04-19_10h05.03.949,jersey_experiment_5_v0,2023.2.2,Win32,84.74576271,,,,,,,,,,,,,,,,181.3875,182.4345,182.4345,186.7639,return,0.8143,,51.43229167,0,20,20,48,1,FBP-PT-17.png,0.43,1.2,49,0.25,,,,,,,,,,,,,,,,,,,,,,,,,,,,,,,,,,,,,,,,,,,,,
,,,,,SPR24_071,20,Female,2024-04-19_10h05.03.949,jersey_experiment_5_v0,2023.2.2,Win32,84.74576271,,,,,,,,,,,,,,,,186.7642,187.811,187.811,191.2935,return,1.9531,,55.20833333,0,21,21,53,1,FBP-PT-18.png,0.43,1.2,54,0.25,,,,,,,,,,,,,,,,,,,,,,,,,,,,,,,,,,,,,,,,,,,,,
,,,,,SPR24_071,20,Female,2024-04-19_10h05.03.949,jersey_experiment_5_v0,2023.2.2,Win32,84.74576271,,,,,,,,,,,,,,,,191.2937,192.3407,192.3407,196.1055,return,2.0245,,43.75,0,22,22,52,1,FBP-PT-18.png,0.4,1.2,53,0.25,,,,,,,,,,,,,,,,,,,,,,,,,,,,,,,,,,,,,,,,,,,,,
,,,,,SPR24_071,20,Female,2024-04-19_10h05.03.949,jersey_experiment_5_v0,2023.2.2,Win32,84.74576271,,,,,,,,,,,,,,,,196.1057,197.1525,197.1525,200.5409,return,0.9978,,5.859375,0,23,23,56,1,FBP-PT-19.png,0.37,1.2,57,0.25,,,,,,,,,,,,,,,,,,,,,,,,,,,,,,,,,,,,,,,,,,,,,
,,,,,SPR24_071,20,Female,2024-04-19_10h05.03.949,jersey_experiment_5_v0,2023.2.2,Win32,84.74576271,,,,,,,,,,,,,,,,200.5411,201.8352,201.8352,205.7882,return,1.6475,,29.03645833,0,24,24,7,1,FBP-OG-81.png,0.4,1.2,8,0.5,,,,,,,,,,,,,,,,,,,,,,,,,,,,,,,,,,,,,,,,,,,,,
,,,,,SPR24_071,20,Female,2024-04-19_10h05.03.949,jersey_experiment_5_v0,2023.2.2,Win32,84.74576271,,,,,,,,,,,,,,,,205.7884,206.8354,206.8354,209.2942,return,0.7296,,6.25,0,25,25,25,1,FBP-YG-19.png,0.35,1.2,26,0.25,,,,,,,,,,,,,,,,,,,,,,,,,,,,,,,,,,,,,,,,,,,,,
,,,,,SPR24_071,20,Female,2024-04-19_10h05.03.949,jersey_experiment_5_v0,2023.2.2,Win32,84.74576271,,,,,,,,,,,,,,,,209.2944,210.3413,210.3414,213.7061,return,0.7062,,49.609375,0,26,26,23,1,FBP-YG-18.png,0.43,1.2,24,0.25,,,,,,,,,,,,,,,,,,,,,,,,,,,,,,,,,,,,,,,,,,,,,
,,,,,SPR24_071,20,Female,2024-04-19_10h05.03.949,jersey_experiment_5_v0,2023.2.2,Win32,84.74576271,,,,,,,,,,,,,,,,213.7062,215.0002,215.0002,219.4122,return,2.5735,,26.04166667,0,27,27,0,1,FBP-OG-71.png,0.35,1.2,1,0.5,,,,,,,,,,,,,,,,,,,,,,,,,,,,,,,,,,,,,,,,,,,,,
,,,,,SPR24_071,20,Female,2024-04-19_10h05.03.949,jersey_experiment_5_v0,2023.2.2,Win32,84.74576271,,,,,,,,,,,,,,,,219.4124,220.7062,220.7062,223.989,return,1.4317,,53.125,0,28,28,3,1,FBP-OG-71.png,0.43,1.2,4,0.5,,,,,,,,,,,,,,,,,,,,,,,,,,,,,,,,,,,,,,,,,,,,,
,,,,,SPR24_071,20,Female,2024-04-19_10h05.03.949,jersey_experiment_5_v0,2023.2.2,Win32,84.74576271,,,,,,,,,,,,,,,,223.9892,225.0359,225.036,228.283,return,0.7313,,44.01041667,0,29,29,21,1,FBP-YG-18.png,0.37,1.2,22,0.25,,,,,,,,,,,,,,,,,,,,,,,,,,,,,,,,,,,,,,,,,,,,,
,,,,,SPR24_071,20,Female,2024-04-19_10h05.03.949,jersey_experiment_5_v0,2023.2.2,Win32,84.74576271,,,,,,,,,,,,,,,,228.2833,229.5773,229.5773,232.4127,return,1.0124,,25.13020833,0,30,30,31,1,FBP-RB-17.png,0.37,1.2,32,0.5,,,,,,,,,,,,,,,,,,,,,,,,,,,,,,,,,,,,,,,,,,,,,
,,,,,SPR24_071,20,Female,2024-04-19_10h05.03.949,jersey_experiment_5_v0,2023.2.2,Win32,84.74576271,,,,,,,,,,,,,,,,232.413,233.4596,233.4596,235.4483,return,0.8969,,25.13020833,0,31,31,20,1,FBP-YG-18.png,0.35,1.2,21,0.25,,,,,,,,,,,,,,,,,,,,,,,,,,,,,,,,,,,,,,,,,,,,,
,,,,,SPR24_071,20,Female,2024-04-19_10h05.03.949,jersey_experiment_5_v0,2023.2.2,Win32,84.74576271,,,,,,,,,,,,,,,,235.4486,236.7421,236.7423,240.3307,return,0.8258,,57.68229167,0,32,32,33,1,FBP-RB-17.png,0.43,1.2,34,0.5,,,,,,,,,,,,,,,,,,,,,,,,,,,,,,,,,,,,,,,,,,,,,
,,,,,SPR24_071,20,Female,2024-04-19_10h05.03.949,jersey_experiment_5_v0,2023.2.2,Win32,84.74576271,,,,,,,,,,,,,,,,240.3309,241.6247,241.6247,244.919,return,1.922,,74.609375,0,33,33,32,1,FBP-RB-17.png,0.4,1.2,33,0.5,,,,,,,,,,,,,,,,,,,,,,,,,,,,,,,,,,,,,,,,,,,,,
,,,,,SPR24_071,20,Female,2024-04-19_10h05.03.949,jersey_experiment_5_v0,2023.2.2,Win32,84.74576271,,,,,,,,,,,,,,,,244.9192,246.2131,246.2131,250.7898,return,1.9718,,28.515625,0,34,34,5,1,FBP-OG-81.png,0.35,1.2,6,0.5,,,,,,,,,,,,,,,,,,,,,,,,,,,,,,,,,,,,,,,,,,,,,
,,,,,SPR24_071,20,Female,2024-04-19_10h05.03.949,jersey_experiment_5_v0,2023.2.2,Win32,84.74576271,,,,,,,,,,,,,,,,250.7901,252.084,252.084,260.2492,return,2.0484,,26.82291667,0,35,35,30,1,FBP-RB-17.png,0.35,1.2,31,0.5,,,,,,,,,,,,,,,,,,,,,,,,,,,,,,,,,,,,,,,,,,,,,
,,,,,SPR24_071,20,Female,2024-04-19_10h05.03.949,jersey_experiment_5_v0,2023.2.2,Win32,84.74576271,,,,,,,,,,,,,,,,260.2493,261.2961,261.2961,265.5669,return,0.8246,,24.609375,0,36,36,26,1,FBP-YG-19.png,0.37,1.2,27,0.25,,,,,,,,,,,,,,,,,,,,,,,,,,,,,,,,,,,,,,,,,,,,,
,,,,,SPR24_071,20,Female,2024-04-19_10h05.03.949,jersey_experiment_5_v0,2023.2.2,Win32,84.74576271,,,,,,,,,,,,,,,,265.5672,266.861,266.8611,271.2259,return,0.8033,,49.21875,0,37,37,37,1,FBP-RB-18.png,0.4,1.2,38,0.5,,,,,,,,,,,,,,,,,,,,,,,,,,,,,,,,,,,,,,,,,,,,,
,,,,,SPR24_071,20,Female,2024-04-19_10h05.03.949,jersey_experiment_5_v0,2023.2.2,Win32,84.74576271,,,,,,,,,,,,,,,,271.2261,272.52,272.52,274.3673,return,0.6352,,50,0,38,38,11,1,FBP-OG-91.png,0.37,1.2,12,0.5,,,,,,,,,,,,,,,,,,,,,,,,,,,,,,,,,,,,,,,,,,,,,
,,,,,SPR24_071,20,Female,2024-04-19_10h05.03.949,jersey_experiment_5_v0,2023.2.2,Win32,84.74576271,,,,,,,,,,,,,,,,274.3676,275.4141,275.4141,277.3906,return,0.7153,,44.01041667,0,39,39,55,1,FBP-PT-19.png,0.35,1.2,56,0.25,,,,,,,,,,,,,,,,,,,,,,,,,,,,,,,,,,,,,,,,,,,,,
,,,,,SPR24_071,20,Female,2024-04-19_10h05.03.949,jersey_experiment_5_v0,2023.2.2,Win32,84.74576271,,,,,,,,,,,,,,,,277.3909,278.4379,278.4379,285.5792,return,4.8579,,97.65625,0,40,40,19,1,FBP-YG-17.png,0.45,1.2,20,0.25,,,,,,,,,,,,,,,,,,,,,,,,,,,,,,,,,,,,,,,,,,,,,
,,,,,SPR24_071,20,Female,2024-04-19_10h05.03.949,jersey_experiment_5_v0,2023.2.2,Win32,84.74576271,,,,,,,,,,,,,,,,285.5794,286.8734,286.8734,289.3088,return,0.5554,,49.73958333,0,41,41,41,1,FBP-RB-19.png,0.37,1.2,42,0.5,,,,,,,,,,,,,,,,,,,,,,,,,,,,,,,,,,,,,,,,,,,,,
,,,,,SPR24_071,20,Female,2024-04-19_10h05.03.949,jersey_experiment_5_v0,2023.2.2,Win32,84.74576271,,,,,,,,,,,,,,,,289.309,290.6031,290.6031,296.2386,return,2.4334,,46.74479167,0,42,42,6,1,FBP-OG-81.png,0.37,1.2,7,0.5,,,,,,,,,,,,,,,,,,,,,,,,,,,,,,,,,,,,,,,,,,,,,
,,,,,SPR24_071,20,Female,2024-04-19_10h05.03.949,jersey_experiment_5_v0,2023.2.2,Win32,84.74576271,,,,,,,,,,,,,,,,296.2388,297.2856,297.2856,300.5329,return,1.7846,,46.22395833,0,43,43,46,1,FBP-PT-17.png,0.37,1.2,47,0.25,,,,,,,,,,,,,,,,,,,,,,,,,,,,,,,,,,,,,,,,,,,,,
,,,,,SPR24_071,20,Female,2024-04-19_10h05.03.949,jersey_experiment_5_v0,2023.2.2,Win32,84.74576271,,,,,,,,,,,,,,,,300.5331,301.827,301.827,305.333,return,2.0764,,55.20833333,0,44,44,12,1,FBP-OG-91.png,0.4,1.2,13,0.5,,,,,,,,,,,,,,,,,,,,,,,,,,,,,,,,,,,,,,,,,,,,,
,,,,,SPR24_071,20,Female,2024-04-19_10h05.03.949,jersey_experiment_5_v0,2023.2.2,Win32,84.74576271,,,,,,,,,,,,,,,,305.3333,306.6271,306.6271,309.3331,return,1.441,,63.671875,0,45,45,42,1,FBP-RB-19.png,0.4,1.2,43,0.5,,,,,,,,,,,,,,,,,,,,,,,,,,,,,,,,,,,,,,,,,,,,,
,,,,,SPR24_071,20,Female,2024-04-19_10h05.03.949,jersey_experiment_5_v0,2023.2.2,Win32,84.74576271,,,,,,,,,,,,,,,,309.3333,310.3802,310.3802,312.7097,return,0.722,,45.44270833,0,46,46,51,1,FBP-PT-18.png,0.37,1.2,52,0.25,,,,,,,,,,,,,,,,,,,,,,,,,,,,,,,,,,,,,,,,,,,,,
,,,,,SPR24_071,20,Female,2024-04-19_10h05.03.949,jersey_experiment_5_v0,2023.2.2,Win32,84.74576271,,,,,,,,,,,,,,,,312.7099,313.7568,313.7569,315.9333,return,0.7623,,99.86979167,0,47,47,54,1,FBP-PT-18.png,0.45,1.2,55,0.25,,,,,,,,,,,,,,,,,,,,,,,,,,,,,,,,,,,,,,,,,,,,,
,,,,,SPR24_071,20,Female,2024-04-19_10h05.03.949,jersey_experiment_5_v0,2023.2.2,Win32,84.74576271,,,,,,,,,,,,,,,,315.9334,316.9804,316.9805,318.6274,return,0.8684,,99.609375,0,48,48,59,1,FBP-PT-19.png,0.45,1.2,60,0.25,,,,,,,,,,,,,,,,,,,,,,,,,,,,,,,,,,,,,,,,,,,,,
,,,,,SPR24_071,20,Female,2024-04-19_10h05.03.949,jersey_experiment_5_v0,2023.2.2,Win32,84.74576271,,,,,,,,,,,,,,,,318.6277,319.9215,319.9216,324.9218,return,3.6501,,36.84895833,0,49,49,35,1,FBP-RB-18.png,0.35,1.2,36,0.5,,,,,,,,,,,,,,,,,,,,,,,,,,,,,,,,,,,,,,,,,,,,,
,,,,,SPR24_071,20,Female,2024-04-19_10h05.03.949,jersey_experiment_5_v0,2023.2.2,Win32,84.74576271,,,,,,,,,,,,,,,,324.9221,325.969,325.969,329.7574,return,2.188,,89.58333333,0,50,50,29,1,FBP-YG-19.png,0.45,1.2,30,0.25,,,,,,,,,,,,,,,,,,,,,,,,,,,,,,,,,,,,,,,,,,,,,
,,,,,SPR24_071,20,Female,2024-04-19_10h05.03.949,jersey_experiment_5_v0,2023.2.2,Win32,84.74576271,,,,,,,,,,,,,,,,329.7577,330.8044,330.8045,335.9811,return,3.1622,,50.13020833,0,51,51,47,1,FBP-PT-17.png,0.4,1.2,48,0.25,,,,,,,,,,,,,,,,,,,,,,,,,,,,,,,,,,,,,,,,,,,,,
,,,,,SPR24_071,20,Female,2024-04-19_10h05.03.949,jersey_experiment_5_v0,2023.2.2,Win32,84.74576271,,,,,,,,,,,,,,,,335.9813,337.2752,337.2752,343.0049,return,1.1536,,55.33854167,0,52,52,10,1,FBP-OG-91.png,0.35,1.2,11,0.5,,,,,,,,,,,,,,,,,,,,,,,,,,,,,,,,,,,,,,,,,,,,,
,,,,,SPR24_071,20,Female,2024-04-19_10h05.03.949,jersey_experiment_5_v0,2023.2.2,Win32,84.74576271,,,,,,,,,,,,,,,,343.0052,344.0519,344.0519,347.4051,return,1.356,,82.8125,0,53,53,58,1,FBP-PT-19.png,0.43,1.2,59,0.25,,,,,,,,,,,,,,,,,,,,,,,,,,,,,,,,,,,,,,,,,,,,,
,,,,,SPR24_071,20,Female,2024-04-19_10h05.03.949,jersey_experiment_5_v0,2023.2.2,Win32,84.74576271,,,,,,,,,,,,,,,,347.4054,348.6991,348.6992,350.6287,return,0.6316,,50.78125,0,54,54,1,1,FBP-OG-71.png,0.37,1.2,2,0.5,,,,,,,,,,,,,,,,,,,,,,,,,,,,,,,,,,,,,,,,,,,,,
,,,,,SPR24_071,20,Female,2024-04-19_10h05.03.949,jersey_experiment_5_v0,2023.2.2,Win32,84.74576271,,,,,,,,,,,,,,,,350.6289,351.6757,351.6758,353.9111,return,1.1212,,83.984375,0,55,55,18,1,FBP-YG-17.png,0.43,1.2,19,0.25,,,,,,,,,,,,,,,,,,,,,,,,,,,,,,,,,,,,,,,,,,,,,
,,,,,SPR24_071,20,Female,2024-04-19_10h05.03.949,jersey_experiment_5_v0,2023.2.2,Win32,84.74576271,,,,,,,,,,,,,,,,353.9113,355.2052,355.2053,359.9937,return,2.5798,,66.14583333,0,56,56,2,1,FBP-OG-71.png,0.4,1.2,3,0.5,,,,,,,,,,,,,,,,,,,,,,,,,,,,,,,,,,,,,,,,,,,,,
,,,,,SPR24_071,20,Female,2024-04-19_10h05.03.949,jersey_experiment_5_v0,2023.2.2,Win32,84.74576271,,,,,,,,,,,,,,,,359.9939,361.0408,361.0408,363.4528,return,0.6731,,13.671875,0,57,57,15,1,FBP-YG-17.png,0.35,1.2,16,0.25,,,,,,,,,,,,,,,,,,,,,,,,,,,,,,,,,,,,,,,,,,,,,
,,,,,SPR24_071,20,Female,2024-04-19_10h05.03.949,jersey_experiment_5_v0,2023.2.2,Win32,84.74576271,,,,,,,,,,,,,,,,363.4529,364.4997,364.4997,368.1233,return,0.5751,,68.61979167,0,58,58,17,1,FBP-YG-17.png,0.4,1.2,18,0.25,,,,,,,,,,,,,,,,,,,,,,,,,,,,,,,,,,,,,,,,,,,,,
,,,,,SPR24_071,20,Female,2024-04-19_10h05.03.949,jersey_experiment_5_v0,2023.2.2,Win32,84.74576271,,,,,,,,,,,,,,,,368.1236,369.4176,369.4176,373.4648,return,2.1778,,79.296875,0,59,59,14,1,FBP-OG-91.png,0.45,1.2,15,0.5,,,,,,,,,,,,,,,,,,,,,,,,,,,,,,,,,,,,,,,,,,,,,
,,,,,SPR24_071,20,Female,2024-04-19_10h05.03.949,jersey_experiment_5_v0,2023.2.2,Win32,84.74576271,,,,,,,,,,,,,,,,373.4676,374.7707,374.7707,378.4768,return,0.9033,,50.26041667,,,,,,FBP-RB-91.png,0.37,1.2,42,0.5,0,0,0,41,1,,,,,,,,,,,,,,,,,,,,,,,,,,,,,,,,,,,,,,,,
,,,,,SPR24_071,20,Female,2024-04-19_10h05.03.949,jersey_experiment_5_v0,2023.2.2,Win32,84.74576271,,,,,,,,,,,,,,,,378.4774,379.5238,379.5238,381.9005,return,0.7065,,91.015625,,,,,,FBP-YG-71.png,0.45,1.2,20,0.25,0,1,1,19,1,,,,,,,,,,,,,,,,,,,,,,,,,,,,,,,,,,,,,,,,
,,,,,SPR24_071,20,Female,2024-04-19_10h05.03.949,jersey_experiment_5_v0,2023.2.2,Win32,84.74576271,,,,,,,,,,,,,,,,381.9008,382.9473,382.9474,385.2299,return,0.9034,,28.515625,,,,,,FBP-YG-71.png,0.37,1.2,17,0.25,0,2,2,16,1,,,,,,,,,,,,,,,,,,,,,,,,,,,,,,,,,,,,,,,,
,,,,,SPR24_071,20,Female,2024-04-19_10h05.03.949,jersey_experiment_5_v0,2023.2.2,Win32,84.74576271,,,,,,,,,,,,,,,,385.2303,386.5239,386.5239,388.983,return,1.2177,,24.609375,,,,,,FBP-RB-91.png,0.35,1.2,41,0.5,0,3,3,40,1,,,,,,,,,,,,,,,,,,,,,,,,,,,,,,,,,,,,,,,,
,,,,,SPR24_071,20,Female,2024-04-19_10h05.03.949,jersey_experiment_5_v0,2023.2.2,Win32,84.74576271,,,,,,,,,,,,,,,,388.9832,390.03,390.03,392.183,return,0.9352,,24.08854167,,,,,,FBP-PT-91.png,0.35,1.2,56,0.25,0,4,4,55,1,,,,,,,,,,,,,,,,,,,,,,,,,,,,,,,,,,,,,,,,
,,,,,SPR24_071,20,Female,2024-04-19_10h05.03.949,jersey_experiment_5_v0,2023.2.2,Win32,84.74576271,,,,,,,,,,,,,,,,392.1833,393.4773,393.4773,395.9952,return,0.6965,,50.390625,,,,,,FBP-RB-81.png,0.4,1.2,38,0.5,0,5,5,37,1,,,,,,,,,,,,,,,,,,,,,,,,,,,,,,,,,,,,,,,,
,,,,,SPR24_071,20,Female,2024-04-19_10h05.03.949,jersey_experiment_5_v0,2023.2.2,Win32,84.74576271,,,,,,,,,,,,,,,,395.9954,397.0421,397.0421,402.5365,return,3.1927,,35.02604167,,,,,,FBP-YG-71.png,0.35,1.2,16,0.25,0,6,6,15,1,,,,,,,,,,,,,,,,,,,,,,,,,,,,,,,,,,,,,,,,
,,,,,SPR24_071,20,Female,2024-04-19_10h05.03.949,jersey_experiment_5_v0,2023.2.2,Win32,84.74576271,,,,,,,,,,,,,,,,402.5366,403.5834,403.5834,406.1366,return,0.4958,,49.609375,,,,,,FBP-PT-71.png,0.4,1.2,48,0.25,0,7,7,47,1,,,,,,,,,,,,,,,,,,,,,,,,,,,,,,,,,,,,,,,,
,,,,,SPR24_071,20,Female,2024-04-19_10h05.03.949,jersey_experiment_5_v0,2023.2.2,Win32,84.74576271,,,,,,,,,,,,,,,,406.1369,407.4307,407.4308,412.3014,return,3.6468,,25,,,,,,FBP-RB-81.png,0.35,1.2,36,0.5,0,8,8,35,1,,,,,,,,,,,,,,,,,,,,,,,,,,,,,,,,,,,,,,,,
,,,,,SPR24_071,20,Female,2024-04-19_10h05.03.949,jersey_experiment_5_v0,2023.2.2,Win32,84.74576271,,,,,,,,,,,,,,,,412.3016,413.3484,413.3486,417.2196,return,1.6536,,74.86979167,,,,,,FBP-YG-71.png,0.43,1.2,19,0.25,0,9,9,18,1,,,,,,,,,,,,,,,,,,,,,,,,,,,,,,,,,,,,,,,,
,,,,,SPR24_071,20,Female,2024-04-19_10h05.03.949,jersey_experiment_5_v0,2023.2.2,Win32,84.74576271,,,,,,,,,,,,,,,,417.2196,418.5135,418.5135,421.1724,return,0.6647,,25.13020833,,,,,,FBP-OG-18.png,0.35,1.2,6,0.5,0,10,10,5,1,,,,,,,,,,,,,,,,,,,,,,,,,,,,,,,,,,,,,,,,
,,,,,SPR24_071,20,Female,2024-04-19_10h05.03.949,jersey_experiment_5_v0,2023.2.2,Win32,84.74576271,,,,,,,,,,,,,,,,421.1726,422.2193,422.2194,426.7491,return,3.1064,,64.32291667,,,,,,FBP-PT-91.png,0.4,1.2,58,0.25,0,11,11,57,1,,,,,,,,,,,,,,,,,,,,,,,,,,,,,,,,,,,,,,,,
,,,,,SPR24_071,20,Female,2024-04-19_10h05.03.949,jersey_experiment_5_v0,2023.2.2,Win32,84.74576271,,,,,,,,,,,,,,,,426.7493,428.0432,428.0432,431.0316,return,0.6992,,34.50520833,,,,,,FBP-OG-18.png,0.37,1.2,7,0.5,0,12,12,6,1,,,,,,,,,,,,,,,,,,,,,,,,,,,,,,,,,,,,,,,,
,,,,,SPR24_071,20,Female,2024-04-19_10h05.03.949,jersey_experiment_5_v0,2023.2.2,Win32,84.74576271,,,,,,,,,,,,,,,,431.0318,432.3257,432.3257,434.8552,return,0.923,,96.61458333,,,,,,FBP-RB-81.png,0.45,1.2,40,0.5,0,13,13,39,1,,,,,,,,,,,,,,,,,,,,,,,,,,,,,,,,,,,,,,,,
,,,,,SPR24_071,20,Female,2024-04-19_10h05.03.949,jersey_experiment_5_v0,2023.2.2,Win32,84.74576271,,,,,,,,,,,,,,,,434.8553,435.9022,435.9023,438.2671,return,0.6367,,25.13020833,,,,,,FBP-YG-81.png,0.35,1.2,21,0.25,0,14,14,20,1,,,,,,,,,,,,,,,,,,,,,,,,,,,,,,,,,,,,,,,,
,,,,,SPR24_071,20,Female,2024-04-19_10h05.03.949,jersey_experiment_5_v0,2023.2.2,Win32,84.74576271,,,,,,,,,,,,,,,,438.2674,439.5611,439.5611,443.1261,return,0.5452,,81.11979167,,,,,,FBP-OG-19.png,0.43,1.2,14,0.5,0,15,15,13,1,,,,,,,,,,,,,,,,,,,,,,,,,,,,,,,,,,,,,,,,
,,,,,SPR24_071,20,Female,2024-04-19_10h05.03.949,jersey_experiment_5_v0,2023.2.2,Win32,84.74576271,,,,,,,,,,,,,,,,443.1264,444.1733,444.1734,447.644,return,2.038,,100,,,,,,FBP-PT-71.png,0.45,1.2,50,0.25,0,16,16,49,1,,,,,,,,,,,,,,,,,,,,,,,,,,,,,,,,,,,,,,,,
,,,,,SPR24_071,20,Female,2024-04-19_10h05.03.949,jersey_experiment_5_v0,2023.2.2,Win32,84.74576271,,,,,,,,,,,,,,,,447.6441,448.6908,448.6909,451.0794,return,0.6526,,24.34895833,,,,,,FBP-PT-91.png,0.37,1.2,57,0.25,0,17,17,56,1,,,,,,,,,,,,,,,,,,,,,,,,,,,,,,,,,,,,,,,,
,,,,,SPR24_071,20,Female,2024-04-19_10h05.03.949,jersey_experiment_5_v0,2023.2.2,Win32,84.74576271,,,,,,,,,,,,,,,,451.0796,452.1264,452.1264,455.0677,return,1.2808,,74.21875,,,,,,FBP-PT-81.png,0.43,1.2,54,0.25,0,18,18,53,1,,,,,,,,,,,,,,,,,,,,,,,,,,,,,,,,,,,,,,,,
,,,,,SPR24_071,20,Female,2024-04-19_10h05.03.949,jersey_experiment_5_v0,2023.2.2,Win32,84.74576271,,,,,,,,,,,,,,,,455.068,456.1148,456.1148,458.6207,return,0.5976,,50.26041667,,,,,,FBP-PT-71.png,0.37,1.2,47,0.25,0,19,19,46,1,,,,,,,,,,,,,,,,,,,,,,,,,,,,,,,,,,,,,,,,
,,,,,SPR24_071,20,Female,2024-04-19_10h05.03.949,jersey_experiment_5_v0,2023.2.2,Win32,84.74576271,,,,,,,,,,,,,,,,458.6211,459.6678,459.6678,462.8446,return,1.685,,51.69270833,,,,,,FBP-YG-71.png,0.4,1.2,18,0.25,0,20,20,17,1,,,,,,,,,,,,,,,,,,,,,,,,,,,,,,,,,,,,,,,,
,,,,,SPR24_071,20,Female,2024-04-19_10h05.03.949,jersey_experiment_5_v0,2023.2.2,Win32,84.74576271,,,,,,,,,,,,,,,,462.8448,464.1386,464.1387,466.0681,return,1.2062,,45.05208333,,,,,,FBP-OG-19.png,0.35,1.2,11,0.5,0,21,21,10,1,,,,,,,,,,,,,,,,,,,,,,,,,,,,,,,,,,,,,,,,
,,,,,SPR24_071,20,Female,2024-04-19_10h05.03.949,jersey_experiment_5_v0,2023.2.2,Win32,84.74576271,,,,,,,,,,,,,,,,466.0684,467.115,467.1151,469.127,return,0.6524,,88.02083333,,,,,,FBP-YG-91.png,0.43,1.2,29,0.25,0,22,22,28,1,,,,,,,,,,,,,,,,,,,,,,,,,,,,,,,,,,,,,,,,
,,,,,SPR24_071,20,Female,2024-04-19_10h05.03.949,jersey_experiment_5_v0,2023.2.2,Win32,84.74576271,,,,,,,,,,,,,,,,469.1272,470.1741,470.1741,472.092,return,0.7772,,98.4375,,,,,,FBP-PT-91.png,0.45,1.2,60,0.25,0,23,23,59,1,,,,,,,,,,,,,,,,,,,,,,,,,,,,,,,,,,,,,,,,
,,,,,SPR24_071,20,Female,2024-04-19_10h05.03.949,jersey_experiment_5_v0,2023.2.2,Win32,84.74576271,,,,,,,,,,,,,,,,472.0922,473.386,473.386,475.6096,return,1.5558,,84.24479167,,,,,,FBP-RB-71.png,0.4,1.2,33,0.5,0,24,24,32,1,,,,,,,,,,,,,,,,,,,,,,,,,,,,,,,,,,,,,,,,
,,,,,SPR24_071,20,Female,2024-04-19_10h05.03.949,jersey_experiment_5_v0,2023.2.2,Win32,84.74576271,,,,,,,,,,,,,,,,475.6098,476.6568,476.6568,479.1627,return,0.9755,,62.23958333,,,,,,FBP-YG-91.png,0.4,1.2,28,0.25,0,25,25,27,1,,,,,,,,,,,,,,,,,,,,,,,,,,,,,,,,,,,,,,,,
,,,,,SPR24_071,20,Female,2024-04-19_10h05.03.949,jersey_experiment_5_v0,2023.2.2,Win32,84.74576271,,,,,,,,,,,,,,,,479.1628,480.2098,480.2099,482.1393,return,0.5886,,32.421875,,,,,,FBP-PT-81.png,0.35,1.2,51,0.25,0,26,26,50,1,,,,,,,,,,,,,,,,,,,,,,,,,,,,,,,,,,,,,,,,
,,,,,SPR24_071,20,Female,2024-04-19_10h05.03.949,jersey_experiment_5_v0,2023.2.2,Win32,84.74576271,,,,,,,,,,,,,,,,482.1396,483.1862,483.1863,484.2686,return,0.5274,,33.72395833,,,,,,FBP-PT-81.png,0.37,1.2,52,0.25,0,27,27,51,1,,,,,,,,,,,,,,,,,,,,,,,,,,,,,,,,,,,,,,,,
,,,,,SPR24_071,20,Female,2024-04-19_10h05.03.949,jersey_experiment_5_v0,2023.2.2,Win32,84.74576271,,,,,,,,,,,,,,,,484.2688,485.5628,485.5629,488.7159,return,2.0478,,30.859375,,,,,,FBP-RB-71.png,0.37,1.2,32,0.5,0,28,28,31,1,,,,,,,,,,,,,,,,,,,,,,,,,,,,,,,,,,,,,,,,
,,,,,SPR24_071,20,Female,2024-04-19_10h05.03.949,jersey_experiment_5_v0,2023.2.2,Win32,84.74576271,,,,,,,,,,,,,,,,488.7161,489.7629,489.763,491.5395,return,1.1151,,30.20833333,,,,,,FBP-YG-81.png,0.37,1.2,22,0.25,0,29,29,21,1,,,,,,,,,,,,,,,,,,,,,,,,,,,,,,,,,,,,,,,,
,,,,,SPR24_071,20,Female,2024-04-19_10h05.03.949,jersey_experiment_5_v0,2023.2.2,Win32,84.74576271,,,,,,,,,,,,,,,,491.5397,492.5866,492.5866,494.7396,return,0.7617,,26.171875,,,,,,FBP-YG-91.png,0.35,1.2,26,0.25,0,30,30,25,1,,,,,,,,,,,,,,,,,,,,,,,,,,,,,,,,,,,,,,,,
,,,,,SPR24_071,20,Female,2024-04-19_10h05.03.949,jersey_experiment_5_v0,2023.2.2,Win32,84.74576271,,,,,,,,,,,,,,,,494.7398,496.0337,496.0338,497.7045,return,0.5781,,99.47916667,,,,,,FBP-RB-91.png,0.45,1.2,45,0.5,0,31,31,44,1,,,,,,,,,,,,,,,,,,,,,,,,,,,,,,,,,,,,,,,,
,,,,,SPR24_071,20,Female,2024-04-19_10h05.03.949,jersey_experiment_5_v0,2023.2.2,Win32,84.74576271,,,,,,,,,,,,,,,,497.7047,498.7518,498.7518,500.9987,return,0.6738,,52.47395833,,,,,,FBP-YG-91.png,0.37,1.2,27,0.25,0,32,32,26,1,,,,,,,,,,,,,,,,,,,,,,,,,,,,,,,,,,,,,,,,
,,,,,SPR24_071,20,Female,2024-04-19_10h05.03.949,jersey_experiment_5_v0,2023.2.2,Win32,84.74576271,,,,,,,,,,,,,,,,500.9991,502.2929,502.2929,503.6224,return,0.5592,,52.47395833,,,,,,FBP-OG-19.png,0.4,1.2,13,0.5,0,33,33,12,1,,,,,,,,,,,,,,,,,,,,,,,,,,,,,,,,,,,,,,,,
,,,,,SPR24_071,20,Female,2024-04-19_10h05.03.949,jersey_experiment_5_v0,2023.2.2,Win32,84.74576271,,,,,,,,,,,,,,,,503.6226,504.6696,504.6696,506.9518,return,0.6257,,54.16666667,,,,,,FBP-YG-81.png,0.4,1.2,23,0.25,0,34,34,22,1,,,,,,,,,,,,,,,,,,,,,,,,,,,,,,,,,,,,,,,,
,,,,,SPR24_071,20,Female,2024-04-19_10h05.03.949,jersey_experiment_5_v0,2023.2.2,Win32,84.74576271,,,,,,,,,,,,,,,,506.9521,508.246,508.246,509.6697,return,0.5697,,74.08854167,,,,,,FBP-RB-71.png,0.43,1.2,34,0.5,0,35,35,33,1,,,,,,,,,,,,,,,,,,,,,,,,,,,,,,,,,,,,,,,,
,,,,,SPR24_071,20,Female,2024-04-19_10h05.03.949,jersey_experiment_5_v0,2023.2.2,Win32,84.74576271,,,,,,,,,,,,,,,,509.6699,510.9638,510.9638,513.3404,return,1.7084,,55.98958333,,,,,,FBP-RB-91.png,0.4,1.2,43,0.5,0,36,36,42,1,,,,,,,,,,,,,,,,,,,,,,,,,,,,,,,,,,,,,,,,
,,,,,SPR24_071,20,Female,2024-04-19_10h05.03.949,jersey_experiment_5_v0,2023.2.2,Win32,84.74576271,,,,,,,,,,,,,,,,513.3406,514.3875,514.3875,516.0581,return,0.5765,,91.14583333,,,,,,FBP-PT-81.png,0.45,1.2,55,0.25,0,37,37,54,1,,,,,,,,,,,,,,,,,,,,,,,,,,,,,,,,,,,,,,,,
,,,,,SPR24_071,20,Female,2024-04-19_10h05.03.949,jersey_experiment_5_v0,2023.2.2,Win32,84.74576271,,,,,,,,,,,,,,,,516.0583,517.1052,517.1052,519.2582,return,1.2493,,100,,,,,,FBP-YG-91.png,0.45,1.2,30,0.25,0,38,38,29,1,,,,,,,,,,,,,,,,,,,,,,,,,,,,,,,,,,,,,,,,
,,,,,SPR24_071,20,Female,2024-04-19_10h05.03.949,jersey_experiment_5_v0,2023.2.2,Win32,84.74576271,,,,,,,,,,,,,,,,519.2584,520.3053,520.3053,522.2348,return,0.532,,92.44791667,,,,,,FBP-PT-71.png,0.43,1.2,49,0.25,0,39,39,48,1,,,,,,,,,,,,,,,,,,,,,,,,,,,,,,,,,,,,,,,,
,,,,,SPR24_071,20,Female,2024-04-19_10h05.03.949,jersey_experiment_5_v0,2023.2.2,Win32,84.74576271,,,,,,,,,,,,,,,,522.235,523.529,523.529,524.8583,return,0.5765,,92.1875,,,,,,FBP-OG-17.png,0.45,1.2,5,0.5,0,40,40,4,1,,,,,,,,,,,,,,,,,,,,,,,,,,,,,,,,,,,,,,,,
,,,,,SPR24_071,20,Female,2024-04-19_10h05.03.949,jersey_experiment_5_v0,2023.2.2,Win32,84.74576271,,,,,,,,,,,,,,,,524.8585,526.1526,526.1526,528.6114,return,1.9362,,93.75,,,,,,FBP-RB-91.png,0.43,1.2,44,0.5,0,41,41,43,1,,,,,,,,,,,,,,,,,,,,,,,,,,,,,,,,,,,,,,,,
,,,,,SPR24_071,20,Female,2024-04-19_10h05.03.949,jersey_experiment_5_v0,2023.2.2,Win32,84.74576271,,,,,,,,,,,,,,,,528.6116,529.9056,529.9057,531.988,return,0.6674,,32.68229167,,,,,,FBP-OG-17.png,0.37,1.2,2,0.5,0,42,42,1,1,,,,,,,,,,,,,,,,,,,,,,,,,,,,,,,,,,,,,,,,
,,,,,SPR24_071,20,Female,2024-04-19_10h05.03.949,jersey_experiment_5_v0,2023.2.2,Win32,84.74576271,,,,,,,,,,,,,,,,531.9882,533.0351,533.0352,535.5295,return,0.6357,,99.86979167,,,,,,FBP-YG-81.png,0.45,1.2,25,0.25,0,43,43,24,1,,,,,,,,,,,,,,,,,,,,,,,,,,,,,,,,,,,,,,,,
,,,,,SPR24_071,20,Female,2024-04-19_10h05.03.949,jersey_experiment_5_v0,2023.2.2,Win32,84.74576271,,,,,,,,,,,,,,,,535.5298,536.8236,536.8236,539.3649,return,0.6077,,99.73958333,,,,,,FBP-OG-18.png,0.45,1.2,10,0.5,0,44,44,9,1,,,,,,,,,,,,,,,,,,,,,,,,,,,,,,,,,,,,,,,,
,,,,,SPR24_071,20,Female,2024-04-19_10h05.03.949,jersey_experiment_5_v0,2023.2.2,Win32,84.74576271,,,,,,,,,,,,,,,,539.3651,540.6591,540.6591,542.6004,return,0.5552,,65.234375,,,,,,FBP-OG-18.png,0.4,1.2,8,0.5,0,45,45,7,1,,,,,,,,,,,,,,,,,,,,,,,,,,,,,,,,,,,,,,,,
,,,,,SPR24_071,20,Female,2024-04-19_10h05.03.949,jersey_experiment_5_v0,2023.2.2,Win32,84.74576271,,,,,,,,,,,,,,,,542.6006,543.8943,543.8943,545.0121,return,0.4909,,63.15104167,,,,,,FBP-OG-17.png,0.4,1.2,3,0.5,0,46,46,2,1,,,,,,,,,,,,,,,,,,,,,,,,,,,,,,,,,,,,,,,,
,,,,,SPR24_071,20,Female,2024-04-19_10h05.03.949,jersey_experiment_5_v0,2023.2.2,Win32,84.74576271,,,,,,,,,,,,,,,,545.0123,546.0592,546.0592,548.1062,return,0.5293,,19.40104167,,,,,,FBP-PT-71.png,0.35,1.2,46,0.25,0,47,47,45,1,,,,,,,,,,,,,,,,,,,,,,,,,,,,,,,,,,,,,,,,
,,,,,SPR24_071,20,Female,2024-04-19_10h05.03.949,jersey_experiment_5_v0,2023.2.2,Win32,84.74576271,,,,,,,,,,,,,,,,548.1064,549.4005,549.4005,550.7182,return,0.6447,,14.32291667,,,,,,FBP-OG-17.png,0.35,1.2,1,0.5,0,48,48,0,1,,,,,,,,,,,,,,,,,,,,,,,,,,,,,,,,,,,,,,,,
,,,,,SPR24_071,20,Female,2024-04-19_10h05.03.949,jersey_experiment_5_v0,2023.2.2,Win32,84.74576271,,,,,,,,,,,,,,,,550.7183,552.0122,552.0123,557.0948,return,3.4175,,72.78645833,,,,,,FBP-OG-17.png,0.43,1.2,4,0.5,0,49,49,3,1,,,,,,,,,,,,,,,,,,,,,,,,,,,,,,,,,,,,,,,,
,,,,,SPR24_071,20,Female,2024-04-19_10h05.03.949,jersey_experiment_5_v0,2023.2.2,Win32,84.74576271,,,,,,,,,,,,,,,,557.0951,558.389,558.389,561.7657,return,2.7245,,30.72916667,,,,,,FBP-OG-19.png,0.37,1.2,12,0.5,0,50,50,11,1,,,,,,,,,,,,,,,,,,,,,,,,,,,,,,,,,,,,,,,,
,,,,,SPR24_071,20,Female,2024-04-19_10h05.03.949,jersey_experiment_5_v0,2023.2.2,Win32,84.74576271,,,,,,,,,,,,,,,,561.766,563.0598,563.0599,565.5658,return,0.9741,,75,,,,,,FBP-OG-18.png,0.43,1.2,9,0.5,0,51,51,8,1,,,,,,,,,,,,,,,,,,,,,,,,,,,,,,,,,,,,,,,,
,,,,,SPR24_071,20,Female,2024-04-19_10h05.03.949,jersey_experiment_5_v0,2023.2.2,Win32,84.74576271,,,,,,,,,,,,,,,,565.566,566.613,566.613,591.0843,return,22.1887,,29.6875,,,,,,FBP-PT-81.png,0.4,1.2,53,0.25,0,52,52,52,1,,,,,,,,,,,,,,,,,,,,,,,,,,,,,,,,,,,,,,,,
,,,,,SPR24_071,20,Female,2024-04-19_10h05.03.949,jersey_experiment_5_v0,2023.2.2,Win32,84.74576271,,,,,,,,,,,,,,,,591.0891,592.1314,592.1314,593.7079,return,0.5885,,57.94270833,,,,,,FBP-YG-81.png,0.43,1.2,24,0.25,0,53,53,23,1,,,,,,,,,,,,,,,,,,,,,,,,,,,,,,,,,,,,,,,,
,,,,,SPR24_071,20,Female,2024-04-19_10h05.03.949,jersey_experiment_5_v0,2023.2.2,Win32,84.74576271,,,,,,,,,,,,,,,,593.708,595.0019,595.002,596.7433,return,0.6024,,49.86979167,,,,,,FBP-RB-81.png,0.37,1.2,37,0.5,0,54,54,36,1,,,,,,,,,,,,,,,,,,,,,,,,,,,,,,,,,,,,,,,,
,,,,,SPR24_071,20,Female,2024-04-19_10h05.03.949,jersey_experiment_5_v0,2023.2.2,Win32,84.74576271,,,,,,,,,,,,,,,,596.7435,597.7904,597.7904,599.9552,return,0.5476,,75.390625,,,,,,FBP-PT-91.png,0.43,1.2,59,0.25,0,55,55,58,1,,,,,,,,,,,,,,,,,,,,,,,,,,,,,,,,,,,,,,,,
,,,,,SPR24_071,20,Female,2024-04-19_10h05.03.949,jersey_experiment_5_v0,2023.2.2,Win32,84.74576271,,,,,,,,,,,,,,,,599.9553,601.2495,601.2495,603.7906,return,0.6256,,22.13541667,,,,,,FBP-RB-71.png,0.35,1.2,31,0.5,0,56,56,30,1,,,,,,,,,,,,,,,,,,,,,,,,,,,,,,,,,,,,,,,,
,,,,,SPR24_071,20,Female,2024-04-19_10h05.03.949,jersey_experiment_5_v0,2023.2.2,Win32,84.74576271,,,,,,,,,,,,,,,,603.7909,605.0848,605.0848,606.5673,return,0.5912,,85.546875,,,,,,FBP-RB-71.png,0.45,1.2,35,0.5,0,57,57,34,1,,,,,,,,,,,,,,,,,,,,,,,,,,,,,,,,,,,,,,,,
,,,,,SPR24_071,20,Female,2024-04-19_10h05.03.949,jersey_experiment_5_v0,2023.2.2,Win32,84.74576271,,,,,,,,,,,,,,,,606.5676,607.8614,607.8614,608.885,return,0.5817,,85.41666667,,,,,,FBP-RB-81.png,0.43,1.2,39,0.5,0,58,58,38,1,,,,,,,,,,,,,,,,,,,,,,,,,,,,,,,,,,,,,,,,
,,,,,SPR24_071,20,Female,2024-04-19_10h05.03.949,jersey_experiment_5_v0,2023.2.2,Win32,84.74576271,,,,,,,,,,,,,,,,608.8851,610.179,610.179,612.5086,return,1.5297,,94.53125,,,,,,FBP-OG-19.png,0.45,1.2,15,0.5,0,59,59,14,1,,,,,,,,,,,,,,,,,,,,,,,,,,,,,,,,,,,,,,,,
,,,,,SPR24_071,20,Female,2024-04-19_10h05.03.949,jersey_experiment_5_v0,2023.2.2,Win32,84.74576271,,,,,,,,,,,,,,,,,,,,,,,,,,,,,,,,,,,,,,,612.5089,732.5015,,,,,,,,,,,,,,,,,,,,,,,,,,,,,,,,,,,,,,
,,,,,SPR24_071,20,Female,2024-04-19_10h05.03.949,jersey_experiment_5_v0,2023.2.2,Win32,84.74576271,,,,,,,,,,,,,,,,,,,,,,,,,,,,,,,,,,,,,,,,,732.5015,766.2791,return,33.7697,,,,,,,,,,,,,,,,,,,,,,,,,,,,,,,,,,
,,,,,SPR24_071,20,Female,2024-04-19_10h05.03.949,jersey_experiment_5_v0,2023.2.2,Win32,84.74576271,,,,,,,,,,,,,,,,766.2851,767.5848,767.5848,780.9382,return,1.3899,,32.03125,,,,,,FBP-PT-17.png,0.35,1.2,46,0.5,,,,,,,,,,,,,0,0,0,45,1,,,,,,,,,,,,,,,,,,,,,,,,,,,,
,,,,,SPR24_071,20,Female,2024-04-19_10h05.03.949,jersey_experiment_5_v0,2023.2.2,Win32,84.74576271,,,,,,,,,,,,,,,,780.9386,781.9853,781.9854,783.9148,return,0.6261,,76.171875,,,,,,FBP-RB-17.png,0.43,1.2,34,0.25,,,,,,,,,,,,,0,1,1,33,1,,,,,,,,,,,,,,,,,,,,,,,,,,,,
,,,,,SPR24_071,20,Female,2024-04-19_10h05.03.949,jersey_experiment_5_v0,2023.2.2,Win32,84.74576271,,,,,,,,,,,,,,,,783.9149,785.2089,785.2089,786.5384,return,0.5288,,50.52083333,,,,,,FBP-YG-17.png,0.37,1.2,17,0.5,,,,,,,,,,,,,0,2,2,16,1,,,,,,,,,,,,,,,,,,,,,,,,,,,,
,,,,,SPR24_071,20,Female,2024-04-19_10h05.03.949,jersey_experiment_5_v0,2023.2.2,Win32,84.74576271,,,,,,,,,,,,,,,,786.5386,787.8325,787.8325,789.9267,return,0.5702,,99.08854167,,,,,,FBP-YG-19.png,0.45,1.2,30,0.5,,,,,,,,,,,,,0,3,3,29,1,,,,,,,,,,,,,,,,,,,,,,,,,,,,
,,,,,SPR24_071,20,Female,2024-04-19_10h05.03.949,jersey_experiment_5_v0,2023.2.2,Win32,84.74576271,,,,,,,,,,,,,,,,789.9269,790.9739,790.9739,793.2915,return,0.5655,,0.260416667,,,,,,FBP-OG-81.png,0.35,1.2,6,0.25,,,,,,,,,,,,,0,4,4,5,1,,,,,,,,,,,,,,,,,,,,,,,,,,,,
,,,,,SPR24_071,20,Female,2024-04-19_10h05.03.949,jersey_experiment_5_v0,2023.2.2,Win32,84.74576271,,,,,,,,,,,,,,,,793.2918,794.5857,794.5858,795.4919,return,0.6085,,1.041666667,,,,,,FBP-YG-17.png,0.35,1.2,16,0.5,,,,,,,,,,,,,0,5,5,15,1,,,,,,,,,,,,,,,,,,,,,,,,,,,,
,,,,,SPR24_071,20,Female,2024-04-19_10h05.03.949,jersey_experiment_5_v0,2023.2.2,Win32,84.74576271,,,,,,,,,,,,,,,,795.492,796.7858,796.7859,798.3271,return,0.5464,,81.11979167,,,,,,FBP-YG-17.png,0.45,1.2,20,0.5,,,,,,,,,,,,,0,6,6,19,1,,,,,,,,,,,,,,,,,,,,,,,,,,,,
,,,,,SPR24_071,20,Female,2024-04-19_10h05.03.949,jersey_experiment_5_v0,2023.2.2,Win32,84.74576271,,,,,,,,,,,,,,,,798.3273,799.3742,799.3743,801.2448,return,1.1524,,89.71354167,,,,,,FBP-RB-18.png,0.45,1.2,40,0.25,,,,,,,,,,,,,0,7,7,39,1,,,,,,,,,,,,,,,,,,,,,,,,,,,,
,,,,,SPR24_071,20,Female,2024-04-19_10h05.03.949,jersey_experiment_5_v0,2023.2.2,Win32,84.74576271,,,,,,,,,,,,,,,,801.2451,802.5389,802.539,806.6803,return,1.7546,,50,,,,,,FBP-YG-19.png,0.4,1.2,28,0.5,,,,,,,,,,,,,0,8,8,27,1,,,,,,,,,,,,,,,,,,,,,,,,,,,,
,,,,,SPR24_071,20,Female,2024-04-19_10h05.03.949,jersey_experiment_5_v0,2023.2.2,Win32,84.74576271,,,,,,,,,,,,,,,,806.6806,807.9744,807.9745,809.7627,return,0.5829,,75.52083333,,,,,,FBP-PT-18.png,0.43,1.2,54,0.5,,,,,,,,,,,,,0,9,9,53,1,,,,,,,,,,,,,,,,,,,,,,,,,,,,
,,,,,SPR24_071,20,Female,2024-04-19_10h05.03.949,jersey_experiment_5_v0,2023.2.2,Win32,84.74576271,,,,,,,,,,,,,,,,809.763,810.8098,810.8099,812.5512,return,0.5207,,18.22916667,,,,,,FBP-OG-81.png,0.37,1.2,7,0.25,,,,,,,,,,,,,0,10,10,6,1,,,,,,,,,,,,,,,,,,,,,,,,,,,,
,,,,,SPR24_071,20,Female,2024-04-19_10h05.03.949,jersey_experiment_5_v0,2023.2.2,Win32,84.74576271,,,,,,,,,,,,,,,,812.5514,813.5981,813.5982,815.5158,return,0.6027,,49.47916667,,,,,,FBP-RB-17.png,0.4,1.2,33,0.25,,,,,,,,,,,,,0,11,11,32,1,,,,,,,,,,,,,,,,,,,,,,,,,,,,
,,,,,SPR24_071,20,Female,2024-04-19_10h05.03.949,jersey_experiment_5_v0,2023.2.2,Win32,84.74576271,,,,,,,,,,,,,,,,815.5161,816.5631,816.5632,818.8925,return,0.5037,,56.640625,,,,,,FBP-OG-81.png,0.4,1.2,8,0.25,,,,,,,,,,,,,0,12,12,7,1,,,,,,,,,,,,,,,,,,,,,,,,,,,,
,,,,,SPR24_071,20,Female,2024-04-19_10h05.03.949,jersey_experiment_5_v0,2023.2.2,Win32,84.74576271,,,,,,,,,,,,,,,,818.8927,820.1866,820.1866,823.4809,return,2.4591,,77.86458333,,,,,,FBP-PT-19.png,0.45,1.2,60,0.5,,,,,,,,,,,,,0,13,13,59,1,,,,,,,,,,,,,,,,,,,,,,,,,,,,
,,,,,SPR24_071,20,Female,2024-04-19_10h05.03.949,jersey_experiment_5_v0,2023.2.2,Win32,84.74576271,,,,,,,,,,,,,,,,823.4811,824.775,824.7751,826.7868,return,0.4913,,35.41666667,,,,,,FBP-PT-18.png,0.37,1.2,52,0.5,,,,,,,,,,,,,0,14,14,51,1,,,,,,,,,,,,,,,,,,,,,,,,,,,,
,,,,,SPR24_071,20,Female,2024-04-19_10h05.03.949,jersey_experiment_5_v0,2023.2.2,Win32,84.74576271,,,,,,,,,,,,,,,,826.7871,828.0811,828.0811,830.2929,return,0.569,,74.47916667,,,,,,FBP-YG-17.png,0.4,1.2,18,0.5,,,,,,,,,,,,,0,15,15,17,1,,,,,,,,,,,,,,,,,,,,,,,,,,,,
,,,,,SPR24_071,20,Female,2024-04-19_10h05.03.949,jersey_experiment_5_v0,2023.2.2,Win32,84.74576271,,,,,,,,,,,,,,,,830.2931,831.3399,831.3399,832.7401,return,0.6171,,74.47916667,,,,,,FBP-OG-91.png,0.43,1.2,14,0.25,,,,,,,,,,,,,0,16,16,13,1,,,,,,,,,,,,,,,,,,,,,,,,,,,,
,,,,,SPR24_071,20,Female,2024-04-19_10h05.03.949,jersey_experiment_5_v0,2023.2.2,Win32,84.74576271,,,,,,,,,,,,,,,,832.7403,834.0342,834.0342,835.9283,return,1.2599,,81.38020833,,,,,,FBP-PT-18.png,0.45,1.2,55,0.5,,,,,,,,,,,,,0,17,17,54,1,,,,,,,,,,,,,,,,,,,,,,,,,,,,
,,,,,SPR24_071,20,Female,2024-04-19_10h05.03.949,jersey_experiment_5_v0,2023.2.2,Win32,84.74576271,,,,,,,,,,,,,,,,835.9285,836.9756,836.9757,839.1638,return,0.8847,,47.265625,,,,,,FBP-RB-17.png,0.37,1.2,32,0.25,,,,,,,,,,,,,0,18,18,31,1,,,,,,,,,,,,,,,,,,,,,,,,,,,,
,,,,,SPR24_071,20,Female,2024-04-19_10h05.03.949,jersey_experiment_5_v0,2023.2.2,Win32,84.74576271,,,,,,,,,,,,,,,,839.164,840.2108,840.2108,844.3405,return,2.1467,,60.15625,,,,,,FBP-RB-19.png,0.43,1.2,44,0.25,,,,,,,,,,,,,0,19,19,43,1,,,,,,,,,,,,,,,,,,,,,,,,,,,,
,,,,,SPR24_071,20,Female,2024-04-19_10h05.03.949,jersey_experiment_5_v0,2023.2.2,Win32,84.74576271,,,,,,,,,,,,,,,,844.3408,845.3874,845.3874,847.3053,return,1.0351,,76.43229167,,,,,,FBP-OG-91.png,0.45,1.2,15,0.25,,,,,,,,,,,,,0,20,20,14,1,,,,,,,,,,,,,,,,,,,,,,,,,,,,
,,,,,SPR24_071,20,Female,2024-04-19_10h05.03.949,jersey_experiment_5_v0,2023.2.2,Win32,84.74576271,,,,,,,,,,,,,,,,847.3056,848.5994,848.5995,851.5641,return,1.826,,33.984375,,,,,,FBP-PT-19.png,0.4,1.2,58,0.5,,,,,,,,,,,,,0,21,21,57,1,,,,,,,,,,,,,,,,,,,,,,,,,,,,
,,,,,SPR24_071,20,Female,2024-04-19_10h05.03.949,jersey_experiment_5_v0,2023.2.2,Win32,84.74576271,,,,,,,,,,,,,,,,851.5643,852.6112,852.6113,855.3175,return,0.7686,,50.13020833,,,,,,FBP-OG-71.png,0.4,1.2,3,0.25,,,,,,,,,,,,,0,22,22,2,1,,,,,,,,,,,,,,,,,,,,,,,,,,,,
,,,,,SPR24_071,20,Female,2024-04-19_10h05.03.949,jersey_experiment_5_v0,2023.2.2,Win32,84.74576271,,,,,,,,,,,,,,,,855.3179,856.6113,856.6114,858.8233,return,0.9695,,86.97916667,,,,,,FBP-PT-17.png,0.45,1.2,50,0.5,,,,,,,,,,,,,0,23,23,49,1,,,,,,,,,,,,,,,,,,,,,,,,,,,,
,,,,,SPR24_071,20,Female,2024-04-19_10h05.03.949,jersey_experiment_5_v0,2023.2.2,Win32,84.74576271,,,,,,,,,,,,,,,,858.8235,860.1176,860.1176,861.8587,return,0.9599,,51.43229167,,,,,,FBP-PT-19.png,0.37,1.2,57,0.5,,,,,,,,,,,,,0,24,24,56,1,,,,,,,,,,,,,,,,,,,,,,,,,,,,
,,,,,SPR24_071,20,Female,2024-04-19_10h05.03.949,jersey_experiment_5_v0,2023.2.2,Win32,84.74576271,,,,,,,,,,,,,,,,861.8589,863.1528,863.1528,864.5649,return,0.5484,,61.45833333,,,,,,FBP-PT-17.png,0.4,1.2,48,0.5,,,,,,,,,,,,,0,25,25,47,1,,,,,,,,,,,,,,,,,,,,,,,,,,,,
,,,,,SPR24_071,20,Female,2024-04-19_10h05.03.949,jersey_experiment_5_v0,2023.2.2,Win32,84.74576271,,,,,,,,,,,,,,,,864.5652,865.8588,865.8588,868.8119,return,2.0847,,36.06770833,,,,,,FBP-YG-18.png,0.37,1.2,22,0.5,,,,,,,,,,,,,0,26,26,21,1,,,,,,,,,,,,,,,,,,,,,,,,,,,,
,,,,,SPR24_071,20,Female,2024-04-19_10h05.03.949,jersey_experiment_5_v0,2023.2.2,Win32,84.74576271,,,,,,,,,,,,,,,,868.8121,870.106,870.106,871.8355,return,0.5503,,25.390625,,,,,,FBP-PT-19.png,0.35,1.2,56,0.5,,,,,,,,,,,,,0,27,27,55,1,,,,,,,,,,,,,,,,,,,,,,,,,,,,
,,,,,SPR24_071,20,Female,2024-04-19_10h05.03.949,jersey_experiment_5_v0,2023.2.2,Win32,84.74576271,,,,,,,,,,,,,,,,871.8357,873.1296,873.1296,875.5416,return,0.7001,,98.828125,,,,,,FBP-YG-18.png,0.45,1.2,25,0.5,,,,,,,,,,,,,0,28,28,24,1,,,,,,,,,,,,,,,,,,,,,,,,,,,,
,,,,,SPR24_071,20,Female,2024-04-19_10h05.03.949,jersey_experiment_5_v0,2023.2.2,Win32,84.74576271,,,,,,,,,,,,,,,,875.5419,876.5886,876.5886,878.1534,return,0.4857,,75.26041667,,,,,,FBP-OG-71.png,0.45,1.2,5,0.25,,,,,,,,,,,,,0,29,29,4,1,,,,,,,,,,,,,,,,,,,,,,,,,,,,
,,,,,SPR24_071,20,Female,2024-04-19_10h05.03.949,jersey_experiment_5_v0,2023.2.2,Win32,84.74576271,,,,,,,,,,,,,,,,878.1536,879.4478,879.4479,880.7887,return,0.4992,,20.83333333,,,,,,FBP-PT-18.png,0.35,1.2,51,0.5,,,,,,,,,,,,,0,30,30,50,1,,,,,,,,,,,,,,,,,,,,,,,,,,,,
,,,,,SPR24_071,20,Female,2024-04-19_10h05.03.949,jersey_experiment_5_v0,2023.2.2,Win32,84.74576271,,,,,,,,,,,,,,,,880.7889,882.083,882.083,883.5891,return,0.4985,,22.39583333,,,,,,FBP-YG-18.png,0.4,1.2,23,0.5,,,,,,,,,,,,,0,31,31,22,1,,,,,,,,,,,,,,,,,,,,,,,,,,,,
,,,,,SPR24_071,20,Female,2024-04-19_10h05.03.949,jersey_experiment_5_v0,2023.2.2,Win32,84.74576271,,,,,,,,,,,,,,,,883.5893,884.636,884.636,886.2124,return,0.9344,,20.96354167,,,,,,FBP-RB-19.png,0.37,1.2,42,0.25,,,,,,,,,,,,,0,32,32,41,1,,,,,,,,,,,,,,,,,,,,,,,,,,,,
,,,,,SPR24_071,20,Female,2024-04-19_10h05.03.949,jersey_experiment_5_v0,2023.2.2,Win32,84.74576271,,,,,,,,,,,,,,,,886.2127,887.5066,887.5067,889.848,return,0.7074,,73.4375,,,,,,FBP-PT-18.png,0.4,1.2,53,0.5,,,,,,,,,,,,,0,33,33,52,1,,,,,,,,,,,,,,,,,,,,,,,,,,,,
,,,,,SPR24_071,20,Female,2024-04-19_10h05.03.949,jersey_experiment_5_v0,2023.2.2,Win32,84.74576271,,,,,,,,,,,,,,,,889.8482,890.895,890.895,893.048,return,0.6132,,99.21875,,,,,,FBP-RB-19.png,0.45,1.2,45,0.25,,,,,,,,,,,,,0,34,34,44,1,,,,,,,,,,,,,,,,,,,,,,,,,,,,
,,,,,SPR24_071,20,Female,2024-04-19_10h05.03.949,jersey_experiment_5_v0,2023.2.2,Win32,84.74576271,,,,,,,,,,,,,,,,893.0481,894.0951,894.0951,896.1893,return,0.5039,,74.08854167,,,,,,FBP-RB-19.png,0.4,1.2,43,0.25,,,,,,,,,,,,,0,35,35,42,1,,,,,,,,,,,,,,,,,,,,,,,,,,,,
,,,,,SPR24_071,20,Female,2024-04-19_10h05.03.949,jersey_experiment_5_v0,2023.2.2,Win32,84.74576271,,,,,,,,,,,,,,,,896.1896,897.2365,897.2365,901.06,return,3.2316,,49.86979167,,,,,,FBP-RB-18.png,0.37,1.2,37,0.25,,,,,,,,,,,,,0,36,36,36,1,,,,,,,,,,,,,,,,,,,,,,,,,,,,
,,,,,SPR24_071,20,Female,2024-04-19_10h05.03.949,jersey_experiment_5_v0,2023.2.2,Win32,84.74576271,,,,,,,,,,,,,,,,901.0602,902.3542,902.3542,903.3543,return,0.5414,,49.609375,,,,,,FBP-PT-17.png,0.37,1.2,47,0.5,,,,,,,,,,,,,0,37,37,46,1,,,,,,,,,,,,,,,,,,,,,,,,,,,,
,,,,,SPR24_071,20,Female,2024-04-19_10h05.03.949,jersey_experiment_5_v0,2023.2.2,Win32,84.74576271,,,,,,,,,,,,,,,,903.3545,904.4013,904.4013,906.8604,return,1.4591,,33.33333333,,,,,,FBP-OG-71.png,0.35,1.2,1,0.25,,,,,,,,,,,,,0,38,38,0,1,,,,,,,,,,,,,,,,,,,,,,,,,,,,
,,,,,SPR24_071,20,Female,2024-04-19_10h05.03.949,jersey_experiment_5_v0,2023.2.2,Win32,84.74576271,,,,,,,,,,,,,,,,906.8606,907.9074,907.9074,911.6253,return,0.6003,,84.63541667,,,,,,FBP-OG-81.png,0.45,1.2,10,0.25,,,,,,,,,,,,,0,39,39,9,1,,,,,,,,,,,,,,,,,,,,,,,,,,,,
,,,,,SPR24_071,20,Female,2024-04-19_10h05.03.949,jersey_experiment_5_v0,2023.2.2,Win32,84.74576271,,,,,,,,,,,,,,,,911.6254,912.6723,912.6724,914.1547,return,0.532,,85.28645833,,,,,,FBP-OG-71.png,0.43,1.2,4,0.25,,,,,,,,,,,,,0,40,40,3,1,,,,,,,,,,,,,,,,,,,,,,,,,,,,
,,,,,SPR24_071,20,Female,2024-04-19_10h05.03.949,jersey_experiment_5_v0,2023.2.2,Win32,84.74576271,,,,,,,,,,,,,,,,914.155,915.2018,915.2018,918.5548,return,1.93,,21.22395833,,,,,,FBP-OG-91.png,0.35,1.2,11,0.25,,,,,,,,,,,,,0,41,41,10,1,,,,,,,,,,,,,,,,,,,,,,,,,,,,
,,,,,SPR24_071,20,Female,2024-04-19_10h05.03.949,jersey_experiment_5_v0,2023.2.2,Win32,84.74576271,,,,,,,,,,,,,,,,918.5551,919.6019,919.602,921.2726,return,0.554,,27.47395833,,,,,,FBP-OG-71.png,0.37,1.2,2,0.25,,,,,,,,,,,,,0,42,42,1,1,,,,,,,,,,,,,,,,,,,,,,,,,,,,
,,,,,SPR24_071,20,Female,2024-04-19_10h05.03.949,jersey_experiment_5_v0,2023.2.2,Win32,84.74576271,,,,,,,,,,,,,,,,921.2728,922.3196,922.3197,925.8491,return,2.2825,,74.34895833,,,,,,FBP-OG-81.png,0.43,1.2,9,0.25,,,,,,,,,,,,,0,43,43,8,1,,,,,,,,,,,,,,,,,,,,,,,,,,,,
,,,,,SPR24_071,20,Female,2024-04-19_10h05.03.949,jersey_experiment_5_v0,2023.2.2,Win32,84.74576271,,,,,,,,,,,,,,,,925.8494,926.8963,926.8963,928.9317,return,0.7733,,25.78125,,,,,,FBP-RB-19.png,0.35,1.2,41,0.25,,,,,,,,,,,,,0,44,44,40,1,,,,,,,,,,,,,,,,,,,,,,,,,,,,
,,,,,SPR24_071,20,Female,2024-04-19_10h05.03.949,jersey_experiment_5_v0,2023.2.2,Win32,84.74576271,,,,,,,,,,,,,,,,928.9319,930.2258,930.2258,932.1318,return,0.6647,,72.78645833,,,,,,FBP-YG-17.png,0.43,1.2,19,0.5,,,,,,,,,,,,,0,45,45,18,1,,,,,,,,,,,,,,,,,,,,,,,,,,,,
,,,,,SPR24_071,20,Female,2024-04-19_10h05.03.949,jersey_experiment_5_v0,2023.2.2,Win32,84.74576271,,,,,,,,,,,,,,,,932.1321,933.4263,933.4263,935.0025,return,0.5879,,82.03125,,,,,,FBP-PT-19.png,0.43,1.2,59,0.5,,,,,,,,,,,,,0,46,46,58,1,,,,,,,,,,,,,,,,,,,,,,,,,,,,
,,,,,SPR24_071,20,Female,2024-04-19_10h05.03.949,jersey_experiment_5_v0,2023.2.2,Win32,84.74576271,,,,,,,,,,,,,,,,935.0027,936.2966,936.2966,938.3319,return,0.5415,,85.41666667,,,,,,FBP-YG-18.png,0.43,1.2,24,0.5,,,,,,,,,,,,,0,47,47,23,1,,,,,,,,,,,,,,,,,,,,,,,,,,,,
,,,,,SPR24_071,20,Female,2024-04-19_10h05.03.949,jersey_experiment_5_v0,2023.2.2,Win32,84.74576271,,,,,,,,,,,,,,,,938.3321,939.3792,939.3792,940.8261,return,0.5521,,55.33854167,,,,,,FBP-OG-91.png,0.37,1.2,12,0.25,,,,,,,,,,,,,0,48,48,11,1,,,,,,,,,,,,,,,,,,,,,,,,,,,,
,,,,,SPR24_071,20,Female,2024-04-19_10h05.03.949,jersey_experiment_5_v0,2023.2.2,Win32,84.74576271,,,,,,,,,,,,,,,,940.8265,941.8735,941.8735,943.6852,return,0.6398,,77.86458333,,,,,,FBP-RB-17.png,0.45,1.2,35,0.25,,,,,,,,,,,,,0,49,49,34,1,,,,,,,,,,,,,,,,,,,,,,,,,,,,
,,,,,SPR24_071,20,Female,2024-04-19_10h05.03.949,jersey_experiment_5_v0,2023.2.2,Win32,84.74576271,,,,,,,,,,,,,,,,943.6855,944.9794,944.9794,946.4618,return,0.6123,,31.90104167,,,,,,FBP-YG-19.png,0.37,1.2,27,0.5,,,,,,,,,,,,,0,50,50,26,1,,,,,,,,,,,,,,,,,,,,,,,,,,,,
,,,,,SPR24_071,20,Female,2024-04-19_10h05.03.949,jersey_experiment_5_v0,2023.2.2,Win32,84.74576271,,,,,,,,,,,,,,,,946.4619,947.5088,947.5089,949.709,return,0.9649,,52.86458333,,,,,,FBP-OG-91.png,0.4,1.2,13,0.25,,,,,,,,,,,,,0,51,51,12,1,,,,,,,,,,,,,,,,,,,,,,,,,,,,
,,,,,SPR24_071,20,Female,2024-04-19_10h05.03.949,jersey_experiment_5_v0,2023.2.2,Win32,84.74576271,,,,,,,,,,,,,,,,949.7092,950.7561,950.7561,952.7325,return,1.0353,,79.6875,,,,,,FBP-RB-18.png,0.43,1.2,39,0.25,,,,,,,,,,,,,0,52,52,38,1,,,,,,,,,,,,,,,,,,,,,,,,,,,,
,,,,,SPR24_071,20,Female,2024-04-19_10h05.03.949,jersey_experiment_5_v0,2023.2.2,Win32,84.74576271,,,,,,,,,,,,,,,,952.7327,954.0267,954.0267,955.5561,return,1.1937,,79.6875,,,,,,FBP-PT-17.png,0.43,1.2,49,0.5,,,,,,,,,,,,,0,53,53,48,1,,,,,,,,,,,,,,,,,,,,,,,,,,,,
,,,,,SPR24_071,20,Female,2024-04-19_10h05.03.949,jersey_experiment_5_v0,2023.2.2,Win32,84.74576271,,,,,,,,,,,,,,,,955.5564,956.8502,956.8502,958.5327,return,0.8657,,81.640625,,,,,,FBP-YG-19.png,0.43,1.2,29,0.5,,,,,,,,,,,,,0,54,54,28,1,,,,,,,,,,,,,,,,,,,,,,,,,,,,
,,,,,SPR24_071,20,Female,2024-04-19_10h05.03.949,jersey_experiment_5_v0,2023.2.2,Win32,84.74576271,,,,,,,,,,,,,,,,958.533,959.5799,959.5799,961.9448,return,0.5656,,10.02604167,,,,,,FBP-RB-17.png,0.35,1.2,31,0.25,,,,,,,,,,,,,0,55,55,30,1,,,,,,,,,,,,,,,,,,,,,,,,,,,,
,,,,,SPR24_071,20,Female,2024-04-19_10h05.03.949,jersey_experiment_5_v0,2023.2.2,Win32,84.74576271,,,,,,,,,,,,,,,,961.9449,963.2389,963.2389,965.0624,return,1.5112,,14.58333333,,,,,,FBP-YG-18.png,0.35,1.2,21,0.5,,,,,,,,,,,,,0,56,56,20,1,,,,,,,,,,,,,,,,,,,,,,,,,,,,
,,,,,SPR24_071,20,Female,2024-04-19_10h05.03.949,jersey_experiment_5_v0,2023.2.2,Win32,84.74576271,,,,,,,,,,,,,,,,965.0626,966.3564,966.3564,968.333,return,1.1858,,17.83854167,,,,,,FBP-YG-19.png,0.35,1.2,26,0.5,,,,,,,,,,,,,0,57,57,25,1,,,,,,,,,,,,,,,,,,,,,,,,,,,,
,,,,,SPR24_071,20,Female,2024-04-19_10h05.03.949,jersey_experiment_5_v0,2023.2.2,Win32,84.74576271,,,,,,,,,,,,,,,,968.3332,969.3801,969.3801,971.3098,return,0.6266,,19.79166667,,,,,,FBP-RB-18.png,0.35,1.2,36,0.25,,,,,,,,,,,,,0,58,58,35,1,,,,,,,,,,,,,,,,,,,,,,,,,,,,
,,,,,SPR24_071,20,Female,2024-04-19_10h05.03.949,jersey_experiment_5_v0,2023.2.2,Win32,84.74576271,,,,,,,,,,,,,,,,971.31,972.3567,972.3567,975.6039,return,0.6432,,50.91145833,,,,,,FBP-RB-18.png,0.4,1.2,38,0.25,,,,,,,,,,,,,0,59,59,37,1,,,,,,,,,,,,,,,,,,,,,,,,,,,,
,,,,,SPR24_071,20,Female,2024-04-19_10h05.03.949,jersey_experiment_5_v0,2023.2.2,Win32,84.74576271,,,,,,,,,,,,,,,,975.6061,976.898,976.898,978.6629,return,0.805,,70.703125,,,,,,FBP-PT-81.png,0.4,1.2,53,0.5,,,,,,,,,,,,,,,,,,0,0,0,52,1,,,,,,,,,,,,,,,,,,,,,,,
,,,,,SPR24_071,20,Female,2024-04-19_10h05.03.949,jersey_experiment_5_v0,2023.2.2,Win32,84.74576271,,,,,,,,,,,,,,,,978.6632,979.71,979.7101,980.9219,return,0.5905,,70.3125,,,,,,FBP-OG-18.png,0.4,1.2,8,0.25,,,,,,,,,,,,,,,,,,0,1,1,7,1,,,,,,,,,,,,,,,,,,,,,,,
,,,,,SPR24_071,20,Female,2024-04-19_10h05.03.949,jersey_experiment_5_v0,2023.2.2,Win32,84.74576271,,,,,,,,,,,,,,,,980.922,982.2159,982.2159,984.1337,return,0.9458,,99.73958333,,,,,,FBP-PT-71.png,0.45,1.2,50,0.5,,,,,,,,,,,,,,,,,,0,2,2,49,1,,,,,,,,,,,,,,,,,,,,,,,
,,,,,SPR24_071,20,Female,2024-04-19_10h05.03.949,jersey_experiment_5_v0,2023.2.2,Win32,84.74576271,,,,,,,,,,,,,,,,984.1339,985.1809,985.1809,987.9455,return,1.52,,74.609375,,,,,,FBP-RB-91.png,0.43,1.2,44,0.25,,,,,,,,,,,,,,,,,,0,3,3,43,1,,,,,,,,,,,,,,,,,,,,,,,
,,,,,SPR24_071,20,Female,2024-04-19_10h05.03.949,jersey_experiment_5_v0,2023.2.2,Win32,84.74576271,,,,,,,,,,,,,,,,987.9458,988.9926,988.9926,990.828,return,0.5507,,80.98958333,,,,,,FBP-RB-71.png,0.45,1.2,35,0.25,,,,,,,,,,,,,,,,,,0,4,4,34,1,,,,,,,,,,,,,,,,,,,,,,,
,,,,,SPR24_071,20,Female,2024-04-19_10h05.03.949,jersey_experiment_5_v0,2023.2.2,Win32,84.74576271,,,,,,,,,,,,,,,,990.8282,991.8751,991.8751,993.4044,return,0.5084,,89.453125,,,,,,FBP-RB-81.png,0.45,1.2,40,0.25,,,,,,,,,,,,,,,,,,0,5,5,39,1,,,,,,,,,,,,,,,,,,,,,,,
,,,,,SPR24_071,20,Female,2024-04-19_10h05.03.949,jersey_experiment_5_v0,2023.2.2,Win32,84.74576271,,,,,,,,,,,,,,,,993.4046,994.6988,994.6988,996.7458,return,1.106,,71.484375,,,,,,FBP-YG-91.png,0.4,1.2,28,0.5,,,,,,,,,,,,,,,,,,0,6,6,27,1,,,,,,,,,,,,,,,,,,,,,,,
,,,,,SPR24_071,20,Female,2024-04-19_10h05.03.949,jersey_experiment_5_v0,2023.2.2,Win32,84.74576271,,,,,,,,,,,,,,,,996.7462,998.0401,998.0401,999.5813,return,0.5745,,76.82291667,,,,,,FBP-PT-81.png,0.45,1.2,55,0.5,,,,,,,,,,,,,,,,,,0,7,7,54,1,,,,,,,,,,,,,,,,,,,,,,,
,,,,,SPR24_071,20,Female,2024-04-19_10h05.03.949,jersey_experiment_5_v0,2023.2.2,Win32,84.74576271,,,,,,,,,,,,,,,,999.5814,1000.6283,1000.6284,1001.9577,return,0.6036,,76.43229167,,,,,,FBP-OG-18.png,0.43,1.2,9,0.25,,,,,,,,,,,,,,,,,,0,8,8,8,1,,,,,,,,,,,,,,,,,,,,,,,
,,,,,SPR24_071,20,Female,2024-04-19_10h05.03.949,jersey_experiment_5_v0,2023.2.2,Win32,84.74576271,,,,,,,,,,,,,,,,1001.9579,1003.005,1003.005,1005.1934,return,1.2616,,79.6875,,,,,,FBP-OG-17.png,0.45,1.2,5,0.25,,,,,,,,,,,,,,,,,,0,9,9,4,1,,,,,,,,,,,,,,,,,,,,,,,
,,,,,SPR24_071,20,Female,2024-04-19_10h05.03.949,jersey_experiment_5_v0,2023.2.2,Win32,84.74576271,,,,,,,,,,,,,,,,1005.1937,1006.4874,1006.4874,1007.6757,return,0.5649,,85.546875,,,,,,FBP-PT-71.png,0.43,1.2,49,0.5,,,,,,,,,,,,,,,,,,0,10,10,48,1,,,,,,,,,,,,,,,,,,,,,,,
,,,,,SPR24_071,20,Female,2024-04-19_10h05.03.949,jersey_experiment_5_v0,2023.2.2,Win32,84.74576271,,,,,,,,,,,,,,,,1007.676,1008.9698,1008.9698,1010.6523,return,0.8383,,74.08854167,,,,,,FBP-PT-91.png,0.43,1.2,59,0.5,,,,,,,,,,,,,,,,,,0,11,11,58,1,,,,,,,,,,,,,,,,,,,,,,,
,,,,,SPR24_071,20,Female,2024-04-19_10h05.03.949,jersey_experiment_5_v0,2023.2.2,Win32,84.74576271,,,,,,,,,,,,,,,,1010.6526,1011.6993,1011.6993,1012.9818,return,0.5214,,74.08854167,,,,,,FBP-OG-17.png,0.43,1.2,4,0.25,,,,,,,,,,,,,,,,,,0,12,12,3,1,,,,,,,,,,,,,,,,,,,,,,,
,,,,,SPR24_071,20,Female,2024-04-19_10h05.03.949,jersey_experiment_5_v0,2023.2.2,Win32,84.74576271,,,,,,,,,,,,,,,,1012.9821,1014.0287,1014.0287,1015.7468,return,0.6684,,74.73958333,,,,,,FBP-RB-71.png,0.43,1.2,34,0.25,,,,,,,,,,,,,,,,,,0,13,13,33,1,,,,,,,,,,,,,,,,,,,,,,,
,,,,,SPR24_071,20,Female,2024-04-19_10h05.03.949,jersey_experiment_5_v0,2023.2.2,Win32,84.74576271,,,,,,,,,,,,,,,,1015.747,1016.7936,1016.7937,1018.0877,return,0.6038,,78.25520833,,,,,,FBP-OG-18.png,0.45,1.2,10,0.25,,,,,,,,,,,,,,,,,,0,14,14,9,1,,,,,,,,,,,,,,,,,,,,,,,
,,,,,SPR24_071,20,Female,2024-04-19_10h05.03.949,jersey_experiment_5_v0,2023.2.2,Win32,84.74576271,,,,,,,,,,,,,,,,1018.088,1019.1349,1019.1349,1021.5583,return,1.1817,,57.94270833,,,,,,FBP-RB-91.png,0.4,1.2,43,0.25,,,,,,,,,,,,,,,,,,0,15,15,42,1,,,,,,,,,,,,,,,,,,,,,,,
,,,,,SPR24_071,20,Female,2024-04-19_10h05.03.949,jersey_experiment_5_v0,2023.2.2,Win32,84.74576271,,,,,,,,,,,,,,,,1021.5587,1022.8527,1022.8527,1024.6528,return,1.2477,,56.25,,,,,,FBP-PT-91.png,0.4,1.2,58,0.5,,,,,,,,,,,,,,,,,,0,16,16,57,1,,,,,,,,,,,,,,,,,,,,,,,
,,,,,SPR24_071,20,Female,2024-04-19_10h05.03.949,jersey_experiment_5_v0,2023.2.2,Win32,84.74576271,,,,,,,,,,,,,,,,1024.653,1025.6998,1025.6998,1027.7235,return,0.6117,,50.13020833,,,,,,FBP-RB-71.png,0.37,1.2,32,0.25,,,,,,,,,,,,,,,,,,0,17,17,31,1,,,,,,,,,,,,,,,,,,,,,,,
,,,,,SPR24_071,20,Female,2024-04-19_10h05.03.949,jersey_experiment_5_v0,2023.2.2,Win32,84.74576271,,,,,,,,,,,,,,,,1027.7237,1028.7706,1028.7706,1032.0765,return,1.647,,51.171875,,,,,,FBP-RB-81.png,0.4,1.2,38,0.25,,,,,,,,,,,,,,,,,,0,18,18,37,1,,,,,,,,,,,,,,,,,,,,,,,
,,,,,SPR24_071,20,Female,2024-04-19_10h05.03.949,jersey_experiment_5_v0,2023.2.2,Win32,84.74576271,,,,,,,,,,,,,,,,1032.0766,1033.1238,1033.1238,1035.0296,return,0.5448,,31.77083333,,,,,,FBP-RB-91.png,0.37,1.2,42,0.25,,,,,,,,,,,,,,,,,,0,19,19,41,1,,,,,,,,,,,,,,,,,,,,,,,
,,,,,SPR24_071,20,Female,2024-04-19_10h05.03.949,jersey_experiment_5_v0,2023.2.2,Win32,84.74576271,,,,,,,,,,,,,,,,1035.0298,1036.0767,1036.0767,1037.7356,return,0.7219,,31.77083333,,,,,,FBP-OG-17.png,0.4,1.2,3,0.25,,,,,,,,,,,,,,,,,,0,20,20,2,1,,,,,,,,,,,,,,,,,,,,,,,
,,,,,SPR24_071,20,Female,2024-04-19_10h05.03.949,jersey_experiment_5_v0,2023.2.2,Win32,84.74576271,,,,,,,,,,,,,,,,1037.7358,1038.7827,1038.7827,1041.4651,return,1.0234,,41.92708333,,,,,,FBP-OG-18.png,0.37,1.2,7,0.25,,,,,,,,,,,,,,,,,,0,21,21,6,1,,,,,,,,,,,,,,,,,,,,,,,
,,,,,SPR24_071,20,Female,2024-04-19_10h05.03.949,jersey_experiment_5_v0,2023.2.2,Win32,84.74576271,,,,,,,,,,,,,,,,1041.4653,1042.7593,1042.7593,1046.1241,return,1.7272,,78.515625,,,,,,FBP-PT-91.png,0.45,1.2,60,0.5,,,,,,,,,,,,,,,,,,0,22,22,59,1,,,,,,,,,,,,,,,,,,,,,,,
,,,,,SPR24_071,20,Female,2024-04-19_10h05.03.949,jersey_experiment_5_v0,2023.2.2,Win32,84.74576271,,,,,,,,,,,,,,,,1046.1244,1047.4182,1047.4183,1050.6772,return,1.6655,,28.125,,,,,,FBP-YG-91.png,0.35,1.2,26,0.5,,,,,,,,,,,,,,,,,,0,23,23,25,1,,,,,,,,,,,,,,,,,,,,,,,
,,,,,SPR24_071,20,Female,2024-04-19_10h05.03.949,jersey_experiment_5_v0,2023.2.2,Win32,84.74576271,,,,,,,,,,,,,,,,1050.6774,1051.9714,1051.9714,1054.8184,return,0.5245,,50.26041667,,,,,,FBP-PT-91.png,0.37,1.2,57,0.5,,,,,,,,,,,,,,,,,,0,24,24,56,1,,,,,,,,,,,,,,,,,,,,,,,
,,,,,SPR24_071,20,Female,2024-04-19_10h05.03.949,jersey_experiment_5_v0,2023.2.2,Win32,84.74576271,,,,,,,,,,,,,,,,1054.8186,1056.1126,1056.1126,1058.6186,return,0.6596,,73.69791667,,,,,,FBP-PT-81.png,0.43,1.2,54,0.5,,,,,,,,,,,,,,,,,,0,25,25,53,1,,,,,,,,,,,,,,,,,,,,,,,
,,,,,SPR24_071,20,Female,2024-04-19_10h05.03.949,jersey_experiment_5_v0,2023.2.2,Win32,84.74576271,,,,,,,,,,,,,,,,1058.6188,1059.9128,1059.9128,1063.6423,return,2.3673,,27.34375,,,,,,FBP-YG-81.png,0.4,1.2,23,0.5,,,,,,,,,,,,,,,,,,0,26,26,22,1,,,,,,,,,,,,,,,,,,,,,,,
,,,,,SPR24_071,20,Female,2024-04-19_10h05.03.949,jersey_experiment_5_v0,2023.2.2,Win32,84.74576271,,,,,,,,,,,,,,,,1063.6465,1064.6894,1064.6894,1066.266,return,0.496,,27.08333333,,,,,,FBP-OG-17.png,0.37,1.2,2,0.25,,,,,,,,,,,,,,,,,,0,27,27,1,1,,,,,,,,,,,,,,,,,,,,,,,
,,,,,SPR24_071,20,Female,2024-04-19_10h05.03.949,jersey_experiment_5_v0,2023.2.2,Win32,84.74576271,,,,,,,,,,,,,,,,1066.2662,1067.56,1067.56,1070.9014,return,2.5565,,50.13020833,,,,,,FBP-PT-71.png,0.4,1.2,48,0.5,,,,,,,,,,,,,,,,,,0,28,28,47,1,,,,,,,,,,,,,,,,,,,,,,,
,,,,,SPR24_071,20,Female,2024-04-19_10h05.03.949,jersey_experiment_5_v0,2023.2.2,Win32,84.74576271,,,,,,,,,,,,,,,,1070.9015,1072.1955,1072.1956,1075.478,return,0.4741,,73.95833333,,,,,,FBP-YG-81.png,0.43,1.2,24,0.5,,,,,,,,,,,,,,,,,,0,29,29,23,1,,,,,,,,,,,,,,,,,,,,,,,
,,,,,SPR24_071,20,Female,2024-04-19_10h05.03.949,jersey_experiment_5_v0,2023.2.2,Win32,84.74576271,,,,,,,,,,,,,,,,1075.4782,1076.7721,1076.7721,1077.9604,return,0.5913,,73.828125,,,,,,FBP-YG-91.png,0.43,1.2,29,0.5,,,,,,,,,,,,,,,,,,0,30,30,28,1,,,,,,,,,,,,,,,,,,,,,,,
,,,,,SPR24_071,20,Female,2024-04-19_10h05.03.949,jersey_experiment_5_v0,2023.2.2,Win32,84.74576271,,,,,,,,,,,,,,,,1077.9606,1079.2546,1079.2546,1082.8431,return,2.5183,,25.65104167,,,,,,FBP-YG-81.png,0.37,1.2,22,0.5,,,,,,,,,,,,,,,,,,0,31,31,21,1,,,,,,,,,,,,,,,,,,,,,,,
,,,,,SPR24_071,20,Female,2024-04-19_10h05.03.949,jersey_experiment_5_v0,2023.2.2,Win32,84.74576271,,,,,,,,,,,,,,,,1082.8434,1083.8902,1083.8902,1084.9373,return,0.4847,,25.65104167,,,,,,FBP-RB-71.png,0.35,1.2,31,0.25,,,,,,,,,,,,,,,,,,0,32,32,30,1,,,,,,,,,,,,,,,,,,,,,,,
,,,,,SPR24_071,20,Female,2024-04-19_10h05.03.949,jersey_experiment_5_v0,2023.2.2,Win32,84.74576271,,,,,,,,,,,,,,,,1084.9375,1085.9844,1085.9844,1087.5493,return,0.4855,,78.90625,,,,,,FBP-OG-19.png,0.45,1.2,15,0.25,,,,,,,,,,,,,,,,,,0,33,33,14,1,,,,,,,,,,,,,,,,,,,,,,,
,,,,,SPR24_071,20,Female,2024-04-19_10h05.03.949,jersey_experiment_5_v0,2023.2.2,Win32,84.74576271,,,,,,,,,,,,,,,,1087.5494,1088.5961,1088.5962,1090.4668,return,0.9385,,23.828125,,,,,,FBP-OG-17.png,0.35,1.2,1,0.25,,,,,,,,,,,,,,,,,,0,34,34,0,1,,,,,,,,,,,,,,,,,,,,,,,
,,,,,SPR24_071,20,Female,2024-04-19_10h05.03.949,jersey_experiment_5_v0,2023.2.2,Win32,84.74576271,,,,,,,,,,,,,,,,1090.4671,1091.7611,1091.7611,1094.9377,return,2.1326,,48.56770833,,,,,,FBP-PT-71.png,0.37,1.2,47,0.5,,,,,,,,,,,,,,,,,,0,35,35,46,1,,,,,,,,,,,,,,,,,,,,,,,
,,,,,SPR24_071,20,Female,2024-04-19_10h05.03.949,jersey_experiment_5_v0,2023.2.2,Win32,84.74576271,,,,,,,,,,,,,,,,1094.9379,1096.2318,1096.2319,1097.5495,return,0.4615,,82.03125,,,,,,FBP-YG-71.png,0.45,1.2,20,0.5,,,,,,,,,,,,,,,,,,0,36,36,19,1,,,,,,,,,,,,,,,,,,,,,,,
,,,,,SPR24_071,20,Female,2024-04-19_10h05.03.949,jersey_experiment_5_v0,2023.2.2,Win32,84.74576271,,,,,,,,,,,,,,,,1097.5497,1098.5965,1098.5966,1100.173,return,0.5181,,46.22395833,,,,,,FBP-RB-81.png,0.37,1.2,37,0.25,,,,,,,,,,,,,,,,,,0,37,37,36,1,,,,,,,,,,,,,,,,,,,,,,,
,,,,,SPR24_071,20,Female,2024-04-19_10h05.03.949,jersey_experiment_5_v0,2023.2.2,Win32,84.74576271,,,,,,,,,,,,,,,,1100.1732,1101.2202,1101.2203,1103.8908,return,0.6207,,44.53125,,,,,,FBP-OG-18.png,0.35,1.2,6,0.25,,,,,,,,,,,,,,,,,,0,38,38,5,1,,,,,,,,,,,,,,,,,,,,,,,
,,,,,SPR24_071,20,Female,2024-04-19_10h05.03.949,jersey_experiment_5_v0,2023.2.2,Win32,84.74576271,,,,,,,,,,,,,,,,1103.891,1104.9379,1104.9379,1108.7146,return,2.552,,76.04166667,,,,,,FBP-RB-81.png,0.43,1.2,39,0.25,,,,,,,,,,,,,,,,,,0,39,39,38,1,,,,,,,,,,,,,,,,,,,,,,,
,,,,,SPR24_071,20,Female,2024-04-19_10h05.03.949,jersey_experiment_5_v0,2023.2.2,Win32,84.74576271,,,,,,,,,,,,,,,,1108.7147,1109.7617,1109.7617,1110.8912,return,0.6269,,76.04166667,,,,,,FBP-OG-19.png,0.43,1.2,14,0.25,,,,,,,,,,,,,,,,,,0,40,40,13,1,,,,,,,,,,,,,,,,,,,,,,,
,,,,,SPR24_071,20,Female,2024-04-19_10h05.03.949,jersey_experiment_5_v0,2023.2.2,Win32,84.74576271,,,,,,,,,,,,,,,,1110.8914,1112.1853,1112.1853,1115.6207,return,2.4752,,61.58854167,,,,,,FBP-YG-71.png,0.4,1.2,18,0.5,,,,,,,,,,,,,,,,,,0,41,41,17,1,,,,,,,,,,,,,,,,,,,,,,,
,,,,,SPR24_071,20,Female,2024-04-19_10h05.03.949,jersey_experiment_5_v0,2023.2.2,Win32,84.74576271,,,,,,,,,,,,,,,,1115.621,1116.6676,1116.6677,1118.1502,return,0.5937,,61.58854167,,,,,,FBP-OG-19.png,0.4,1.2,13,0.25,,,,,,,,,,,,,,,,,,0,42,42,12,1,,,,,,,,,,,,,,,,,,,,,,,
,,,,,SPR24_071,20,Female,2024-04-19_10h05.03.949,jersey_experiment_5_v0,2023.2.2,Win32,84.74576271,,,,,,,,,,,,,,,,1118.1504,1119.4442,1119.4442,1121.2562,return,0.5777,,49.86979167,,,,,,FBP-YG-71.png,0.37,1.2,17,0.5,,,,,,,,,,,,,,,,,,0,43,43,16,1,,,,,,,,,,,,,,,,,,,,,,,
,,,,,SPR24_071,20,Female,2024-04-19_10h05.03.949,jersey_experiment_5_v0,2023.2.2,Win32,84.74576271,,,,,,,,,,,,,,,,1121.2563,1122.5503,1122.5503,1123.9978,return,0.6028,,49.86979167,,,,,,FBP-PT-91.png,0.35,1.2,56,0.5,,,,,,,,,,,,,,,,,,0,44,44,55,1,,,,,,,,,,,,,,,,,,,,,,,
,,,,,SPR24_071,20,Female,2024-04-19_10h05.03.949,jersey_experiment_5_v0,2023.2.2,Win32,84.74576271,,,,,,,,,,,,,,,,1123.998,1125.0446,1125.0446,1126.5033,return,0.4512,,42.83854167,,,,,,FBP-RB-81.png,0.35,1.2,36,0.25,,,,,,,,,,,,,,,,,,0,45,45,35,1,,,,,,,,,,,,,,,,,,,,,,,
,,,,,SPR24_071,20,Female,2024-04-19_10h05.03.949,jersey_experiment_5_v0,2023.2.2,Win32,84.74576271,,,,,,,,,,,,,,,,1126.5037,1127.7976,1127.7976,1131.4449,return,2.8165,,48.828125,,,,,,FBP-PT-81.png,0.37,1.2,52,0.5,,,,,,,,,,,,,,,,,,0,46,46,51,1,,,,,,,,,,,,,,,,,,,,,,,
,,,,,SPR24_071,20,Female,2024-04-19_10h05.03.949,jersey_experiment_5_v0,2023.2.2,Win32,84.74576271,,,,,,,,,,,,,,,,1131.4451,1132.7388,1132.7388,1134.8095,return,1.1407,,77.08333333,,,,,,FBP-YG-81.png,0.45,1.2,25,0.5,,,,,,,,,,,,,,,,,,0,47,47,24,1,,,,,,,,,,,,,,,,,,,,,,,
,,,,,SPR24_071,20,Female,2024-04-19_10h05.03.949,jersey_experiment_5_v0,2023.2.2,Win32,84.74576271,,,,,,,,,,,,,,,,1134.8098,1135.8568,1135.8568,1139.0802,return,2.1326,,42.83854167,,,,,,FBP-RB-91.png,0.35,1.2,41,0.25,,,,,,,,,,,,,,,,,,0,48,48,40,1,,,,,,,,,,,,,,,,,,,,,,,
,,,,,SPR24_071,20,Female,2024-04-19_10h05.03.949,jersey_experiment_5_v0,2023.2.2,Win32,84.74576271,,,,,,,,,,,,,,,,1139.0804,1140.3745,1140.3745,1142.6335,return,1.3554,,69.140625,,,,,,FBP-YG-71.png,0.43,1.2,19,0.5,,,,,,,,,,,,,,,,,,0,49,49,18,1,,,,,,,,,,,,,,,,,,,,,,,
,,,,,SPR24_071,20,Female,2024-04-19_10h05.03.949,jersey_experiment_5_v0,2023.2.2,Win32,84.74576271,,,,,,,,,,,,,,,,1142.6337,1143.9277,1143.9277,1145.7395,return,0.9881,,50.13020833,,,,,,FBP-YG-81.png,0.35,1.2,21,0.5,,,,,,,,,,,,,,,,,,0,50,50,20,1,,,,,,,,,,,,,,,,,,,,,,,
,,,,,SPR24_071,20,Female,2024-04-19_10h05.03.949,jersey_experiment_5_v0,2023.2.2,Win32,84.74576271,,,,,,,,,,,,,,,,1145.7397,1147.0336,1147.0336,1148.0924,return,0.588,,50.13020833,,,,,,FBP-PT-81.png,0.35,1.2,51,0.5,,,,,,,,,,,,,,,,,,0,51,51,50,1,,,,,,,,,,,,,,,,,,,,,,,
,,,,,SPR24_071,20,Female,2024-04-19_10h05.03.949,jersey_experiment_5_v0,2023.2.2,Win32,84.74576271,,,,,,,,,,,,,,,,1148.0927,1149.1395,1149.1395,1150.8572,return,0.9904,,56.38020833,,,,,,FBP-OG-19.png,0.37,1.2,12,0.25,,,,,,,,,,,,,,,,,,0,52,52,11,1,,,,,,,,,,,,,,,,,,,,,,,
,,,,,SPR24_071,20,Female,2024-04-19_10h05.03.949,jersey_experiment_5_v0,2023.2.2,Win32,84.74576271,,,,,,,,,,,,,,,,1150.8575,1152.1514,1152.1514,1153.7633,return,0.7123,,54.81770833,,,,,,FBP-YG-91.png,0.37,1.2,27,0.5,,,,,,,,,,,,,,,,,,0,53,53,26,1,,,,,,,,,,,,,,,,,,,,,,,
,,,,,SPR24_071,20,Female,2024-04-19_10h05.03.949,jersey_experiment_5_v0,2023.2.2,Win32,84.74576271,,,,,,,,,,,,,,,,1153.7636,1155.0575,1155.0575,1156.7634,return,0.5651,,74.73958333,,,,,,FBP-YG-91.png,0.45,1.2,30,0.5,,,,,,,,,,,,,,,,,,0,54,54,29,1,,,,,,,,,,,,,,,,,,,,,,,
,,,,,SPR24_071,20,Female,2024-04-19_10h05.03.949,jersey_experiment_5_v0,2023.2.2,Win32,84.74576271,,,,,,,,,,,,,,,,1156.7636,1158.0574,1158.0575,1159.4929,return,0.5476,,50,,,,,,FBP-YG-71.png,0.35,1.2,16,0.5,,,,,,,,,,,,,,,,,,0,55,55,15,1,,,,,,,,,,,,,,,,,,,,,,,
,,,,,SPR24_071,20,Female,2024-04-19_10h05.03.949,jersey_experiment_5_v0,2023.2.2,Win32,84.74576271,,,,,,,,,,,,,,,,1159.4931,1160.5399,1160.54,1164.0931,return,1.9059,,84.24479167,,,,,,FBP-RB-71.png,0.4,1.2,33,0.25,,,,,,,,,,,,,,,,,,0,56,56,32,1,,,,,,,,,,,,,,,,,,,,,,,
,,,,,SPR24_071,20,Female,2024-04-19_10h05.03.949,jersey_experiment_5_v0,2023.2.2,Win32,84.74576271,,,,,,,,,,,,,,,,1164.0933,1165.1403,1165.1403,1166.1637,return,0.499,,82.16145833,,,,,,FBP-RB-91.png,0.45,1.2,45,0.25,,,,,,,,,,,,,,,,,,0,57,57,44,1,,,,,,,,,,,,,,,,,,,,,,,
,,,,,SPR24_071,20,Female,2024-04-19_10h05.03.949,jersey_experiment_5_v0,2023.2.2,Win32,84.74576271,,,,,,,,,,,,,,,,1166.1639,1167.2106,1167.2106,1169.3638,return,0.5227,,39.32291667,,,,,,FBP-OG-19.png,0.35,1.2,11,0.25,,,,,,,,,,,,,,,,,,0,58,58,10,1,,,,,,,,,,,,,,,,,,,,,,,
,,,,,SPR24_071,20,Female,2024-04-19_10h05.03.949,jersey_experiment_5_v0,2023.2.2,Win32,84.74576271,,,,,,,,,,,,,,,,1169.364,1170.6581,1170.6581,1171.8463,return,1.0259,,33.72395833,,,,,,FBP-PT-71.png,0.35,1.2,46,0.5,,,,,,,,,,,,,,,,,,0,59,59,45,1,,,,,,,,,,,,,,,,,,,,,,,
,,,,,SPR24_071,20,Female,2024-04-19_10h05.03.949,jersey_experiment_5_v0,2023.2.2,Win32,84.74576271,,,,,,,,,,,,,,,,,,,,,,,,,,,,,,,,,,,,,,,,,,,,,,,,,,,,,,,,1171.8468,1179.588,return,7.7344,,,,,,,,,,,,,,,,,,,
,,,,,SPR24_071,20,Female,2024-04-19_10h05.03.949,jersey_experiment_5_v0,2023.2.2,Win32,84.74576271,,,,,,,,,,,,,,,,,,,,,,,,,,,,,,,,,,,,,,,,,,,,,,,,,,,,,,,,,,,,,1179.5881,1188.6826,1,4.1695,return,4.9073,,,,,,,,,,,,
,,,,,SPR24_071,20,Female,2024-04-19_10h05.03.949,jersey_experiment_5_v0,2023.2.2,Win32,84.74576271,,,,,,,,,,,,,,,,,,,,,,,,,,,,,,,,,,,,,,,,,,,,,,,,,,,,,,,,,,,,,,,,,,,,1188.6866,1282.1147,"maybe about how the color of the shirt affects how you perceive size. Effects of race affects how you perceive size. potentially looking at how long it took to answer and see if there are associations with that and size, color of shirt, or race.",right,85.6361,,,,,,
,,,,,SPR24_071,20,Female,2024-04-19_10h05.03.949,jersey_experiment_5_v0,2023.2.2,Win32,84.74576271,,,,,,,,,,,,,,,,,,,,,,,,,,,,,,,,,,,,,,,,,,,,,,,,,,,,,,,,,,,,,,,,,,,,,,,,,,1282.1148,1287.3093,return,5.181,