requirements.started,requirements.stopped,key_resp_3.keys,key_resp_3.rt,key_resp_3.duration,Subject ID,Age,Gender,date,expName,psychopyVersion,OS,frameRate,instructions1.started,instructions1.stopped,key_resp.keys,key_resp.rt,key_resp.duration,example.started,example.stopped,enter_2.keys,enter_2.rt,enter_2.duration,instructions2.started,instructions2.stopped,enter_3.keys,enter_3.rt,enter_3.duration,image.started,image.stopped,slider_2.started,slider_2.stopped,next.keys,next.rt,next.duration,slider.response,trial_block_1.thisRepN,trial_block_1.thisTrialN,trial_block_1.thisN,trial_block_1.thisIndex,trial_block_1.ran,Path,Width,Height,Index,Duration,trial_block_2.thisRepN,trial_block_2.thisTrialN,trial_block_2.thisN,trial_block_2.thisIndex,trial_block_2.ran,rest_break.started,rest_break.stopped,end_break.started,end_break.stopped,key_resp_5.keys,key_resp_5.rt,key_resp_5.duration,trial_block_3.thisRepN,trial_block_3.thisTrialN,trial_block_3.thisN,trial_block_3.thisIndex,trial_block_3.ran,trial_block_4.thisRepN,trial_block_4.thisTrialN,trial_block_4.thisN,trial_block_4.thisIndex,trial_block_4.ran,questions_intro.started,questions_intro.stopped,enter_12.keys,enter_12.rt,enter_12.duration,question2.started,question2.stopped,question_doingbest.response,question_doingbest.rt,enter_15.keys,enter_15.rt,enter_15.duration,pattern.started,pattern.stopped,pattern_2.text,enter_17.keys,enter_17.rt,enter_17.duration,thankyou.started,thankyou.stopped,enter_14.keys,enter_14.rt,enter_14.duration
0.0002,6.3633,return,6.3572,,SPR24_060,20,Female,2024-04-17_11h41.19.844,jersey_experiment_5_v0,2023.2.2,Win32,84.74576271,,,,,,,,,,,,,,,,,,,,,,,,,,,,,,,,,,,,,,,,,,,,,,,,,,,,,,,,,,,,,,,,,,,,,,,,,,,,,,
,,,,,SPR24_060,20,Female,2024-04-17_11h41.19.844,jersey_experiment_5_v0,2023.2.2,Win32,84.74576271,6.3635,11.8971,return,5.5192,,,,,,,,,,,,,,,,,,,,,,,,,,,,,,,,,,,,,,,,,,,,,,,,,,,,,,,,,,,,,,,,,,,,,,,,,,
,,,,,SPR24_060,20,Female,2024-04-17_11h41.19.844,jersey_experiment_5_v0,2023.2.2,Win32,84.74576271,,,,,,11.8972,18.952,return,7.0241,,,,,,,,,,,,,,,,,,,,,,,,,,,,,,,,,,,,,,,,,,,,,,,,,,,,,,,,,,,,,,,,,,,,,
,,,,,SPR24_060,20,Female,2024-04-17_11h41.19.844,jersey_experiment_5_v0,2023.2.2,Win32,84.74576271,,,,,,,,,,,18.9522,34.9291,return,15.9653,,,,,,,,,,,,,,,,,,,,,,,,,,,,,,,,,,,,,,,,,,,,,,,,,,,,,,,,,,,,,,,,
,,,,,SPR24_060,20,Female,2024-04-17_11h41.19.844,jersey_experiment_5_v0,2023.2.2,Win32,84.74576271,,,,,,,,,,,,,,,,34.9359,35.9878,35.9879,48.2472,return,1.9483,,67.44791667,0,0,0,59,1,FBP-PT-19.png,0.45,1.2,60,0.25,,,,,,,,,,,,,,,,,,,,,,,,,,,,,,,,,,,,,,,,,,,,,
,,,,,SPR24_060,20,Female,2024-04-17_11h41.19.844,jersey_experiment_5_v0,2023.2.2,Win32,84.74576271,,,,,,,,,,,,,,,,48.2475,49.2939,49.2939,56.5414,return,2.637,,25.13020833,0,1,1,21,1,FBP-YG-18.png,0.37,1.2,22,0.25,,,,,,,,,,,,,,,,,,,,,,,,,,,,,,,,,,,,,,,,,,,,,
,,,,,SPR24_060,20,Female,2024-04-17_11h41.19.844,jersey_experiment_5_v0,2023.2.2,Win32,84.74576271,,,,,,,,,,,,,,,,56.5416,57.8353,57.8354,65.13,return,4.2016,,88.15104167,0,2,2,38,1,FBP-RB-18.png,0.43,1.2,39,0.5,,,,,,,,,,,,,,,,,,,,,,,,,,,,,,,,,,,,,,,,,,,,,
,,,,,SPR24_060,20,Female,2024-04-17_11h41.19.844,jersey_experiment_5_v0,2023.2.2,Win32,84.74576271,,,,,,,,,,,,,,,,65.1345,66.4359,66.436,71.8244,return,2.3193,,25.78125,0,3,3,35,1,FBP-RB-18.png,0.35,1.2,36,0.5,,,,,,,,,,,,,,,,,,,,,,,,,,,,,,,,,,,,,,,,,,,,,
,,,,,SPR24_060,20,Female,2024-04-17_11h41.19.844,jersey_experiment_5_v0,2023.2.2,Win32,84.74576271,,,,,,,,,,,,,,,,71.8246,73.1185,73.1186,81.3422,return,5.7179,,72.65625,0,4,4,7,1,FBP-OG-81.png,0.4,1.2,8,0.5,,,,,,,,,,,,,,,,,,,,,,,,,,,,,,,,,,,,,,,,,,,,,
,,,,,SPR24_060,20,Female,2024-04-17_11h41.19.844,jersey_experiment_5_v0,2023.2.2,Win32,84.74576271,,,,,,,,,,,,,,,,81.3425,82.6364,82.6364,93.3546,return,9.108,,55.33854167,0,5,5,30,1,FBP-RB-17.png,0.35,1.2,31,0.5,,,,,,,,,,,,,,,,,,,,,,,,,,,,,,,,,,,,,,,,,,,,,
,,,,,SPR24_060,20,Female,2024-04-17_11h41.19.844,jersey_experiment_5_v0,2023.2.2,Win32,84.74576271,,,,,,,,,,,,,,,,93.3548,94.6487,94.6487,99.143,return,3.2663,,79.81770833,0,6,6,32,1,FBP-RB-17.png,0.4,1.2,33,0.5,,,,,,,,,,,,,,,,,,,,,,,,,,,,,,,,,,,,,,,,,,,,,
,,,,,SPR24_060,20,Female,2024-04-17_11h41.19.844,jersey_experiment_5_v0,2023.2.2,Win32,84.74576271,,,,,,,,,,,,,,,,99.1471,100.1899,100.19,108.6727,return,5.0127,,69.27083333,0,7,7,46,1,FBP-PT-17.png,0.37,1.2,47,0.25,,,,,,,,,,,,,,,,,,,,,,,,,,,,,,,,,,,,,,,,,,,,,
,,,,,SPR24_060,20,Female,2024-04-17_11h41.19.844,jersey_experiment_5_v0,2023.2.2,Win32,84.74576271,,,,,,,,,,,,,,,,108.6731,109.7197,109.7198,117.673,return,6.533,,71.484375,0,8,8,50,1,FBP-PT-18.png,0.35,1.2,51,0.25,,,,,,,,,,,,,,,,,,,,,,,,,,,,,,,,,,,,,,,,,,,,,
,,,,,SPR24_060,20,Female,2024-04-17_11h41.19.844,jersey_experiment_5_v0,2023.2.2,Win32,84.74576271,,,,,,,,,,,,,,,,117.6775,118.7201,118.7202,123.6733,return,3.4171,,89.58333333,0,9,9,58,1,FBP-PT-19.png,0.43,1.2,59,0.25,,,,,,,,,,,,,,,,,,,,,,,,,,,,,,,,,,,,,,,,,,,,,
,,,,,SPR24_060,20,Female,2024-04-17_11h41.19.844,jersey_experiment_5_v0,2023.2.2,Win32,84.74576271,,,,,,,,,,,,,,,,123.6777,124.9792,124.9793,127.5204,return,1.2479,,99.609375,0,10,10,4,1,FBP-OG-71.png,0.45,1.2,5,0.5,,,,,,,,,,,,,,,,,,,,,,,,,,,,,,,,,,,,,,,,,,,,,
,,,,,SPR24_060,20,Female,2024-04-17_11h41.19.844,jersey_experiment_5_v0,2023.2.2,Win32,84.74576271,,,,,,,,,,,,,,,,127.5207,128.5676,128.5676,131.3912,return,1.1153,,99.73958333,0,11,11,19,1,FBP-YG-17.png,0.45,1.2,20,0.25,,,,,,,,,,,,,,,,,,,,,,,,,,,,,,,,,,,,,,,,,,,,,
,,,,,SPR24_060,20,Female,2024-04-17_11h41.19.844,jersey_experiment_5_v0,2023.2.2,Win32,84.74576271,,,,,,,,,,,,,,,,131.3914,132.6853,132.6853,142.2975,return,8.5206,,78.64583333,0,12,12,0,1,FBP-OG-71.png,0.35,1.2,1,0.5,,,,,,,,,,,,,,,,,,,,,,,,,,,,,,,,,,,,,,,,,,,,,
,,,,,SPR24_060,20,Female,2024-04-17_11h41.19.844,jersey_experiment_5_v0,2023.2.2,Win32,84.74576271,,,,,,,,,,,,,,,,142.2978,143.5915,143.5915,148.2977,return,3.2266,,100,0,13,13,39,1,FBP-RB-18.png,0.45,1.2,40,0.5,,,,,,,,,,,,,,,,,,,,,,,,,,,,,,,,,,,,,,,,,,,,,
,,,,,SPR24_060,20,Female,2024-04-17_11h41.19.844,jersey_experiment_5_v0,2023.2.2,Win32,84.74576271,,,,,,,,,,,,,,,,148.2981,149.5918,149.5919,154.4157,return,3.6003,,89.0625,0,14,14,44,1,FBP-RB-19.png,0.45,1.2,45,0.5,,,,,,,,,,,,,,,,,,,,,,,,,,,,,,,,,,,,,,,,,,,,,
,,,,,SPR24_060,20,Female,2024-04-17_11h41.19.844,jersey_experiment_5_v0,2023.2.2,Win32,84.74576271,,,,,,,,,,,,,,,,154.4159,155.4626,155.4626,160.3335,return,2.1891,,100,0,15,15,49,1,FBP-PT-17.png,0.45,1.2,50,0.25,,,,,,,,,,,,,,,,,,,,,,,,,,,,,,,,,,,,,,,,,,,,,
,,,,,SPR24_060,20,Female,2024-04-17_11h41.19.844,jersey_experiment_5_v0,2023.2.2,Win32,84.74576271,,,,,,,,,,,,,,,,160.3336,161.3804,161.3804,166.8631,return,3.8587,,75.78125,0,16,16,27,1,FBP-YG-19.png,0.4,1.2,28,0.25,,,,,,,,,,,,,,,,,,,,,,,,,,,,,,,,,,,,,,,,,,,,,
,,,,,SPR24_060,20,Female,2024-04-17_11h41.19.844,jersey_experiment_5_v0,2023.2.2,Win32,84.74576271,,,,,,,,,,,,,,,,166.8633,167.91,167.9101,172.0634,return,2.2593,,25.65104167,0,17,17,25,1,FBP-YG-19.png,0.35,1.2,26,0.25,,,,,,,,,,,,,,,,,,,,,,,,,,,,,,,,,,,,,,,,,,,,,
,,,,,SPR24_060,20,Female,2024-04-17_11h41.19.844,jersey_experiment_5_v0,2023.2.2,Win32,84.74576271,,,,,,,,,,,,,,,,172.0636,173.3575,173.3575,183.5107,return,8.7144,,55.20833333,0,18,18,31,1,FBP-RB-17.png,0.37,1.2,32,0.5,,,,,,,,,,,,,,,,,,,,,,,,,,,,,,,,,,,,,,,,,,,,,
,,,,,SPR24_060,20,Female,2024-04-17_11h41.19.844,jersey_experiment_5_v0,2023.2.2,Win32,84.74576271,,,,,,,,,,,,,,,,183.5152,184.8167,184.8167,187.5109,return,1.6168,,50.91145833,0,19,19,41,1,FBP-RB-19.png,0.37,1.2,42,0.5,,,,,,,,,,,,,,,,,,,,,,,,,,,,,,,,,,,,,,,,,,,,,
,,,,,SPR24_060,20,Female,2024-04-17_11h41.19.844,jersey_experiment_5_v0,2023.2.2,Win32,84.74576271,,,,,,,,,,,,,,,,187.5112,188.8051,188.8051,191.8875,return,2.0803,,38.15104167,0,20,20,5,1,FBP-OG-81.png,0.35,1.2,6,0.5,,,,,,,,,,,,,,,,,,,,,,,,,,,,,,,,,,,,,,,,,,,,,
,,,,,SPR24_060,20,Female,2024-04-17_11h41.19.844,jersey_experiment_5_v0,2023.2.2,Win32,84.74576271,,,,,,,,,,,,,,,,191.8878,192.9347,192.9347,195.7114,return,1.2943,,96.875,0,21,21,29,1,FBP-YG-19.png,0.45,1.2,30,0.25,,,,,,,,,,,,,,,,,,,,,,,,,,,,,,,,,,,,,,,,,,,,,
,,,,,SPR24_060,20,Female,2024-04-17_11h41.19.844,jersey_experiment_5_v0,2023.2.2,Win32,84.74576271,,,,,,,,,,,,,,,,195.7116,197.0055,197.0055,199.9114,return,2.1105,,73.95833333,0,22,22,11,1,FBP-OG-91.png,0.37,1.2,12,0.5,,,,,,,,,,,,,,,,,,,,,,,,,,,,,,,,,,,,,,,,,,,,,
,,,,,SPR24_060,20,Female,2024-04-17_11h41.19.844,jersey_experiment_5_v0,2023.2.2,Win32,84.74576271,,,,,,,,,,,,,,,,199.9116,200.9584,200.9584,204.9115,return,2.909,,72.91666667,0,23,23,26,1,FBP-YG-19.png,0.37,1.2,27,0.25,,,,,,,,,,,,,,,,,,,,,,,,,,,,,,,,,,,,,,,,,,,,,
,,,,,SPR24_060,20,Female,2024-04-17_11h41.19.844,jersey_experiment_5_v0,2023.2.2,Win32,84.74576271,,,,,,,,,,,,,,,,204.9116,205.9585,205.9586,208.6999,return,1.45,,96.09375,0,24,24,23,1,FBP-YG-18.png,0.43,1.2,24,0.25,,,,,,,,,,,,,,,,,,,,,,,,,,,,,,,,,,,,,,,,,,,,,
,,,,,SPR24_060,20,Female,2024-04-17_11h41.19.844,jersey_experiment_5_v0,2023.2.2,Win32,84.74576271,,,,,,,,,,,,,,,,208.7001,209.7469,209.7469,213.2882,return,2.2163,,72.52604167,0,25,25,20,1,FBP-YG-18.png,0.35,1.2,21,0.25,,,,,,,,,,,,,,,,,,,,,,,,,,,,,,,,,,,,,,,,,,,,,
,,,,,SPR24_060,20,Female,2024-04-17_11h41.19.844,jersey_experiment_5_v0,2023.2.2,Win32,84.74576271,,,,,,,,,,,,,,,,213.2884,214.5824,214.5825,217.5474,return,1.8502,,91.796875,0,26,26,13,1,FBP-OG-91.png,0.43,1.2,14,0.5,,,,,,,,,,,,,,,,,,,,,,,,,,,,,,,,,,,,,,,,,,,,,
,,,,,SPR24_060,20,Female,2024-04-17_11h41.19.844,jersey_experiment_5_v0,2023.2.2,Win32,84.74576271,,,,,,,,,,,,,,,,217.5476,218.8416,218.8417,232.7948,return,12.6137,,90.75520833,0,27,27,42,1,FBP-RB-19.png,0.4,1.2,43,0.5,,,,,,,,,,,,,,,,,,,,,,,,,,,,,,,,,,,,,,,,,,,,,
,,,,,SPR24_060,20,Female,2024-04-17_11h41.19.844,jersey_experiment_5_v0,2023.2.2,Win32,84.74576271,,,,,,,,,,,,,,,,232.7995,233.8419,233.8419,241.8306,return,6.3112,,43.48958333,0,28,28,15,1,FBP-YG-17.png,0.35,1.2,16,0.25,,,,,,,,,,,,,,,,,,,,,,,,,,,,,,,,,,,,,,,,,,,,,
,,,,,SPR24_060,20,Female,2024-04-17_11h41.19.844,jersey_experiment_5_v0,2023.2.2,Win32,84.74576271,,,,,,,,,,,,,,,,241.8308,243.1248,243.1249,246.5248,return,2.2465,,74.609375,0,29,29,12,1,FBP-OG-91.png,0.4,1.2,13,0.5,,,,,,,,,,,,,,,,,,,,,,,,,,,,,,,,,,,,,,,,,,,,,
,,,,,SPR24_060,20,Female,2024-04-17_11h41.19.844,jersey_experiment_5_v0,2023.2.2,Win32,84.74576271,,,,,,,,,,,,,,,,246.525,247.5718,247.5719,250.925,return,1.7766,,76.953125,0,30,30,57,1,FBP-PT-19.png,0.4,1.2,58,0.25,,,,,,,,,,,,,,,,,,,,,,,,,,,,,,,,,,,,,,,,,,,,,
,,,,,SPR24_060,20,Female,2024-04-17_11h41.19.844,jersey_experiment_5_v0,2023.2.2,Win32,84.74576271,,,,,,,,,,,,,,,,250.9252,251.972,251.9721,255.3369,return,1.406,,48.95833333,0,31,31,55,1,FBP-PT-19.png,0.35,1.2,56,0.25,,,,,,,,,,,,,,,,,,,,,,,,,,,,,,,,,,,,,,,,,,,,,
,,,,,SPR24_060,20,Female,2024-04-17_11h41.19.844,jersey_experiment_5_v0,2023.2.2,Win32,84.74576271,,,,,,,,,,,,,,,,255.3371,256.3839,256.3839,263.2783,return,5.3742,,92.578125,0,32,32,18,1,FBP-YG-17.png,0.43,1.2,19,0.25,,,,,,,,,,,,,,,,,,,,,,,,,,,,,,,,,,,,,,,,,,,,,
,,,,,SPR24_060,20,Female,2024-04-17_11h41.19.844,jersey_experiment_5_v0,2023.2.2,Win32,84.74576271,,,,,,,,,,,,,,,,263.2785,264.5725,264.5725,269.361,return,3.0123,,49.08854167,0,33,33,40,1,FBP-RB-19.png,0.35,1.2,41,0.5,,,,,,,,,,,,,,,,,,,,,,,,,,,,,,,,,,,,,,,,,,,,,
,,,,,SPR24_060,20,Female,2024-04-17_11h41.19.844,jersey_experiment_5_v0,2023.2.2,Win32,84.74576271,,,,,,,,,,,,,,,,269.3651,270.667,270.667,273.1847,return,1.4916,,48.95833333,0,34,34,36,1,FBP-RB-18.png,0.37,1.2,37,0.5,,,,,,,,,,,,,,,,,,,,,,,,,,,,,,,,,,,,,,,,,,,,,
,,,,,SPR24_060,20,Female,2024-04-17_11h41.19.844,jersey_experiment_5_v0,2023.2.2,Win32,84.74576271,,,,,,,,,,,,,,,,273.1849,274.2317,274.2318,277.9848,return,1.9058,,98.828125,0,35,35,24,1,FBP-YG-18.png,0.45,1.2,25,0.25,,,,,,,,,,,,,,,,,,,,,,,,,,,,,,,,,,,,,,,,,,,,,
,,,,,SPR24_060,20,Female,2024-04-17_11h41.19.844,jersey_experiment_5_v0,2023.2.2,Win32,84.74576271,,,,,,,,,,,,,,,,277.985,279.2789,279.2789,281.2556,return,1.0894,,98.828125,0,36,36,8,1,FBP-OG-81.png,0.43,1.2,9,0.5,,,,,,,,,,,,,,,,,,,,,,,,,,,,,,,,,,,,,,,,,,,,,
,,,,,SPR24_060,20,Female,2024-04-17_11h41.19.844,jersey_experiment_5_v0,2023.2.2,Win32,84.74576271,,,,,,,,,,,,,,,,281.2558,282.3026,282.3027,284.4322,return,1.2704,,98.046875,0,37,37,48,1,FBP-PT-17.png,0.43,1.2,49,0.25,,,,,,,,,,,,,,,,,,,,,,,,,,,,,,,,,,,,,,,,,,,,,
,,,,,SPR24_060,20,Female,2024-04-17_11h41.19.844,jersey_experiment_5_v0,2023.2.2,Win32,84.74576271,,,,,,,,,,,,,,,,284.4324,285.4791,285.4792,288.2087,return,1.0819,,49.34895833,0,38,38,45,1,FBP-PT-17.png,0.35,1.2,46,0.25,,,,,,,,,,,,,,,,,,,,,,,,,,,,,,,,,,,,,,,,,,,,,
,,,,,SPR24_060,20,Female,2024-04-17_11h41.19.844,jersey_experiment_5_v0,2023.2.2,Win32,84.74576271,,,,,,,,,,,,,,,,288.209,289.2559,289.2559,291.9736,return,1.809,,49.609375,0,39,39,56,1,FBP-PT-19.png,0.37,1.2,57,0.25,,,,,,,,,,,,,,,,,,,,,,,,,,,,,,,,,,,,,,,,,,,,,
,,,,,SPR24_060,20,Female,2024-04-17_11h41.19.844,jersey_experiment_5_v0,2023.2.2,Win32,84.74576271,,,,,,,,,,,,,,,,291.9738,293.2678,293.2678,296.4445,return,2.3297,,98.828125,0,40,40,14,1,FBP-OG-91.png,0.45,1.2,15,0.5,,,,,,,,,,,,,,,,,,,,,,,,,,,,,,,,,,,,,,,,,,,,,
,,,,,SPR24_060,20,Female,2024-04-17_11h41.19.844,jersey_experiment_5_v0,2023.2.2,Win32,84.74576271,,,,,,,,,,,,,,,,296.4447,297.7385,297.7385,301.1269,return,2.5937,,98.828125,0,41,41,43,1,FBP-RB-19.png,0.43,1.2,44,0.5,,,,,,,,,,,,,,,,,,,,,,,,,,,,,,,,,,,,,,,,,,,,,
,,,,,SPR24_060,20,Female,2024-04-17_11h41.19.844,jersey_experiment_5_v0,2023.2.2,Win32,84.74576271,,,,,,,,,,,,,,,,301.1272,302.421,302.4211,309.6919,return,5.6235,,59.63541667,0,42,42,10,1,FBP-OG-91.png,0.35,1.2,11,0.5,,,,,,,,,,,,,,,,,,,,,,,,,,,,,,,,,,,,,,,,,,,,,
,,,,,SPR24_060,20,Female,2024-04-17_11h41.19.844,jersey_experiment_5_v0,2023.2.2,Win32,84.74576271,,,,,,,,,,,,,,,,309.6921,310.739,310.739,331.1752,return,19.1966,,80.59895833,0,43,43,17,1,FBP-YG-17.png,0.4,1.2,18,0.25,,,,,,,,,,,,,,,,,,,,,,,,,,,,,,,,,,,,,,,,,,,,,
,,,,,SPR24_060,20,Female,2024-04-17_11h41.19.844,jersey_experiment_5_v0,2023.2.2,Win32,84.74576271,,,,,,,,,,,,,,,,331.1797,332.481,332.481,336.3753,return,2.5136,,48.4375,0,44,44,6,1,FBP-OG-81.png,0.37,1.2,7,0.5,,,,,,,,,,,,,,,,,,,,,,,,,,,,,,,,,,,,,,,,,,,,,
,,,,,SPR24_060,20,Female,2024-04-17_11h41.19.844,jersey_experiment_5_v0,2023.2.2,Win32,84.74576271,,,,,,,,,,,,,,,,336.3755,337.4223,337.4223,340.1873,return,1.2252,,69.40104167,0,45,45,16,1,FBP-YG-17.png,0.37,1.2,17,0.25,,,,,,,,,,,,,,,,,,,,,,,,,,,,,,,,,,,,,,,,,,,,,
,,,,,SPR24_060,20,Female,2024-04-17_11h41.19.844,jersey_experiment_5_v0,2023.2.2,Win32,84.74576271,,,,,,,,,,,,,,,,340.1875,341.4814,341.4814,344.4696,return,1.8184,,97.13541667,0,46,46,9,1,FBP-OG-81.png,0.45,1.2,10,0.5,,,,,,,,,,,,,,,,,,,,,,,,,,,,,,,,,,,,,,,,,,,,,
,,,,,SPR24_060,20,Female,2024-04-17_11h41.19.844,jersey_experiment_5_v0,2023.2.2,Win32,84.74576271,,,,,,,,,,,,,,,,344.4698,345.7639,345.7639,348.8934,return,1.9437,,100,0,47,47,34,1,FBP-RB-17.png,0.45,1.2,35,0.5,,,,,,,,,,,,,,,,,,,,,,,,,,,,,,,,,,,,,,,,,,,,,
,,,,,SPR24_060,20,Female,2024-04-17_11h41.19.844,jersey_experiment_5_v0,2023.2.2,Win32,84.74576271,,,,,,,,,,,,,,,,348.8936,349.9403,349.9403,353.7524,return,2.3828,,87.5,0,48,48,53,1,FBP-PT-18.png,0.43,1.2,54,0.25,,,,,,,,,,,,,,,,,,,,,,,,,,,,,,,,,,,,,,,,,,,,,
,,,,,SPR24_060,20,Female,2024-04-17_11h41.19.844,jersey_experiment_5_v0,2023.2.2,Win32,84.74576271,,,,,,,,,,,,,,,,353.7527,355.0465,355.0465,359.5761,return,2.5691,,51.69270833,0,49,49,1,1,FBP-OG-71.png,0.37,1.2,2,0.5,,,,,,,,,,,,,,,,,,,,,,,,,,,,,,,,,,,,,,,,,,,,,
,,,,,SPR24_060,20,Female,2024-04-17_11h41.19.844,jersey_experiment_5_v0,2023.2.2,Win32,84.74576271,,,,,,,,,,,,,,,,359.5764,360.8702,360.8702,363.8351,return,1.7094,,76.43229167,0,50,50,2,1,FBP-OG-71.png,0.4,1.2,3,0.5,,,,,,,,,,,,,,,,,,,,,,,,,,,,,,,,,,,,,,,,,,,,,
,,,,,SPR24_060,20,Female,2024-04-17_11h41.19.844,jersey_experiment_5_v0,2023.2.2,Win32,84.74576271,,,,,,,,,,,,,,,,363.8353,365.1291,365.1292,367.4352,return,1.0035,,76.953125,0,51,51,37,1,FBP-RB-18.png,0.4,1.2,38,0.5,,,,,,,,,,,,,,,,,,,,,,,,,,,,,,,,,,,,,,,,,,,,,
,,,,,SPR24_060,20,Female,2024-04-17_11h41.19.844,jersey_experiment_5_v0,2023.2.2,Win32,84.74576271,,,,,,,,,,,,,,,,367.4355,368.4823,368.4823,373.6002,return,4.0238,,81.38020833,0,52,52,22,1,FBP-YG-18.png,0.4,1.2,23,0.25,,,,,,,,,,,,,,,,,,,,,,,,,,,,,,,,,,,,,,,,,,,,,
,,,,,SPR24_060,20,Female,2024-04-17_11h41.19.844,jersey_experiment_5_v0,2023.2.2,Win32,84.74576271,,,,,,,,,,,,,,,,373.6004,374.6472,374.6472,381.2592,return,5.2505,,98.95833333,0,53,53,28,1,FBP-YG-19.png,0.43,1.2,29,0.25,,,,,,,,,,,,,,,,,,,,,,,,,,,,,,,,,,,,,,,,,,,,,
,,,,,SPR24_060,20,Female,2024-04-17_11h41.19.844,jersey_experiment_5_v0,2023.2.2,Win32,84.74576271,,,,,,,,,,,,,,,,381.2595,382.5533,382.5533,384.424,return,1.0397,,89.32291667,0,54,54,3,1,FBP-OG-71.png,0.43,1.2,4,0.5,,,,,,,,,,,,,,,,,,,,,,,,,,,,,,,,,,,,,,,,,,,,,
,,,,,SPR24_060,20,Female,2024-04-17_11h41.19.844,jersey_experiment_5_v0,2023.2.2,Win32,84.74576271,,,,,,,,,,,,,,,,384.4241,385.4711,385.4711,389.7183,return,2.0438,,62.109375,0,55,55,51,1,FBP-PT-18.png,0.37,1.2,52,0.25,,,,,,,,,,,,,,,,,,,,,,,,,,,,,,,,,,,,,,,,,,,,,
,,,,,SPR24_060,20,Female,2024-04-17_11h41.19.844,jersey_experiment_5_v0,2023.2.2,Win32,84.74576271,,,,,,,,,,,,,,,,389.7185,390.7656,390.7656,393.5421,return,1.3732,,71.09375,0,56,56,47,1,FBP-PT-17.png,0.4,1.2,48,0.25,,,,,,,,,,,,,,,,,,,,,,,,,,,,,,,,,,,,,,,,,,,,,
,,,,,SPR24_060,20,Female,2024-04-17_11h41.19.844,jersey_experiment_5_v0,2023.2.2,Win32,84.74576271,,,,,,,,,,,,,,,,393.5424,394.8363,394.8363,398.5658,return,2.5481,,87.890625,0,57,57,33,1,FBP-RB-17.png,0.43,1.2,34,0.5,,,,,,,,,,,,,,,,,,,,,,,,,,,,,,,,,,,,,,,,,,,,,
,,,,,SPR24_060,20,Female,2024-04-17_11h41.19.844,jersey_experiment_5_v0,2023.2.2,Win32,84.74576271,,,,,,,,,,,,,,,,398.5661,399.6128,399.6128,402.4484,return,1.4123,,83.46354167,0,58,58,54,1,FBP-PT-18.png,0.45,1.2,55,0.25,,,,,,,,,,,,,,,,,,,,,,,,,,,,,,,,,,,,,,,,,,,,,
,,,,,SPR24_060,20,Female,2024-04-17_11h41.19.844,jersey_experiment_5_v0,2023.2.2,Win32,84.74576271,,,,,,,,,,,,,,,,402.4487,403.4953,403.4953,405.119,return,0.8085,,83.203125,0,59,59,52,1,FBP-PT-18.png,0.4,1.2,53,0.25,,,,,,,,,,,,,,,,,,,,,,,,,,,,,,,,,,,,,,,,,,,,,
,,,,,SPR24_060,20,Female,2024-04-17_11h41.19.844,jersey_experiment_5_v0,2023.2.2,Win32,84.74576271,,,,,,,,,,,,,,,,405.1212,406.4132,406.4132,408.8957,return,1.3178,,98.95833333,,,,,,FBP-OG-17.png,0.45,1.2,5,0.5,0,0,0,4,1,,,,,,,,,,,,,,,,,,,,,,,,,,,,,,,,,,,,,,,,
,,,,,SPR24_060,20,Female,2024-04-17_11h41.19.844,jersey_experiment_5_v0,2023.2.2,Win32,84.74576271,,,,,,,,,,,,,,,,408.8962,410.1898,410.1899,411.5194,return,0.6354,,98.56770833,,,,,,FBP-OG-18.png,0.45,1.2,10,0.5,0,1,1,9,1,,,,,,,,,,,,,,,,,,,,,,,,,,,,,,,,,,,,,,,,
,,,,,SPR24_060,20,Female,2024-04-17_11h41.19.844,jersey_experiment_5_v0,2023.2.2,Win32,84.74576271,,,,,,,,,,,,,,,,411.5196,412.8133,412.8134,414.6722,return,1.2946,,94.53125,,,,,,FBP-RB-91.png,0.4,1.2,43,0.5,0,2,2,42,1,,,,,,,,,,,,,,,,,,,,,,,,,,,,,,,,,,,,,,,,
,,,,,SPR24_060,20,Female,2024-04-17_11h41.19.844,jersey_experiment_5_v0,2023.2.2,Win32,84.74576271,,,,,,,,,,,,,,,,414.6725,415.9664,415.9664,421.1196,return,3.7879,,61.328125,,,,,,FBP-OG-17.png,0.35,1.2,1,0.5,0,3,3,0,1,,,,,,,,,,,,,,,,,,,,,,,,,,,,,,,,,,,,,,,,
,,,,,SPR24_060,20,Female,2024-04-17_11h41.19.844,jersey_experiment_5_v0,2023.2.2,Win32,84.74576271,,,,,,,,,,,,,,,,421.1198,422.4137,422.4138,424.8728,return,0.6763,,99.47916667,,,,,,FBP-RB-71.png,0.43,1.2,34,0.5,0,4,4,33,1,,,,,,,,,,,,,,,,,,,,,,,,,,,,,,,,,,,,,,,,
,,,,,SPR24_060,20,Female,2024-04-17_11h41.19.844,jersey_experiment_5_v0,2023.2.2,Win32,84.74576271,,,,,,,,,,,,,,,,424.8729,425.9197,425.9197,428.9552,return,0.5774,,100,,,,,,FBP-YG-91.png,0.45,1.2,30,0.25,0,5,5,29,1,,,,,,,,,,,,,,,,,,,,,,,,,,,,,,,,,,,,,,,,
,,,,,SPR24_060,20,Female,2024-04-17_11h41.19.844,jersey_experiment_5_v0,2023.2.2,Win32,84.74576271,,,,,,,,,,,,,,,,428.9555,430.2493,430.2493,432.1671,return,0.678,,100,,,,,,FBP-RB-81.png,0.45,1.2,40,0.5,0,6,6,39,1,,,,,,,,,,,,,,,,,,,,,,,,,,,,,,,,,,,,,,,,
,,,,,SPR24_060,20,Female,2024-04-17_11h41.19.844,jersey_experiment_5_v0,2023.2.2,Win32,84.74576271,,,,,,,,,,,,,,,,432.1674,433.4611,433.4611,437.7084,return,3.0229,,29.81770833,,,,,,FBP-RB-81.png,0.35,1.2,36,0.5,0,7,7,35,1,,,,,,,,,,,,,,,,,,,,,,,,,,,,,,,,,,,,,,,,
,,,,,SPR24_060,20,Female,2024-04-17_11h41.19.844,jersey_experiment_5_v0,2023.2.2,Win32,84.74576271,,,,,,,,,,,,,,,,437.7088,439.0026,439.0026,441.744,return,0.7535,,77.08333333,,,,,,FBP-OG-18.png,0.4,1.2,8,0.5,0,8,8,7,1,,,,,,,,,,,,,,,,,,,,,,,,,,,,,,,,,,,,,,,,
,,,,,SPR24_060,20,Female,2024-04-17_11h41.19.844,jersey_experiment_5_v0,2023.2.2,Win32,84.74576271,,,,,,,,,,,,,,,,441.7442,442.7908,442.7909,444.8264,return,0.6979,,83.72395833,,,,,,FBP-PT-71.png,0.43,1.2,49,0.25,0,9,9,48,1,,,,,,,,,,,,,,,,,,,,,,,,,,,,,,,,,,,,,,,,
,,,,,SPR24_060,20,Female,2024-04-17_11h41.19.844,jersey_experiment_5_v0,2023.2.2,Win32,84.74576271,,,,,,,,,,,,,,,,444.8266,445.8734,445.8734,449.8617,return,1.0086,,9.635416667,,,,,,FBP-YG-91.png,0.35,1.2,26,0.25,0,10,10,25,1,,,,,,,,,,,,,,,,,,,,,,,,,,,,,,,,,,,,,,,,
,,,,,SPR24_060,20,Female,2024-04-17_11h41.19.844,jersey_experiment_5_v0,2023.2.2,Win32,84.74576271,,,,,,,,,,,,,,,,449.862,450.9088,450.9089,454.5092,return,1.0838,,88.41145833,,,,,,FBP-YG-81.png,0.43,1.2,24,0.25,0,11,11,23,1,,,,,,,,,,,,,,,,,,,,,,,,,,,,,,,,,,,,,,,,
,,,,,SPR24_060,20,Female,2024-04-17_11h41.19.844,jersey_experiment_5_v0,2023.2.2,Win32,84.74576271,,,,,,,,,,,,,,,,454.5094,455.5562,455.5562,457.2622,return,0.6918,,88.28125,,,,,,FBP-YG-81.png,0.4,1.2,23,0.25,0,12,12,22,1,,,,,,,,,,,,,,,,,,,,,,,,,,,,,,,,,,,,,,,,
,,,,,SPR24_060,20,Female,2024-04-17_11h41.19.844,jersey_experiment_5_v0,2023.2.2,Win32,84.74576271,,,,,,,,,,,,,,,,457.2624,458.3092,458.3092,461.674,return,1.0283,,90.36458333,,,,,,FBP-PT-81.png,0.43,1.2,54,0.25,0,13,13,53,1,,,,,,,,,,,,,,,,,,,,,,,,,,,,,,,,,,,,,,,,
,,,,,SPR24_060,20,Female,2024-04-17_11h41.19.844,jersey_experiment_5_v0,2023.2.2,Win32,84.74576271,,,,,,,,,,,,,,,,461.6742,462.9682,462.9683,467.0624,return,2.242,,56.25,,,,,,FBP-OG-18.png,0.35,1.2,6,0.5,0,14,14,5,1,,,,,,,,,,,,,,,,,,,,,,,,,,,,,,,,,,,,,,,,
,,,,,SPR24_060,20,Female,2024-04-17_11h41.19.844,jersey_experiment_5_v0,2023.2.2,Win32,84.74576271,,,,,,,,,,,,,,,,467.0627,468.1095,468.1095,473.451,return,4.4037,,55.859375,,,,,,FBP-PT-71.png,0.35,1.2,46,0.25,0,15,15,45,1,,,,,,,,,,,,,,,,,,,,,,,,,,,,,,,,,,,,,,,,
,,,,,SPR24_060,20,Female,2024-04-17_11h41.19.844,jersey_experiment_5_v0,2023.2.2,Win32,84.74576271,,,,,,,,,,,,,,,,473.4552,474.4981,474.4981,479.7925,return,1.4267,,81.51041667,,,,,,FBP-PT-91.png,0.4,1.2,58,0.25,0,16,16,57,1,,,,,,,,,,,,,,,,,,,,,,,,,,,,,,,,,,,,,,,,
,,,,,SPR24_060,20,Female,2024-04-17_11h41.19.844,jersey_experiment_5_v0,2023.2.2,Win32,84.74576271,,,,,,,,,,,,,,,,479.7928,480.8394,480.8394,485.8162,return,3.5568,,91.27604167,,,,,,FBP-YG-91.png,0.43,1.2,29,0.25,0,17,17,28,1,,,,,,,,,,,,,,,,,,,,,,,,,,,,,,,,,,,,,,,,
,,,,,SPR24_060,20,Female,2024-04-17_11h41.19.844,jersey_experiment_5_v0,2023.2.2,Win32,84.74576271,,,,,,,,,,,,,,,,485.8206,486.8632,486.8633,489.993,return,1.6767,,75.52083333,,,,,,FBP-PT-81.png,0.37,1.2,52,0.25,0,18,18,51,1,,,,,,,,,,,,,,,,,,,,,,,,,,,,,,,,,,,,,,,,
,,,,,SPR24_060,20,Female,2024-04-17_11h41.19.844,jersey_experiment_5_v0,2023.2.2,Win32,84.74576271,,,,,,,,,,,,,,,,489.9932,491.0399,491.0399,496.0754,return,3.9916,,100,,,,,,FBP-PT-91.png,0.43,1.2,59,0.25,0,19,19,58,1,,,,,,,,,,,,,,,,,,,,,,,,,,,,,,,,,,,,,,,,
,,,,,SPR24_060,20,Female,2024-04-17_11h41.19.844,jersey_experiment_5_v0,2023.2.2,Win32,84.74576271,,,,,,,,,,,,,,,,496.0756,497.1223,497.1224,499.8635,return,1.1245,,73.69791667,,,,,,FBP-PT-71.png,0.37,1.2,47,0.25,0,20,20,46,1,,,,,,,,,,,,,,,,,,,,,,,,,,,,,,,,,,,,,,,,
,,,,,SPR24_060,20,Female,2024-04-17_11h41.19.844,jersey_experiment_5_v0,2023.2.2,Win32,84.74576271,,,,,,,,,,,,,,,,499.8639,501.158,501.1581,507.1112,return,4.7255,,77.21354167,,,,,,FBP-OG-19.png,0.4,1.2,13,0.5,0,21,21,12,1,,,,,,,,,,,,,,,,,,,,,,,,,,,,,,,,,,,,,,,,
,,,,,SPR24_060,20,Female,2024-04-17_11h41.19.844,jersey_experiment_5_v0,2023.2.2,Win32,84.74576271,,,,,,,,,,,,,,,,507.1115,508.4052,508.4052,511.0523,return,0.8819,,75,,,,,,FBP-OG-17.png,0.4,1.2,3,0.5,0,22,22,2,1,,,,,,,,,,,,,,,,,,,,,,,,,,,,,,,,,,,,,,,,
,,,,,SPR24_060,20,Female,2024-04-17_11h41.19.844,jersey_experiment_5_v0,2023.2.2,Win32,84.74576271,,,,,,,,,,,,,,,,511.0526,512.0995,512.0995,513.9936,return,0.758,,87.890625,,,,,,FBP-PT-91.png,0.45,1.2,60,0.25,0,23,23,59,1,,,,,,,,,,,,,,,,,,,,,,,,,,,,,,,,,,,,,,,,
,,,,,SPR24_060,20,Female,2024-04-17_11h41.19.844,jersey_experiment_5_v0,2023.2.2,Win32,84.74576271,,,,,,,,,,,,,,,,513.9938,515.0406,515.0407,517.7114,return,0.6448,,99.73958333,,,,,,FBP-PT-81.png,0.45,1.2,55,0.25,0,24,24,54,1,,,,,,,,,,,,,,,,,,,,,,,,,,,,,,,,,,,,,,,,
,,,,,SPR24_060,20,Female,2024-04-17_11h41.19.844,jersey_experiment_5_v0,2023.2.2,Win32,84.74576271,,,,,,,,,,,,,,,,517.7116,518.7586,518.7586,523.0881,return,2.5557,,82.68229167,,,,,,FBP-YG-71.png,0.4,1.2,18,0.25,0,25,25,17,1,,,,,,,,,,,,,,,,,,,,,,,,,,,,,,,,,,,,,,,,
,,,,,SPR24_060,20,Female,2024-04-17_11h41.19.844,jersey_experiment_5_v0,2023.2.2,Win32,84.74576271,,,,,,,,,,,,,,,,523.0884,524.1351,524.1352,528.2176,return,2.5203,,30.078125,,,,,,FBP-YG-71.png,0.35,1.2,16,0.25,0,26,26,15,1,,,,,,,,,,,,,,,,,,,,,,,,,,,,,,,,,,,,,,,,
,,,,,SPR24_060,20,Female,2024-04-17_11h41.19.844,jersey_experiment_5_v0,2023.2.2,Win32,84.74576271,,,,,,,,,,,,,,,,528.2179,529.5119,529.5119,534.5827,return,3.4904,,88.15104167,,,,,,FBP-OG-17.png,0.43,1.2,4,0.5,0,27,27,3,1,,,,,,,,,,,,,,,,,,,,,,,,,,,,,,,,,,,,,,,,
,,,,,SPR24_060,20,Female,2024-04-17_11h41.19.844,jersey_experiment_5_v0,2023.2.2,Win32,84.74576271,,,,,,,,,,,,,,,,534.5829,535.8769,535.8769,538.6298,return,1.0436,,87.5,,,,,,FBP-RB-81.png,0.4,1.2,38,0.5,0,28,28,37,1,,,,,,,,,,,,,,,,,,,,,,,,,,,,,,,,,,,,,,,,
,,,,,SPR24_060,20,Female,2024-04-17_11h41.19.844,jersey_experiment_5_v0,2023.2.2,Win32,84.74576271,,,,,,,,,,,,,,,,538.63,539.677,539.677,541.7711,return,0.5418,,100,,,,,,FBP-YG-81.png,0.45,1.2,25,0.25,0,29,29,24,1,,,,,,,,,,,,,,,,,,,,,,,,,,,,,,,,,,,,,,,,
,,,,,SPR24_060,20,Female,2024-04-17_11h41.19.844,jersey_experiment_5_v0,2023.2.2,Win32,84.74576271,,,,,,,,,,,,,,,,541.7713,543.0652,543.0653,545.3359,return,0.5008,,100,,,,,,FBP-RB-91.png,0.43,1.2,44,0.5,0,30,30,43,1,,,,,,,,,,,,,,,,,,,,,,,,,,,,,,,,,,,,,,,,
,,,,,SPR24_060,20,Female,2024-04-17_11h41.19.844,jersey_experiment_5_v0,2023.2.2,Win32,84.74576271,,,,,,,,,,,,,,,,545.3361,546.6301,546.6301,548.842,return,0.6015,,75,,,,,,FBP-RB-81.png,0.37,1.2,37,0.5,0,31,31,36,1,,,,,,,,,,,,,,,,,,,,,,,,,,,,,,,,,,,,,,,,
,,,,,SPR24_060,20,Female,2024-04-17_11h41.19.844,jersey_experiment_5_v0,2023.2.2,Win32,84.74576271,,,,,,,,,,,,,,,,548.8422,550.1362,550.1362,551.8539,return,0.636,,99.73958333,,,,,,FBP-RB-81.png,0.43,1.2,39,0.5,0,32,32,38,1,,,,,,,,,,,,,,,,,,,,,,,,,,,,,,,,,,,,,,,,
,,,,,SPR24_060,20,Female,2024-04-17_11h41.19.844,jersey_experiment_5_v0,2023.2.2,Win32,84.74576271,,,,,,,,,,,,,,,,551.8542,553.148,553.148,554.8892,return,0.6503,,75,,,,,,FBP-RB-71.png,0.4,1.2,33,0.5,0,33,33,32,1,,,,,,,,,,,,,,,,,,,,,,,,,,,,,,,,,,,,,,,,
,,,,,SPR24_060,20,Female,2024-04-17_11h41.19.844,jersey_experiment_5_v0,2023.2.2,Win32,84.74576271,,,,,,,,,,,,,,,,554.8896,555.9362,555.9362,559.6542,return,0.6177,,49.47916667,,,,,,FBP-PT-81.png,0.35,1.2,51,0.25,0,34,34,50,1,,,,,,,,,,,,,,,,,,,,,,,,,,,,,,,,,,,,,,,,
,,,,,SPR24_060,20,Female,2024-04-17_11h41.19.844,jersey_experiment_5_v0,2023.2.2,Win32,84.74576271,,,,,,,,,,,,,,,,559.6545,560.7012,560.7012,564.3013,return,2.8483,,25.390625,,,,,,FBP-PT-91.png,0.37,1.2,57,0.25,0,35,35,56,1,,,,,,,,,,,,,,,,,,,,,,,,,,,,,,,,,,,,,,,,
,,,,,SPR24_060,20,Female,2024-04-17_11h41.19.844,jersey_experiment_5_v0,2023.2.2,Win32,84.74576271,,,,,,,,,,,,,,,,564.3015,565.5954,565.5955,569.4663,return,0.708,,74.34895833,,,,,,FBP-OG-18.png,0.43,1.2,9,0.5,0,36,36,8,1,,,,,,,,,,,,,,,,,,,,,,,,,,,,,,,,,,,,,,,,
,,,,,SPR24_060,20,Female,2024-04-17_11h41.19.844,jersey_experiment_5_v0,2023.2.2,Win32,84.74576271,,,,,,,,,,,,,,,,569.4667,570.5134,570.5134,573.1958,return,0.623,,50.26041667,,,,,,FBP-YG-91.png,0.37,1.2,27,0.25,0,37,37,26,1,,,,,,,,,,,,,,,,,,,,,,,,,,,,,,,,,,,,,,,,
,,,,,SPR24_060,20,Female,2024-04-17_11h41.19.844,jersey_experiment_5_v0,2023.2.2,Win32,84.74576271,,,,,,,,,,,,,,,,573.196,574.4899,574.4899,578.7491,return,2.3167,,73.69791667,,,,,,FBP-OG-18.png,0.37,1.2,7,0.5,0,38,38,6,1,,,,,,,,,,,,,,,,,,,,,,,,,,,,,,,,,,,,,,,,
,,,,,SPR24_060,20,Female,2024-04-17_11h41.19.844,jersey_experiment_5_v0,2023.2.2,Win32,84.74576271,,,,,,,,,,,,,,,,578.7493,579.7961,579.7961,580.855,return,0.2547,,74.34895833,,,,,,FBP-YG-71.png,0.37,1.2,17,0.25,0,39,39,16,1,,,,,,,,,,,,,,,,,,,,,,,,,,,,,,,,,,,,,,,,
,,,,,SPR24_060,20,Female,2024-04-17_11h41.19.844,jersey_experiment_5_v0,2023.2.2,Win32,84.74576271,,,,,,,,,,,,,,,,580.8551,582.1491,582.1492,583.902,return,0.8567,,79.55729167,,,,,,FBP-RB-91.png,0.37,1.2,42,0.5,0,40,40,41,1,,,,,,,,,,,,,,,,,,,,,,,,,,,,,,,,,,,,,,,,
,,,,,SPR24_060,20,Female,2024-04-17_11h41.19.844,jersey_experiment_5_v0,2023.2.2,Win32,84.74576271,,,,,,,,,,,,,,,,583.9021,584.9493,584.9493,587.6789,return,0.3681,,38.41145833,,,,,,FBP-YG-81.png,0.35,1.2,21,0.25,0,41,41,20,1,,,,,,,,,,,,,,,,,,,,,,,,,,,,,,,,,,,,,,,,
,,,,,SPR24_060,20,Female,2024-04-17_11h41.19.844,jersey_experiment_5_v0,2023.2.2,Win32,84.74576271,,,,,,,,,,,,,,,,587.6791,588.973,588.973,591.2436,return,0.709,,100,,,,,,FBP-RB-91.png,0.45,1.2,45,0.5,0,42,42,44,1,,,,,,,,,,,,,,,,,,,,,,,,,,,,,,,,,,,,,,,,
,,,,,SPR24_060,20,Female,2024-04-17_11h41.19.844,jersey_experiment_5_v0,2023.2.2,Win32,84.74576271,,,,,,,,,,,,,,,,591.2438,592.5378,592.5378,624.6567,return,29.5398,,75.390625,,,,,,FBP-OG-17.png,0.37,1.2,2,0.5,0,43,43,1,1,,,,,,,,,,,,,,,,,,,,,,,,,,,,,,,,,,,,,,,,
,,,,,SPR24_060,20,Female,2024-04-17_11h41.19.844,jersey_experiment_5_v0,2023.2.2,Win32,84.74576271,,,,,,,,,,,,,,,,624.6614,625.9625,625.9626,628.845,return,1.5782,,100,,,,,,FBP-OG-19.png,0.43,1.2,14,0.5,0,44,44,13,1,,,,,,,,,,,,,,,,,,,,,,,,,,,,,,,,,,,,,,,,
,,,,,SPR24_060,20,Female,2024-04-17_11h41.19.844,jersey_experiment_5_v0,2023.2.2,Win32,84.74576271,,,,,,,,,,,,,,,,628.8452,629.892,629.892,632.2568,return,0.5173,,25.13020833,,,,,,FBP-PT-91.png,0.35,1.2,56,0.25,0,45,45,55,1,,,,,,,,,,,,,,,,,,,,,,,,,,,,,,,,,,,,,,,,
,,,,,SPR24_060,20,Female,2024-04-17_11h41.19.844,jersey_experiment_5_v0,2023.2.2,Win32,84.74576271,,,,,,,,,,,,,,,,632.257,633.3039,633.304,635.3982,return,0.3352,,74.08854167,,,,,,FBP-YG-91.png,0.4,1.2,28,0.25,0,46,46,27,1,,,,,,,,,,,,,,,,,,,,,,,,,,,,,,,,,,,,,,,,
,,,,,SPR24_060,20,Female,2024-04-17_11h41.19.844,jersey_experiment_5_v0,2023.2.2,Win32,84.74576271,,,,,,,,,,,,,,,,635.3985,636.4452,636.4452,640.7511,return,1.9389,,88.93229167,,,,,,FBP-PT-71.png,0.4,1.2,48,0.25,0,47,47,47,1,,,,,,,,,,,,,,,,,,,,,,,,,,,,,,,,,,,,,,,,
,,,,,SPR24_060,20,Female,2024-04-17_11h41.19.844,jersey_experiment_5_v0,2023.2.2,Win32,84.74576271,,,,,,,,,,,,,,,,640.7512,641.7985,641.7985,643.1514,return,0.3151,,100,,,,,,FBP-YG-71.png,0.45,1.2,20,0.25,0,48,48,19,1,,,,,,,,,,,,,,,,,,,,,,,,,,,,,,,,,,,,,,,,
,,,,,SPR24_060,20,Female,2024-04-17_11h41.19.844,jersey_experiment_5_v0,2023.2.2,Win32,84.74576271,,,,,,,,,,,,,,,,643.1516,644.4455,644.4456,646.7751,return,0.2751,,25.26041667,,,,,,FBP-RB-71.png,0.35,1.2,31,0.5,0,49,49,30,1,,,,,,,,,,,,,,,,,,,,,,,,,,,,,,,,,,,,,,,,
,,,,,SPR24_060,20,Female,2024-04-17_11h41.19.844,jersey_experiment_5_v0,2023.2.2,Win32,84.74576271,,,,,,,,,,,,,,,,646.7754,648.0693,648.0693,650.4929,return,0.2842,,14.84375,,,,,,FBP-OG-19.png,0.35,1.2,11,0.5,0,50,50,10,1,,,,,,,,,,,,,,,,,,,,,,,,,,,,,,,,,,,,,,,,
,,,,,SPR24_060,20,Female,2024-04-17_11h41.19.844,jersey_experiment_5_v0,2023.2.2,Win32,84.74576271,,,,,,,,,,,,,,,,650.493,651.5399,651.54,653.7754,return,0.4854,,89.84375,,,,,,FBP-YG-71.png,0.43,1.2,19,0.25,0,51,51,18,1,,,,,,,,,,,,,,,,,,,,,,,,,,,,,,,,,,,,,,,,
,,,,,SPR24_060,20,Female,2024-04-17_11h41.19.844,jersey_experiment_5_v0,2023.2.2,Win32,84.74576271,,,,,,,,,,,,,,,,653.7756,655.0695,655.0695,657.152,return,0.6122,,98.17708333,,,,,,FBP-OG-19.png,0.45,1.2,15,0.5,0,52,52,14,1,,,,,,,,,,,,,,,,,,,,,,,,,,,,,,,,,,,,,,,,
,,,,,SPR24_060,20,Female,2024-04-17_11h41.19.844,jersey_experiment_5_v0,2023.2.2,Win32,84.74576271,,,,,,,,,,,,,,,,657.1521,658.4461,658.4461,659.5285,return,0.2036,,74.609375,,,,,,FBP-RB-91.png,0.35,1.2,41,0.5,0,53,53,40,1,,,,,,,,,,,,,,,,,,,,,,,,,,,,,,,,,,,,,,,,
,,,,,SPR24_060,20,Female,2024-04-17_11h41.19.844,jersey_experiment_5_v0,2023.2.2,Win32,84.74576271,,,,,,,,,,,,,,,,659.5288,660.5755,660.5755,661.6109,return,0.2035,,99.73958333,,,,,,FBP-PT-71.png,0.45,1.2,50,0.25,0,54,54,49,1,,,,,,,,,,,,,,,,,,,,,,,,,,,,,,,,,,,,,,,,
,,,,,SPR24_060,20,Female,2024-04-17_11h41.19.844,jersey_experiment_5_v0,2023.2.2,Win32,84.74576271,,,,,,,,,,,,,,,,661.6112,662.905,662.905,664.1522,return,0.1355,,99.609375,,,,,,FBP-RB-71.png,0.45,1.2,35,0.5,0,55,55,34,1,,,,,,,,,,,,,,,,,,,,,,,,,,,,,,,,,,,,,,,,
,,,,,SPR24_060,20,Female,2024-04-17_11h41.19.844,jersey_experiment_5_v0,2023.2.2,Win32,84.74576271,,,,,,,,,,,,,,,,664.1525,665.1993,665.1994,667.3288,return,1.2479,,87.36979167,,,,,,FBP-PT-81.png,0.4,1.2,53,0.25,0,56,56,52,1,,,,,,,,,,,,,,,,,,,,,,,,,,,,,,,,,,,,,,,,
,,,,,SPR24_060,20,Female,2024-04-17_11h41.19.844,jersey_experiment_5_v0,2023.2.2,Win32,84.74576271,,,,,,,,,,,,,,,,667.3291,668.623,668.623,669.9171,return,0.7207,,84.765625,,,,,,FBP-OG-19.png,0.37,1.2,12,0.5,0,57,57,11,1,,,,,,,,,,,,,,,,,,,,,,,,,,,,,,,,,,,,,,,,
,,,,,SPR24_060,20,Female,2024-04-17_11h41.19.844,jersey_experiment_5_v0,2023.2.2,Win32,84.74576271,,,,,,,,,,,,,,,,669.9174,670.9642,670.9642,674.9996,return,2.9601,,75.13020833,,,,,,FBP-YG-81.png,0.37,1.2,22,0.25,0,58,58,21,1,,,,,,,,,,,,,,,,,,,,,,,,,,,,,,,,,,,,,,,,
,,,,,SPR24_060,20,Female,2024-04-17_11h41.19.844,jersey_experiment_5_v0,2023.2.2,Win32,84.74576271,,,,,,,,,,,,,,,,674.9998,676.2938,676.2938,677.7409,return,0.6228,,75.390625,,,,,,FBP-RB-71.png,0.37,1.2,32,0.5,0,59,59,31,1,,,,,,,,,,,,,,,,,,,,,,,,,,,,,,,,,,,,,,,,
,,,,,SPR24_060,20,Female,2024-04-17_11h41.19.844,jersey_experiment_5_v0,2023.2.2,Win32,84.74576271,,,,,,,,,,,,,,,,,,,,,,,,,,,,,,,,,,,,,,,677.7413,797.734,,,,,,,,,,,,,,,,,,,,,,,,,,,,,,,,,,,,,,
,,,,,SPR24_060,20,Female,2024-04-17_11h41.19.844,jersey_experiment_5_v0,2023.2.2,Win32,84.74576271,,,,,,,,,,,,,,,,,,,,,,,,,,,,,,,,,,,,,,,,,797.734,803.2281,return,5.4831,,,,,,,,,,,,,,,,,,,,,,,,,,,,,,,,,,
,,,,,SPR24_060,20,Female,2024-04-17_11h41.19.844,jersey_experiment_5_v0,2023.2.2,Win32,84.74576271,,,,,,,,,,,,,,,,803.2345,804.2866,804.2866,807.4162,return,1.8976,,87.5,,,,,,FBP-OG-81.png,0.43,1.2,9,0.25,,,,,,,,,,,,,0,0,0,8,1,,,,,,,,,,,,,,,,,,,,,,,,,,,,
,,,,,SPR24_060,20,Female,2024-04-17_11h41.19.844,jersey_experiment_5_v0,2023.2.2,Win32,84.74576271,,,,,,,,,,,,,,,,807.4167,808.7105,808.7106,812.0754,return,1.7063,,49.73958333,,,,,,FBP-YG-18.png,0.35,1.2,21,0.5,,,,,,,,,,,,,0,1,1,20,1,,,,,,,,,,,,,,,,,,,,,,,,,,,,
,,,,,SPR24_060,20,Female,2024-04-17_11h41.19.844,jersey_experiment_5_v0,2023.2.2,Win32,84.74576271,,,,,,,,,,,,,,,,812.0756,813.1224,813.1224,814.4872,return,0.4895,,49.86979167,,,,,,FBP-RB-19.png,0.35,1.2,41,0.25,,,,,,,,,,,,,0,2,2,40,1,,,,,,,,,,,,,,,,,,,,,,,,,,,,
,,,,,SPR24_060,20,Female,2024-04-17_11h41.19.844,jersey_experiment_5_v0,2023.2.2,Win32,84.74576271,,,,,,,,,,,,,,,,814.4874,815.7812,815.7813,816.9108,return,0.2502,,99.86979167,,,,,,FBP-PT-18.png,0.45,1.2,55,0.5,,,,,,,,,,,,,0,3,3,54,1,,,,,,,,,,,,,,,,,,,,,,,,,,,,
,,,,,SPR24_060,20,Female,2024-04-17_11h41.19.844,jersey_experiment_5_v0,2023.2.2,Win32,84.74576271,,,,,,,,,,,,,,,,816.911,817.9578,817.9578,820.2521,return,0.8616,,100,,,,,,FBP-RB-18.png,0.45,1.2,40,0.25,,,,,,,,,,,,,0,4,4,39,1,,,,,,,,,,,,,,,,,,,,,,,,,,,,
,,,,,SPR24_060,20,Female,2024-04-17_11h41.19.844,jersey_experiment_5_v0,2023.2.2,Win32,84.74576271,,,,,,,,,,,,,,,,820.2523,821.299,821.2991,822.7463,return,0.2835,,75.13020833,,,,,,FBP-RB-18.png,0.4,1.2,38,0.25,,,,,,,,,,,,,0,5,5,37,1,,,,,,,,,,,,,,,,,,,,,,,,,,,,
,,,,,SPR24_060,20,Female,2024-04-17_11h41.19.844,jersey_experiment_5_v0,2023.2.2,Win32,84.74576271,,,,,,,,,,,,,,,,822.7466,823.7934,823.7934,825.911,return,0.9812,,24.73958333,,,,,,FBP-RB-17.png,0.35,1.2,31,0.25,,,,,,,,,,,,,0,6,6,30,1,,,,,,,,,,,,,,,,,,,,,,,,,,,,
,,,,,SPR24_060,20,Female,2024-04-17_11h41.19.844,jersey_experiment_5_v0,2023.2.2,Win32,84.74576271,,,,,,,,,,,,,,,,825.9112,827.2052,827.2052,829.323,return,0.2243,,75,,,,,,FBP-PT-17.png,0.35,1.2,46,0.5,,,,,,,,,,,,,0,7,7,45,1,,,,,,,,,,,,,,,,,,,,,,,,,,,,
,,,,,SPR24_060,20,Female,2024-04-17_11h41.19.844,jersey_experiment_5_v0,2023.2.2,Win32,84.74576271,,,,,,,,,,,,,,,,829.3233,830.6171,830.6171,831.2408,return,0.2057,,75,,,,,,FBP-YG-18.png,0.37,1.2,22,0.5,,,,,,,,,,,,,0,8,8,21,1,,,,,,,,,,,,,,,,,,,,,,,,,,,,
,,,,,SPR24_060,20,Female,2024-04-17_11h41.19.844,jersey_experiment_5_v0,2023.2.2,Win32,84.74576271,,,,,,,,,,,,,,,,831.241,832.5352,832.5353,834.7819,return,0.3861,,100,,,,,,FBP-PT-19.png,0.45,1.2,60,0.5,,,,,,,,,,,,,0,9,9,59,1,,,,,,,,,,,,,,,,,,,,,,,,,,,,
,,,,,SPR24_060,20,Female,2024-04-17_11h41.19.844,jersey_experiment_5_v0,2023.2.2,Win32,84.74576271,,,,,,,,,,,,,,,,834.7821,835.8291,835.8291,838.8056,return,0.4888,,89.19270833,,,,,,FBP-RB-18.png,0.37,1.2,37,0.25,,,,,,,,,,,,,0,10,10,36,1,,,,,,,,,,,,,,,,,,,,,,,,,,,,
,,,,,SPR24_060,20,Female,2024-04-17_11h41.19.844,jersey_experiment_5_v0,2023.2.2,Win32,84.74576271,,,,,,,,,,,,,,,,838.8058,840.0998,840.0998,842.3471,return,0.2974,,99.34895833,,,,,,FBP-YG-17.png,0.4,1.2,18,0.5,,,,,,,,,,,,,0,11,11,17,1,,,,,,,,,,,,,,,,,,,,,,,,,,,,
,,,,,SPR24_060,20,Female,2024-04-17_11h41.19.844,jersey_experiment_5_v0,2023.2.2,Win32,84.74576271,,,,,,,,,,,,,,,,842.3473,843.394,843.394,847.159,return,0.9961,,93.88020833,,,,,,FBP-OG-81.png,0.4,1.2,8,0.25,,,,,,,,,,,,,0,12,12,7,1,,,,,,,,,,,,,,,,,,,,,,,,,,,,
,,,,,SPR24_060,20,Female,2024-04-17_11h41.19.844,jersey_experiment_5_v0,2023.2.2,Win32,84.74576271,,,,,,,,,,,,,,,,847.1592,848.2061,848.2061,850.6179,return,0.1554,,74.73958333,,,,,,FBP-RB-18.png,0.35,1.2,36,0.25,,,,,,,,,,,,,0,13,13,35,1,,,,,,,,,,,,,,,,,,,,,,,,,,,,
,,,,,SPR24_060,20,Female,2024-04-17_11h41.19.844,jersey_experiment_5_v0,2023.2.2,Win32,84.74576271,,,,,,,,,,,,,,,,850.6182,851.6649,851.665,853.6063,return,0.3613,,76.171875,,,,,,FBP-RB-19.png,0.4,1.2,43,0.25,,,,,,,,,,,,,0,14,14,42,1,,,,,,,,,,,,,,,,,,,,,,,,,,,,
,,,,,SPR24_060,20,Female,2024-04-17_11h41.19.844,jersey_experiment_5_v0,2023.2.2,Win32,84.74576271,,,,,,,,,,,,,,,,853.6065,854.9003,854.9004,855.8535,return,0.156,,75.26041667,,,,,,FBP-PT-17.png,0.37,1.2,47,0.5,,,,,,,,,,,,,0,15,15,46,1,,,,,,,,,,,,,,,,,,,,,,,,,,,,
,,,,,SPR24_060,20,Female,2024-04-17_11h41.19.844,jersey_experiment_5_v0,2023.2.2,Win32,84.74576271,,,,,,,,,,,,,,,,855.8537,856.9004,856.9004,858.2299,return,0.1471,,100,,,,,,FBP-RB-17.png,0.43,1.2,34,0.25,,,,,,,,,,,,,0,16,16,33,1,,,,,,,,,,,,,,,,,,,,,,,,,,,,
,,,,,SPR24_060,20,Female,2024-04-17_11h41.19.844,jersey_experiment_5_v0,2023.2.2,Win32,84.74576271,,,,,,,,,,,,,,,,858.2302,859.2769,859.277,860.618,return,0.2162,,24.47916667,,,,,,FBP-RB-17.png,0.37,1.2,32,0.25,,,,,,,,,,,,,0,17,17,31,1,,,,,,,,,,,,,,,,,,,,,,,,,,,,
,,,,,SPR24_060,20,Female,2024-04-17_11h41.19.844,jersey_experiment_5_v0,2023.2.2,Win32,84.74576271,,,,,,,,,,,,,,,,860.6183,861.9125,861.9125,862.7949,return,0.189,,0.520833333,,,,,,FBP-YG-17.png,0.35,1.2,16,0.5,,,,,,,,,,,,,0,18,18,15,1,,,,,,,,,,,,,,,,,,,,,,,,,,,,
,,,,,SPR24_060,20,Female,2024-04-17_11h41.19.844,jersey_experiment_5_v0,2023.2.2,Win32,84.74576271,,,,,,,,,,,,,,,,862.7952,864.089,864.089,865.9479,return,0.1558,,25,,,,,,FBP-PT-19.png,0.37,1.2,57,0.5,,,,,,,,,,,,,0,19,19,56,1,,,,,,,,,,,,,,,,,,,,,,,,,,,,
,,,,,SPR24_060,20,Female,2024-04-17_11h41.19.844,jersey_experiment_5_v0,2023.2.2,Win32,84.74576271,,,,,,,,,,,,,,,,865.9482,867.2421,867.2421,868.3361,return,0.141,,74.609375,,,,,,FBP-PT-17.png,0.4,1.2,48,0.5,,,,,,,,,,,,,0,20,20,47,1,,,,,,,,,,,,,,,,,,,,,,,,,,,,
,,,,,SPR24_060,20,Female,2024-04-17_11h41.19.844,jersey_experiment_5_v0,2023.2.2,Win32,84.74576271,,,,,,,,,,,,,,,,868.3364,869.3833,869.3833,871.1128,return,0.2411,,99.47916667,,,,,,FBP-OG-71.png,0.45,1.2,5,0.25,,,,,,,,,,,,,0,21,21,4,1,,,,,,,,,,,,,,,,,,,,,,,,,,,,
,,,,,SPR24_060,20,Female,2024-04-17_11h41.19.844,jersey_experiment_5_v0,2023.2.2,Win32,84.74576271,,,,,,,,,,,,,,,,871.113,872.1598,872.1598,872.7363,return,0.1417,,99.73958333,,,,,,FBP-RB-19.png,0.45,1.2,45,0.25,,,,,,,,,,,,,0,22,22,44,1,,,,,,,,,,,,,,,,,,,,,,,,,,,,
,,,,,SPR24_060,20,Female,2024-04-17_11h41.19.844,jersey_experiment_5_v0,2023.2.2,Win32,84.74576271,,,,,,,,,,,,,,,,872.7365,873.7834,873.7834,876.4424,return,0.1802,,88.54166667,,,,,,FBP-RB-17.png,0.4,1.2,33,0.25,,,,,,,,,,,,,0,23,23,32,1,,,,,,,,,,,,,,,,,,,,,,,,,,,,
,,,,,SPR24_060,20,Female,2024-04-17_11h41.19.844,jersey_experiment_5_v0,2023.2.2,Win32,84.74576271,,,,,,,,,,,,,,,,876.4426,877.4894,877.4895,879.2307,return,0.4803,,100,,,,,,FBP-RB-19.png,0.43,1.2,44,0.25,,,,,,,,,,,,,0,24,24,43,1,,,,,,,,,,,,,,,,,,,,,,,,,,,,
,,,,,SPR24_060,20,Female,2024-04-17_11h41.19.844,jersey_experiment_5_v0,2023.2.2,Win32,84.74576271,,,,,,,,,,,,,,,,879.2309,880.525,880.525,881.5015,return,0.1321,,75,,,,,,FBP-PT-18.png,0.37,1.2,52,0.5,,,,,,,,,,,,,0,25,25,51,1,,,,,,,,,,,,,,,,,,,,,,,,,,,,
,,,,,SPR24_060,20,Female,2024-04-17_11h41.19.844,jersey_experiment_5_v0,2023.2.2,Win32,84.74576271,,,,,,,,,,,,,,,,881.5018,882.5486,882.5487,883.1132,return,0.1085,,74.609375,,,,,,FBP-OG-91.png,0.4,1.2,13,0.25,,,,,,,,,,,,,0,26,26,12,1,,,,,,,,,,,,,,,,,,,,,,,,,,,,
,,,,,SPR24_060,20,Female,2024-04-17_11h41.19.844,jersey_experiment_5_v0,2023.2.2,Win32,84.74576271,,,,,,,,,,,,,,,,883.1134,884.4075,884.4075,885.6308,return,0.3852,,26.04166667,,,,,,FBP-YG-19.png,0.35,1.2,26,0.5,,,,,,,,,,,,,0,27,27,25,1,,,,,,,,,,,,,,,,,,,,,,,,,,,,
,,,,,SPR24_060,20,Female,2024-04-17_11h41.19.844,jersey_experiment_5_v0,2023.2.2,Win32,84.74576271,,,,,,,,,,,,,,,,885.631,886.925,886.9251,888.0428,return,0.1804,,99.21875,,,,,,FBP-YG-18.png,0.45,1.2,25,0.5,,,,,,,,,,,,,0,28,28,24,1,,,,,,,,,,,,,,,,,,,,,,,,,,,,
,,,,,SPR24_060,20,Female,2024-04-17_11h41.19.844,jersey_experiment_5_v0,2023.2.2,Win32,84.74576271,,,,,,,,,,,,,,,,888.043,889.3373,889.3373,890.1723,return,0.1057,,75.26041667,,,,,,FBP-YG-17.png,0.37,1.2,17,0.5,,,,,,,,,,,,,0,29,29,16,1,,,,,,,,,,,,,,,,,,,,,,,,,,,,
,,,,,SPR24_060,20,Female,2024-04-17_11h41.19.844,jersey_experiment_5_v0,2023.2.2,Win32,84.74576271,,,,,,,,,,,,,,,,890.1725,891.2196,891.2197,892.6782,return,0.5468,,75.26041667,,,,,,FBP-OG-91.png,0.37,1.2,12,0.25,,,,,,,,,,,,,0,30,30,11,1,,,,,,,,,,,,,,,,,,,,,,,,,,,,
,,,,,SPR24_060,20,Female,2024-04-17_11h41.19.844,jersey_experiment_5_v0,2023.2.2,Win32,84.74576271,,,,,,,,,,,,,,,,892.6785,893.7253,893.7254,895.2312,return,1.0115,,75.26041667,,,,,,FBP-OG-81.png,0.35,1.2,6,0.25,,,,,,,,,,,,,0,31,31,5,1,,,,,,,,,,,,,,,,,,,,,,,,,,,,
,,,,,SPR24_060,20,Female,2024-04-17_11h41.19.844,jersey_experiment_5_v0,2023.2.2,Win32,84.74576271,,,,,,,,,,,,,,,,895.2315,896.5255,896.5256,897.5021,return,0.179,,99.86979167,,,,,,FBP-PT-17.png,0.43,1.2,49,0.5,,,,,,,,,,,,,0,32,32,48,1,,,,,,,,,,,,,,,,,,,,,,,,,,,,
,,,,,SPR24_060,20,Female,2024-04-17_11h41.19.844,jersey_experiment_5_v0,2023.2.2,Win32,84.74576271,,,,,,,,,,,,,,,,897.5023,898.549,898.5491,899.4551,return,0.118,,75.65104167,,,,,,FBP-RB-19.png,0.37,1.2,42,0.25,,,,,,,,,,,,,0,33,33,41,1,,,,,,,,,,,,,,,,,,,,,,,,,,,,
,,,,,SPR24_060,20,Female,2024-04-17_11h41.19.844,jersey_experiment_5_v0,2023.2.2,Win32,84.74576271,,,,,,,,,,,,,,,,899.4553,900.5021,900.5021,901.4667,return,0.1213,,99.73958333,,,,,,FBP-OG-91.png,0.43,1.2,14,0.25,,,,,,,,,,,,,0,34,34,13,1,,,,,,,,,,,,,,,,,,,,,,,,,,,,
,,,,,SPR24_060,20,Female,2024-04-17_11h41.19.844,jersey_experiment_5_v0,2023.2.2,Win32,84.74576271,,,,,,,,,,,,,,,,901.467,902.761,902.761,903.7728,return,0.129,,99.86979167,,,,,,FBP-YG-19.png,0.4,1.2,28,0.5,,,,,,,,,,,,,0,35,35,27,1,,,,,,,,,,,,,,,,,,,,,,,,,,,,
,,,,,SPR24_060,20,Female,2024-04-17_11h41.19.844,jersey_experiment_5_v0,2023.2.2,Win32,84.74576271,,,,,,,,,,,,,,,,903.773,904.82,904.8201,905.5964,return,0.2356,,98.4375,,,,,,FBP-RB-18.png,0.43,1.2,39,0.25,,,,,,,,,,,,,0,36,36,38,1,,,,,,,,,,,,,,,,,,,,,,,,,,,,
,,,,,SPR24_060,20,Female,2024-04-17_11h41.19.844,jersey_experiment_5_v0,2023.2.2,Win32,84.74576271,,,,,,,,,,,,,,,,905.5966,906.6436,906.6437,909.8672,return,0.2385,,90.36458333,,,,,,FBP-OG-71.png,0.4,1.2,3,0.25,,,,,,,,,,,,,0,37,37,2,1,,,,,,,,,,,,,,,,,,,,,,,,,,,,
,,,,,SPR24_060,20,Female,2024-04-17_11h41.19.844,jersey_experiment_5_v0,2023.2.2,Win32,84.74576271,,,,,,,,,,,,,,,,909.8675,910.9142,910.9143,913.3731,return,0.7781,,75.26041667,,,,,,FBP-OG-71.png,0.37,1.2,2,0.25,,,,,,,,,,,,,0,38,38,1,1,,,,,,,,,,,,,,,,,,,,,,,,,,,,
,,,,,SPR24_060,20,Female,2024-04-17_11h41.19.844,jersey_experiment_5_v0,2023.2.2,Win32,84.74576271,,,,,,,,,,,,,,,,913.3734,914.6675,914.6675,915.4203,return,0.167,,99.609375,,,,,,FBP-YG-18.png,0.43,1.2,24,0.5,,,,,,,,,,,,,0,39,39,23,1,,,,,,,,,,,,,,,,,,,,,,,,,,,,
,,,,,SPR24_060,20,Female,2024-04-17_11h41.19.844,jersey_experiment_5_v0,2023.2.2,Win32,84.74576271,,,,,,,,,,,,,,,,915.4205,916.7145,916.7145,917.2322,return,0.1652,,99.609375,,,,,,FBP-YG-17.png,0.43,1.2,19,0.5,,,,,,,,,,,,,0,40,40,18,1,,,,,,,,,,,,,,,,,,,,,,,,,,,,
,,,,,SPR24_060,20,Female,2024-04-17_11h41.19.844,jersey_experiment_5_v0,2023.2.2,Win32,84.74576271,,,,,,,,,,,,,,,,917.2325,918.5262,918.5263,919.1263,return,0.1711,,99.609375,,,,,,FBP-YG-19.png,0.43,1.2,29,0.5,,,,,,,,,,,,,0,41,41,28,1,,,,,,,,,,,,,,,,,,,,,,,,,,,,
,,,,,SPR24_060,20,Female,2024-04-17_11h41.19.844,jersey_experiment_5_v0,2023.2.2,Win32,84.74576271,,,,,,,,,,,,,,,,919.1266,920.1734,920.1734,923.35,return,0.9971,,88.54166667,,,,,,FBP-OG-71.png,0.43,1.2,4,0.25,,,,,,,,,,,,,0,42,42,3,1,,,,,,,,,,,,,,,,,,,,,,,,,,,,
,,,,,SPR24_060,20,Female,2024-04-17_11h41.19.844,jersey_experiment_5_v0,2023.2.2,Win32,84.74576271,,,,,,,,,,,,,,,,923.3502,924.6442,924.6443,926.2206,return,0.2376,,99.73958333,,,,,,FBP-PT-19.png,0.43,1.2,59,0.5,,,,,,,,,,,,,0,43,43,58,1,,,,,,,,,,,,,,,,,,,,,,,,,,,,
,,,,,SPR24_060,20,Female,2024-04-17_11h41.19.844,jersey_experiment_5_v0,2023.2.2,Win32,84.74576271,,,,,,,,,,,,,,,,926.2208,927.2678,927.2678,927.9032,return,0.2023,,99.86979167,,,,,,FBP-OG-91.png,0.45,1.2,15,0.25,,,,,,,,,,,,,0,44,44,14,1,,,,,,,,,,,,,,,,,,,,,,,,,,,,
,,,,,SPR24_060,20,Female,2024-04-17_11h41.19.844,jersey_experiment_5_v0,2023.2.2,Win32,84.74576271,,,,,,,,,,,,,,,,927.9034,929.1974,929.1974,931.2798,return,0.8094,,74.86979167,,,,,,FBP-PT-18.png,0.35,1.2,51,0.5,,,,,,,,,,,,,0,45,45,50,1,,,,,,,,,,,,,,,,,,,,,,,,,,,,
,,,,,SPR24_060,20,Female,2024-04-17_11h41.19.844,jersey_experiment_5_v0,2023.2.2,Win32,84.74576271,,,,,,,,,,,,,,,,931.2801,932.5737,932.5738,934.774,return,1.126,,89.32291667,,,,,,FBP-PT-18.png,0.4,1.2,53,0.5,,,,,,,,,,,,,0,46,46,52,1,,,,,,,,,,,,,,,,,,,,,,,,,,,,
,,,,,SPR24_060,20,Female,2024-04-17_11h41.19.844,jersey_experiment_5_v0,2023.2.2,Win32,84.74576271,,,,,,,,,,,,,,,,934.7742,935.821,935.821,937.3035,return,0.1484,,75,,,,,,FBP-OG-91.png,0.35,1.2,11,0.25,,,,,,,,,,,,,0,47,47,10,1,,,,,,,,,,,,,,,,,,,,,,,,,,,,
,,,,,SPR24_060,20,Female,2024-04-17_11h41.19.844,jersey_experiment_5_v0,2023.2.2,Win32,84.74576271,,,,,,,,,,,,,,,,937.3037,938.5977,938.5978,939.7975,return,0.2205,,99.47916667,,,,,,FBP-PT-17.png,0.45,1.2,50,0.5,,,,,,,,,,,,,0,48,48,49,1,,,,,,,,,,,,,,,,,,,,,,,,,,,,
,,,,,SPR24_060,20,Female,2024-04-17_11h41.19.844,jersey_experiment_5_v0,2023.2.2,Win32,84.74576271,,,,,,,,,,,,,,,,939.7978,941.0917,941.0917,941.5978,return,0.3907,,99.86979167,,,,,,FBP-PT-19.png,0.4,1.2,58,0.5,,,,,,,,,,,,,0,49,49,57,1,,,,,,,,,,,,,,,,,,,,,,,,,,,,
,,,,,SPR24_060,20,Female,2024-04-17_11h41.19.844,jersey_experiment_5_v0,2023.2.2,Win32,84.74576271,,,,,,,,,,,,,,,,941.598,942.6448,942.6448,944.0213,return,0.3594,,74.73958333,,,,,,FBP-OG-71.png,0.35,1.2,1,0.25,,,,,,,,,,,,,0,50,50,0,1,,,,,,,,,,,,,,,,,,,,,,,,,,,,
,,,,,SPR24_060,20,Female,2024-04-17_11h41.19.844,jersey_experiment_5_v0,2023.2.2,Win32,84.74576271,,,,,,,,,,,,,,,,944.0215,945.3156,945.3156,947.5628,return,0.225,,74.73958333,,,,,,FBP-YG-19.png,0.37,1.2,27,0.5,,,,,,,,,,,,,0,51,51,26,1,,,,,,,,,,,,,,,,,,,,,,,,,,,,
,,,,,SPR24_060,20,Female,2024-04-17_11h41.19.844,jersey_experiment_5_v0,2023.2.2,Win32,84.74576271,,,,,,,,,,,,,,,,947.563,948.6097,948.6097,949.8334,return,0.144,,99.86979167,,,,,,FBP-OG-81.png,0.45,1.2,10,0.25,,,,,,,,,,,,,0,52,52,9,1,,,,,,,,,,,,,,,,,,,,,,,,,,,,
,,,,,SPR24_060,20,Female,2024-04-17_11h41.19.844,jersey_experiment_5_v0,2023.2.2,Win32,84.74576271,,,,,,,,,,,,,,,,949.8337,950.8806,950.8806,952.1745,return,0.1881,,74.34895833,,,,,,FBP-OG-81.png,0.37,1.2,7,0.25,,,,,,,,,,,,,0,53,53,6,1,,,,,,,,,,,,,,,,,,,,,,,,,,,,
,,,,,SPR24_060,20,Female,2024-04-17_11h41.19.844,jersey_experiment_5_v0,2023.2.2,Win32,84.74576271,,,,,,,,,,,,,,,,952.1747,953.4689,953.4689,954.2687,return,0.1664,,99.47916667,,,,,,FBP-YG-17.png,0.45,1.2,20,0.5,,,,,,,,,,,,,0,54,54,19,1,,,,,,,,,,,,,,,,,,,,,,,,,,,,
,,,,,SPR24_060,20,Female,2024-04-17_11h41.19.844,jersey_experiment_5_v0,2023.2.2,Win32,84.74576271,,,,,,,,,,,,,,,,954.269,955.5632,955.5632,956.857,return,0.1699,,24.86979167,,,,,,FBP-PT-19.png,0.35,1.2,56,0.5,,,,,,,,,,,,,0,55,55,55,1,,,,,,,,,,,,,,,,,,,,,,,,,,,,
,,,,,SPR24_060,20,Female,2024-04-17_11h41.19.844,jersey_experiment_5_v0,2023.2.2,Win32,84.74576271,,,,,,,,,,,,,,,,956.8573,957.9043,957.9043,959.7277,return,0.2924,,100,,,,,,FBP-RB-17.png,0.45,1.2,35,0.25,,,,,,,,,,,,,0,56,56,34,1,,,,,,,,,,,,,,,,,,,,,,,,,,,,
,,,,,SPR24_060,20,Female,2024-04-17_11h41.19.844,jersey_experiment_5_v0,2023.2.2,Win32,84.74576271,,,,,,,,,,,,,,,,959.728,961.0218,961.0219,962.9044,return,0.7826,,92.83854167,,,,,,FBP-PT-18.png,0.43,1.2,54,0.5,,,,,,,,,,,,,0,57,57,53,1,,,,,,,,,,,,,,,,,,,,,,,,,,,,
,,,,,SPR24_060,20,Female,2024-04-17_11h41.19.844,jersey_experiment_5_v0,2023.2.2,Win32,84.74576271,,,,,,,,,,,,,,,,962.9047,964.1985,964.1986,966.9046,return,0.3209,,91.66666667,,,,,,FBP-YG-18.png,0.4,1.2,23,0.5,,,,,,,,,,,,,0,58,58,22,1,,,,,,,,,,,,,,,,,,,,,,,,,,,,
,,,,,SPR24_060,20,Female,2024-04-17_11h41.19.844,jersey_experiment_5_v0,2023.2.2,Win32,84.74576271,,,,,,,,,,,,,,,,966.9048,968.1988,968.1989,969.1282,return,0.2066,,99.34895833,,,,,,FBP-YG-19.png,0.45,1.2,30,0.5,,,,,,,,,,,,,0,59,59,29,1,,,,,,,,,,,,,,,,,,,,,,,,,,,,
,,,,,SPR24_060,20,Female,2024-04-17_11h41.19.844,jersey_experiment_5_v0,2023.2.2,Win32,84.74576271,,,,,,,,,,,,,,,,969.1301,970.4223,970.4223,972.4106,return,0.9924,,74.47916667,,,,,,FBP-YG-81.png,0.37,1.2,22,0.5,,,,,,,,,,,,,,,,,,0,0,0,21,1,,,,,,,,,,,,,,,,,,,,,,,
,,,,,SPR24_060,20,Female,2024-04-17_11h41.19.844,jersey_experiment_5_v0,2023.2.2,Win32,84.74576271,,,,,,,,,,,,,,,,972.4111,973.4578,973.4578,974.7636,return,0.2852,,99.86979167,,,,,,FBP-RB-71.png,0.43,1.2,34,0.25,,,,,,,,,,,,,,,,,,0,1,1,33,1,,,,,,,,,,,,,,,,,,,,,,,
,,,,,SPR24_060,20,Female,2024-04-17_11h41.19.844,jersey_experiment_5_v0,2023.2.2,Win32,84.74576271,,,,,,,,,,,,,,,,974.7639,976.058,976.058,976.8464,return,0.2127,,74.08854167,,,,,,FBP-YG-71.png,0.37,1.2,17,0.5,,,,,,,,,,,,,,,,,,0,2,2,16,1,,,,,,,,,,,,,,,,,,,,,,,
,,,,,SPR24_060,20,Female,2024-04-17_11h41.19.844,jersey_experiment_5_v0,2023.2.2,Win32,84.74576271,,,,,,,,,,,,,,,,976.8466,977.8932,977.8932,978.8581,return,0.1457,,75,,,,,,FBP-OG-17.png,0.37,1.2,2,0.25,,,,,,,,,,,,,,,,,,0,3,3,1,1,,,,,,,,,,,,,,,,,,,,,,,
,,,,,SPR24_060,20,Female,2024-04-17_11h41.19.844,jersey_experiment_5_v0,2023.2.2,Win32,84.74576271,,,,,,,,,,,,,,,,978.8583,979.905,979.9051,980.9286,return,0.1177,,99.34895833,,,,,,FBP-OG-18.png,0.43,1.2,9,0.25,,,,,,,,,,,,,,,,,,0,4,4,8,1,,,,,,,,,,,,,,,,,,,,,,,
,,,,,SPR24_060,20,Female,2024-04-17_11h41.19.844,jersey_experiment_5_v0,2023.2.2,Win32,84.74576271,,,,,,,,,,,,,,,,980.9289,982.2227,982.2227,984.8464,return,0.1642,,89.32291667,,,,,,FBP-YG-71.png,0.4,1.2,18,0.5,,,,,,,,,,,,,,,,,,0,5,5,17,1,,,,,,,,,,,,,,,,,,,,,,,
,,,,,SPR24_060,20,Female,2024-04-17_11h41.19.844,jersey_experiment_5_v0,2023.2.2,Win32,84.74576271,,,,,,,,,,,,,,,,984.8466,986.1405,986.1405,986.7642,return,0.1529,,89.32291667,,,,,,FBP-YG-81.png,0.4,1.2,23,0.5,,,,,,,,,,,,,,,,,,0,6,6,22,1,,,,,,,,,,,,,,,,,,,,,,,
,,,,,SPR24_060,20,Female,2024-04-17_11h41.19.844,jersey_experiment_5_v0,2023.2.2,Win32,84.74576271,,,,,,,,,,,,,,,,986.7644,988.0582,988.0582,988.729,return,0.1586,,89.32291667,,,,,,FBP-YG-91.png,0.43,1.2,29,0.5,,,,,,,,,,,,,,,,,,0,7,7,28,1,,,,,,,,,,,,,,,,,,,,,,,
,,,,,SPR24_060,20,Female,2024-04-17_11h41.19.844,jersey_experiment_5_v0,2023.2.2,Win32,84.74576271,,,,,,,,,,,,,,,,988.7292,990.0231,990.0231,991.4819,return,0.6373,,74.609375,,,,,,FBP-YG-91.png,0.37,1.2,27,0.5,,,,,,,,,,,,,,,,,,0,8,8,26,1,,,,,,,,,,,,,,,,,,,,,,,
,,,,,SPR24_060,20,Female,2024-04-17_11h41.19.844,jersey_experiment_5_v0,2023.2.2,Win32,84.74576271,,,,,,,,,,,,,,,,991.4822,992.5289,992.529,993.6114,return,0.1767,,99.73958333,,,,,,FBP-RB-81.png,0.43,1.2,39,0.25,,,,,,,,,,,,,,,,,,0,9,9,38,1,,,,,,,,,,,,,,,,,,,,,,,
,,,,,SPR24_060,20,Female,2024-04-17_11h41.19.844,jersey_experiment_5_v0,2023.2.2,Win32,84.74576271,,,,,,,,,,,,,,,,993.6116,994.6585,994.6586,996.8585,return,0.6715,,75.13020833,,,,,,FBP-RB-71.png,0.37,1.2,32,0.25,,,,,,,,,,,,,,,,,,0,10,10,31,1,,,,,,,,,,,,,,,,,,,,,,,
,,,,,SPR24_060,20,Female,2024-04-17_11h41.19.844,jersey_experiment_5_v0,2023.2.2,Win32,84.74576271,,,,,,,,,,,,,,,,996.8588,997.9056,997.9057,1000.1529,return,0.1942,,37.5,,,,,,FBP-RB-71.png,0.35,1.2,31,0.25,,,,,,,,,,,,,,,,,,0,11,11,30,1,,,,,,,,,,,,,,,,,,,,,,,
,,,,,SPR24_060,20,Female,2024-04-17_11h41.19.844,jersey_experiment_5_v0,2023.2.2,Win32,84.74576271,,,,,,,,,,,,,,,,1000.153,1001.447,1001.447,1002.8944,return,0.1792,,75.13020833,,,,,,FBP-PT-91.png,0.37,1.2,57,0.5,,,,,,,,,,,,,,,,,,0,12,12,56,1,,,,,,,,,,,,,,,,,,,,,,,
,,,,,SPR24_060,20,Female,2024-04-17_11h41.19.844,jersey_experiment_5_v0,2023.2.2,Win32,84.74576271,,,,,,,,,,,,,,,,1002.8946,1004.1886,1004.1886,1005.2002,return,0.1878,,99.73958333,,,,,,FBP-YG-71.png,0.45,1.2,20,0.5,,,,,,,,,,,,,,,,,,0,13,13,19,1,,,,,,,,,,,,,,,,,,,,,,,
,,,,,SPR24_060,20,Female,2024-04-17_11h41.19.844,jersey_experiment_5_v0,2023.2.2,Win32,84.74576271,,,,,,,,,,,,,,,,1005.2003,1006.2471,1006.2472,1007.4238,return,0.1749,,99.21875,,,,,,FBP-OG-17.png,0.45,1.2,5,0.25,,,,,,,,,,,,,,,,,,0,14,14,4,1,,,,,,,,,,,,,,,,,,,,,,,
,,,,,SPR24_060,20,Female,2024-04-17_11h41.19.844,jersey_experiment_5_v0,2023.2.2,Win32,84.74576271,,,,,,,,,,,,,,,,1007.4242,1008.4708,1008.4709,1010.6474,return,0.2188,,37.890625,,,,,,FBP-RB-81.png,0.35,1.2,36,0.25,,,,,,,,,,,,,,,,,,0,15,15,35,1,,,,,,,,,,,,,,,,,,,,,,,
,,,,,SPR24_060,20,Female,2024-04-17_11h41.19.844,jersey_experiment_5_v0,2023.2.2,Win32,84.74576271,,,,,,,,,,,,,,,,1010.6475,1011.9416,1011.9416,1013.2006,return,0.2027,,25.13020833,,,,,,FBP-PT-81.png,0.35,1.2,51,0.5,,,,,,,,,,,,,,,,,,0,16,16,50,1,,,,,,,,,,,,,,,,,,,,,,,
,,,,,SPR24_060,20,Female,2024-04-17_11h41.19.844,jersey_experiment_5_v0,2023.2.2,Win32,84.74576271,,,,,,,,,,,,,,,,1013.2008,1014.4948,1014.4948,1016.0241,return,0.145,,38.93229167,,,,,,FBP-PT-71.png,0.37,1.2,47,0.5,,,,,,,,,,,,,,,,,,0,17,17,46,1,,,,,,,,,,,,,,,,,,,,,,,
,,,,,SPR24_060,20,Female,2024-04-17_11h41.19.844,jersey_experiment_5_v0,2023.2.2,Win32,84.74576271,,,,,,,,,,,,,,,,1016.0244,1017.3182,1017.3183,1018.4712,return,0.5369,,38.671875,,,,,,FBP-PT-91.png,0.35,1.2,56,0.5,,,,,,,,,,,,,,,,,,0,18,18,55,1,,,,,,,,,,,,,,,,,,,,,,,
,,,,,SPR24_060,20,Female,2024-04-17_11h41.19.844,jersey_experiment_5_v0,2023.2.2,Win32,84.74576271,,,,,,,,,,,,,,,,1018.4715,1019.5183,1019.5183,1023.695,return,2.2739,,99.73958333,,,,,,FBP-OG-18.png,0.4,1.2,8,0.25,,,,,,,,,,,,,,,,,,0,19,19,7,1,,,,,,,,,,,,,,,,,,,,,,,
,,,,,SPR24_060,20,Female,2024-04-17_11h41.19.844,jersey_experiment_5_v0,2023.2.2,Win32,84.74576271,,,,,,,,,,,,,,,,1023.6952,1024.7421,1024.7421,1027.9422,return,1.0672,,25.390625,,,,,,FBP-RB-91.png,0.35,1.2,41,0.25,,,,,,,,,,,,,,,,,,0,20,20,40,1,,,,,,,,,,,,,,,,,,,,,,,
,,,,,SPR24_060,20,Female,2024-04-17_11h41.19.844,jersey_experiment_5_v0,2023.2.2,Win32,84.74576271,,,,,,,,,,,,,,,,1027.9424,1028.9892,1028.9893,1030.2011,return,0.1802,,99.609375,,,,,,FBP-OG-19.png,0.45,1.2,15,0.25,,,,,,,,,,,,,,,,,,0,21,21,14,1,,,,,,,,,,,,,,,,,,,,,,,
,,,,,SPR24_060,20,Female,2024-04-17_11h41.19.844,jersey_experiment_5_v0,2023.2.2,Win32,84.74576271,,,,,,,,,,,,,,,,1030.2014,1031.2481,1031.2482,1032.9071,return,0.8507,,100,,,,,,FBP-RB-71.png,0.45,1.2,35,0.25,,,,,,,,,,,,,,,,,,0,22,22,34,1,,,,,,,,,,,,,,,,,,,,,,,
,,,,,SPR24_060,20,Female,2024-04-17_11h41.19.844,jersey_experiment_5_v0,2023.2.2,Win32,84.74576271,,,,,,,,,,,,,,,,1032.9073,1034.2012,1034.2012,1035.825,return,0.2211,,26.04166667,,,,,,FBP-PT-71.png,0.35,1.2,46,0.5,,,,,,,,,,,,,,,,,,0,23,23,45,1,,,,,,,,,,,,,,,,,,,,,,,
,,,,,SPR24_060,20,Female,2024-04-17_11h41.19.844,jersey_experiment_5_v0,2023.2.2,Win32,84.74576271,,,,,,,,,,,,,,,,1035.8252,1037.119,1037.1191,1039.8368,return,0.3201,,99.21875,,,,,,FBP-YG-81.png,0.43,1.2,24,0.5,,,,,,,,,,,,,,,,,,0,24,24,23,1,,,,,,,,,,,,,,,,,,,,,,,
,,,,,SPR24_060,20,Female,2024-04-17_11h41.19.844,jersey_experiment_5_v0,2023.2.2,Win32,84.74576271,,,,,,,,,,,,,,,,1039.8369,1041.1309,1041.1309,1042.4132,return,0.5046,,88.15104167,,,,,,FBP-PT-71.png,0.4,1.2,48,0.5,,,,,,,,,,,,,,,,,,0,25,25,47,1,,,,,,,,,,,,,,,,,,,,,,,
,,,,,SPR24_060,20,Female,2024-04-17_11h41.19.844,jersey_experiment_5_v0,2023.2.2,Win32,84.74576271,,,,,,,,,,,,,,,,1042.4135,1043.7073,1043.7073,1045.4486,return,0.2505,,25.26041667,,,,,,FBP-YG-91.png,0.35,1.2,26,0.5,,,,,,,,,,,,,,,,,,0,26,26,25,1,,,,,,,,,,,,,,,,,,,,,,,
,,,,,SPR24_060,20,Female,2024-04-17_11h41.19.844,jersey_experiment_5_v0,2023.2.2,Win32,84.74576271,,,,,,,,,,,,,,,,1045.4489,1046.7429,1046.743,1047.8017,return,0.2873,,25.52083333,,,,,,FBP-YG-71.png,0.35,1.2,16,0.5,,,,,,,,,,,,,,,,,,0,27,27,15,1,,,,,,,,,,,,,,,,,,,,,,,
,,,,,SPR24_060,20,Female,2024-04-17_11h41.19.844,jersey_experiment_5_v0,2023.2.2,Win32,84.74576271,,,,,,,,,,,,,,,,1047.8019,1049.096,1049.0961,1053.5314,return,2.2358,,100,,,,,,FBP-YG-81.png,0.45,1.2,25,0.5,,,,,,,,,,,,,,,,,,0,28,28,24,1,,,,,,,,,,,,,,,,,,,,,,,
,,,,,SPR24_060,20,Female,2024-04-17_11h41.19.844,jersey_experiment_5_v0,2023.2.2,Win32,84.74576271,,,,,,,,,,,,,,,,1053.5317,1054.5783,1054.5784,1056.9197,return,0.2168,,100,,,,,,FBP-RB-91.png,0.43,1.2,44,0.25,,,,,,,,,,,,,,,,,,0,29,29,43,1,,,,,,,,,,,,,,,,,,,,,,,
,,,,,SPR24_060,20,Female,2024-04-17_11h41.19.844,jersey_experiment_5_v0,2023.2.2,Win32,84.74576271,,,,,,,,,,,,,,,,1056.92,1057.9668,1057.9668,1059.2257,return,0.1905,,100,,,,,,FBP-RB-81.png,0.45,1.2,40,0.25,,,,,,,,,,,,,,,,,,0,30,30,39,1,,,,,,,,,,,,,,,,,,,,,,,
,,,,,SPR24_060,20,Female,2024-04-17_11h41.19.844,jersey_experiment_5_v0,2023.2.2,Win32,84.74576271,,,,,,,,,,,,,,,,1059.2259,1060.52,1060.52,1061.4847,return,0.1796,,100,,,,,,FBP-PT-91.png,0.45,1.2,60,0.5,,,,,,,,,,,,,,,,,,0,31,31,59,1,,,,,,,,,,,,,,,,,,,,,,,
,,,,,SPR24_060,20,Female,2024-04-17_11h41.19.844,jersey_experiment_5_v0,2023.2.2,Win32,84.74576271,,,,,,,,,,,,,,,,1061.4849,1062.7789,1062.7789,1065.5317,return,1.2001,,88.80208333,,,,,,FBP-YG-91.png,0.4,1.2,28,0.5,,,,,,,,,,,,,,,,,,0,32,32,27,1,,,,,,,,,,,,,,,,,,,,,,,
,,,,,SPR24_060,20,Female,2024-04-17_11h41.19.844,jersey_experiment_5_v0,2023.2.2,Win32,84.74576271,,,,,,,,,,,,,,,,1065.532,1066.5788,1066.5788,1067.8495,return,0.8044,,88.28125,,,,,,FBP-RB-81.png,0.4,1.2,38,0.25,,,,,,,,,,,,,,,,,,0,33,33,37,1,,,,,,,,,,,,,,,,,,,,,,,
,,,,,SPR24_060,20,Female,2024-04-17_11h41.19.844,jersey_experiment_5_v0,2023.2.2,Win32,84.74576271,,,,,,,,,,,,,,,,1067.8497,1069.1437,1069.1437,1070.1084,return,0.1903,,99.73958333,,,,,,FBP-PT-91.png,0.43,1.2,59,0.5,,,,,,,,,,,,,,,,,,0,34,34,58,1,,,,,,,,,,,,,,,,,,,,,,,
,,,,,SPR24_060,20,Female,2024-04-17_11h41.19.844,jersey_experiment_5_v0,2023.2.2,Win32,84.74576271,,,,,,,,,,,,,,,,1070.1086,1071.1554,1071.1555,1072.3791,return,0.377,,91.14583333,,,,,,FBP-RB-91.png,0.4,1.2,43,0.25,,,,,,,,,,,,,,,,,,0,35,35,42,1,,,,,,,,,,,,,,,,,,,,,,,
,,,,,SPR24_060,20,Female,2024-04-17_11h41.19.844,jersey_experiment_5_v0,2023.2.2,Win32,84.74576271,,,,,,,,,,,,,,,,1072.3794,1073.4261,1073.4262,1075.6379,return,0.1594,,91.66666667,,,,,,FBP-OG-17.png,0.4,1.2,3,0.25,,,,,,,,,,,,,,,,,,0,36,36,2,1,,,,,,,,,,,,,,,,,,,,,,,
,,,,,SPR24_060,20,Female,2024-04-17_11h41.19.844,jersey_experiment_5_v0,2023.2.2,Win32,84.74576271,,,,,,,,,,,,,,,,1075.6381,1076.9321,1076.9322,1078.2616,return,0.3829,,97.39583333,,,,,,FBP-PT-71.png,0.43,1.2,49,0.5,,,,,,,,,,,,,,,,,,0,37,37,48,1,,,,,,,,,,,,,,,,,,,,,,,
,,,,,SPR24_060,20,Female,2024-04-17_11h41.19.844,jersey_experiment_5_v0,2023.2.2,Win32,84.74576271,,,,,,,,,,,,,,,,1078.2618,1079.5558,1079.5558,1081.1676,return,0.1888,,100,,,,,,FBP-PT-81.png,0.45,1.2,55,0.5,,,,,,,,,,,,,,,,,,0,38,38,54,1,,,,,,,,,,,,,,,,,,,,,,,
,,,,,SPR24_060,20,Female,2024-04-17_11h41.19.844,jersey_experiment_5_v0,2023.2.2,Win32,84.74576271,,,,,,,,,,,,,,,,1081.1679,1082.2147,1082.2148,1083.6618,return,0.2361,,75.26041667,,,,,,FBP-OG-19.png,0.37,1.2,12,0.25,,,,,,,,,,,,,,,,,,0,39,39,11,1,,,,,,,,,,,,,,,,,,,,,,,
,,,,,SPR24_060,20,Female,2024-04-17_11h41.19.844,jersey_experiment_5_v0,2023.2.2,Win32,84.74576271,,,,,,,,,,,,,,,,1083.662,1084.956,1084.956,1086.8737,return,0.2283,,74.47916667,,,,,,FBP-PT-91.png,0.4,1.2,58,0.5,,,,,,,,,,,,,,,,,,0,40,40,57,1,,,,,,,,,,,,,,,,,,,,,,,
,,,,,SPR24_060,20,Female,2024-04-17_11h41.19.844,jersey_experiment_5_v0,2023.2.2,Win32,84.74576271,,,,,,,,,,,,,,,,1086.874,1087.9206,1087.9206,1089.321,return,0.3467,,90.36458333,,,,,,FBP-OG-17.png,0.43,1.2,4,0.25,,,,,,,,,,,,,,,,,,0,41,41,3,1,,,,,,,,,,,,,,,,,,,,,,,
,,,,,SPR24_060,20,Female,2024-04-17_11h41.19.844,jersey_experiment_5_v0,2023.2.2,Win32,84.74576271,,,,,,,,,,,,,,,,1089.3212,1090.3679,1090.368,1092.7209,return,1.153,,37.36979167,,,,,,FBP-OG-19.png,0.35,1.2,11,0.25,,,,,,,,,,,,,,,,,,0,42,42,10,1,,,,,,,,,,,,,,,,,,,,,,,
,,,,,SPR24_060,20,Female,2024-04-17_11h41.19.844,jersey_experiment_5_v0,2023.2.2,Win32,84.74576271,,,,,,,,,,,,,,,,1092.721,1094.0152,1094.0153,1096.3447,return,0.2501,,98.56770833,,,,,,FBP-YG-91.png,0.45,1.2,30,0.5,,,,,,,,,,,,,,,,,,0,43,43,29,1,,,,,,,,,,,,,,,,,,,,,,,
,,,,,SPR24_060,20,Female,2024-04-17_11h41.19.844,jersey_experiment_5_v0,2023.2.2,Win32,84.74576271,,,,,,,,,,,,,,,,1096.345,1097.3917,1097.3917,1099.0863,return,0.5797,,24.47916667,,,,,,FBP-RB-91.png,0.37,1.2,42,0.25,,,,,,,,,,,,,,,,,,0,44,44,41,1,,,,,,,,,,,,,,,,,,,,,,,
,,,,,SPR24_060,20,Female,2024-04-17_11h41.19.844,jersey_experiment_5_v0,2023.2.2,Win32,84.74576271,,,,,,,,,,,,,,,,1099.0865,1100.3802,1100.3803,1101.7919,return,0.6121,,26.04166667,,,,,,FBP-PT-81.png,0.37,1.2,52,0.5,,,,,,,,,,,,,,,,,,0,45,45,51,1,,,,,,,,,,,,,,,,,,,,,,,
,,,,,SPR24_060,20,Female,2024-04-17_11h41.19.844,jersey_experiment_5_v0,2023.2.2,Win32,84.74576271,,,,,,,,,,,,,,,,1101.7922,1102.839,1102.8391,1104.9921,return,1.5055,,21.61458333,,,,,,FBP-OG-18.png,0.35,1.2,6,0.25,,,,,,,,,,,,,,,,,,0,46,46,5,1,,,,,,,,,,,,,,,,,,,,,,,
,,,,,SPR24_060,20,Female,2024-04-17_11h41.19.844,jersey_experiment_5_v0,2023.2.2,Win32,84.74576271,,,,,,,,,,,,,,,,1104.9923,1106.2862,1106.2863,1108.204,return,0.9436,,16.66666667,,,,,,FBP-YG-81.png,0.35,1.2,21,0.5,,,,,,,,,,,,,,,,,,0,47,47,20,1,,,,,,,,,,,,,,,,,,,,,,,
,,,,,SPR24_060,20,Female,2024-04-17_11h41.19.844,jersey_experiment_5_v0,2023.2.2,Win32,84.74576271,,,,,,,,,,,,,,,,1108.2041,1109.2509,1109.251,1109.9099,return,0.2176,,15.49479167,,,,,,FBP-OG-17.png,0.35,1.2,1,0.25,,,,,,,,,,,,,,,,,,0,48,48,0,1,,,,,,,,,,,,,,,,,,,,,,,
,,,,,SPR24_060,20,Female,2024-04-17_11h41.19.844,jersey_experiment_5_v0,2023.2.2,Win32,84.74576271,,,,,,,,,,,,,,,,1109.9102,1111.2042,1111.2042,1113.4864,return,0.9413,,89.19270833,,,,,,FBP-PT-81.png,0.43,1.2,54,0.5,,,,,,,,,,,,,,,,,,0,49,49,53,1,,,,,,,,,,,,,,,,,,,,,,,
,,,,,SPR24_060,20,Female,2024-04-17_11h41.19.844,jersey_experiment_5_v0,2023.2.2,Win32,84.74576271,,,,,,,,,,,,,,,,1113.4867,1114.5335,1114.5336,1115.6865,return,0.1814,,100,,,,,,FBP-RB-91.png,0.45,1.2,45,0.25,,,,,,,,,,,,,,,,,,0,50,50,44,1,,,,,,,,,,,,,,,,,,,,,,,
,,,,,SPR24_060,20,Female,2024-04-17_11h41.19.844,jersey_experiment_5_v0,2023.2.2,Win32,84.74576271,,,,,,,,,,,,,,,,1115.6867,1116.9807,1116.9807,1118.4866,return,0.1107,,100,,,,,,FBP-PT-71.png,0.45,1.2,50,0.5,,,,,,,,,,,,,,,,,,0,51,51,49,1,,,,,,,,,,,,,,,,,,,,,,,
,,,,,SPR24_060,20,Female,2024-04-17_11h41.19.844,jersey_experiment_5_v0,2023.2.2,Win32,84.74576271,,,,,,,,,,,,,,,,1118.4869,1119.781,1119.7811,1121.7926,return,1.0736,,83.72395833,,,,,,FBP-PT-81.png,0.4,1.2,53,0.5,,,,,,,,,,,,,,,,,,0,52,52,52,1,,,,,,,,,,,,,,,,,,,,,,,
,,,,,SPR24_060,20,Female,2024-04-17_11h41.19.844,jersey_experiment_5_v0,2023.2.2,Win32,84.74576271,,,,,,,,,,,,,,,,1121.7929,1123.087,1123.087,1125.2399,return,1.0986,,96.484375,,,,,,FBP-YG-71.png,0.43,1.2,19,0.5,,,,,,,,,,,,,,,,,,0,53,53,18,1,,,,,,,,,,,,,,,,,,,,,,,
,,,,,SPR24_060,20,Female,2024-04-17_11h41.19.844,jersey_experiment_5_v0,2023.2.2,Win32,84.74576271,,,,,,,,,,,,,,,,1125.2402,1126.287,1126.287,1128.3575,return,0.1947,,100,,,,,,FBP-OG-18.png,0.45,1.2,10,0.25,,,,,,,,,,,,,,,,,,0,54,54,9,1,,,,,,,,,,,,,,,,,,,,,,,
,,,,,SPR24_060,20,Female,2024-04-17_11h41.19.844,jersey_experiment_5_v0,2023.2.2,Win32,84.74576271,,,,,,,,,,,,,,,,1128.3577,1129.4048,1129.4048,1130.6402,return,0.2363,,74.73958333,,,,,,FBP-RB-71.png,0.4,1.2,33,0.25,,,,,,,,,,,,,,,,,,0,55,55,32,1,,,,,,,,,,,,,,,,,,,,,,,
,,,,,SPR24_060,20,Female,2024-04-17_11h41.19.844,jersey_experiment_5_v0,2023.2.2,Win32,84.74576271,,,,,,,,,,,,,,,,1130.6404,1131.6872,1131.6873,1132.24,return,0.1647,,74.73958333,,,,,,FBP-RB-81.png,0.37,1.2,37,0.25,,,,,,,,,,,,,,,,,,0,56,56,36,1,,,,,,,,,,,,,,,,,,,,,,,
,,,,,SPR24_060,20,Female,2024-04-17_11h41.19.844,jersey_experiment_5_v0,2023.2.2,Win32,84.74576271,,,,,,,,,,,,,,,,1132.2403,1133.2871,1133.2871,1133.8638,return,0.1829,,74.73958333,,,,,,FBP-OG-18.png,0.37,1.2,7,0.25,,,,,,,,,,,,,,,,,,0,57,57,6,1,,,,,,,,,,,,,,,,,,,,,,,
,,,,,SPR24_060,20,Female,2024-04-17_11h41.19.844,jersey_experiment_5_v0,2023.2.2,Win32,84.74576271,,,,,,,,,,,,,,,,1133.8639,1134.9107,1134.9107,1135.5109,return,0.217,,74.73958333,,,,,,FBP-OG-19.png,0.4,1.2,13,0.25,,,,,,,,,,,,,,,,,,0,58,58,12,1,,,,,,,,,,,,,,,,,,,,,,,
,,,,,SPR24_060,20,Female,2024-04-17_11h41.19.844,jersey_experiment_5_v0,2023.2.2,Win32,84.74576271,,,,,,,,,,,,,,,,1135.5111,1136.5579,1136.5579,1137.558,return,0.241,,85.546875,,,,,,FBP-OG-19.png,0.43,1.2,14,0.25,,,,,,,,,,,,,,,,,,0,59,59,13,1,,,,,,,,,,,,,,,,,,,,,,,
,,,,,SPR24_060,20,Female,2024-04-17_11h41.19.844,jersey_experiment_5_v0,2023.2.2,Win32,84.74576271,,,,,,,,,,,,,,,,,,,,,,,,,,,,,,,,,,,,,,,,,,,,,,,,,,,,,,,,1137.5585,1141.8173,return,4.2516,,,,,,,,,,,,,,,,,,,
,,,,,SPR24_060,20,Female,2024-04-17_11h41.19.844,jersey_experiment_5_v0,2023.2.2,Win32,84.74576271,,,,,,,,,,,,,,,,,,,,,,,,,,,,,,,,,,,,,,,,,,,,,,,,,,,,,,,,,,,,,1141.8173,1145.4056,1,2.6956,return,0.871,,,,,,,,,,,,
,,,,,SPR24_060,20,Female,2024-04-17_11h41.19.844,jersey_experiment_5_v0,2023.2.2,Win32,84.74576271,,,,,,,,,,,,,,,,,,,,,,,,,,,,,,,,,,,,,,,,,,,,,,,,,,,,,,,,,,,,,,,,,,,,1145.4057,1199.73,Race and whether it affects our perception on one's physical appearance in terms of weight. I recognized that it alternated between white and black football players.,right,50.8727,,,,,,
,,,,,SPR24_060,20,Female,2024-04-17_11h41.19.844,jersey_experiment_5_v0,2023.2.2,Win32,84.74576271,,,,,,,,,,,,,,,,,,,,,,,,,,,,,,,,,,,,,,,,,,,,,,,,,,,,,,,,,,,,,,,,,,,,,,,,,,1199.7301,1202.4898,return,2.7513,