requirements.started,requirements.stopped,key_resp_3.keys,key_resp_3.rt,key_resp_3.duration,Subject ID,Age,Gender,date,expName,psychopyVersion,OS,frameRate,instructions1.started,instructions1.stopped,key_resp.keys,key_resp.rt,key_resp.duration,example.started,example.stopped,enter_2.keys,enter_2.rt,enter_2.duration,instructions2.started,instructions2.stopped,enter_3.keys,enter_3.rt,enter_3.duration,image.started,image.stopped,slider_2.started,slider_2.stopped,next.keys,next.rt,next.duration,slider.response,trial_block_1.thisRepN,trial_block_1.thisTrialN,trial_block_1.thisN,trial_block_1.thisIndex,trial_block_1.ran,Path,Width,Height,Index,Duration,trial_block_2.thisRepN,trial_block_2.thisTrialN,trial_block_2.thisN,trial_block_2.thisIndex,trial_block_2.ran,rest_break.started,rest_break.stopped,end_break.started,end_break.stopped,key_resp_5.keys,key_resp_5.rt,key_resp_5.duration,trial_block_3.thisRepN,trial_block_3.thisTrialN,trial_block_3.thisN,trial_block_3.thisIndex,trial_block_3.ran,trial_block_4.thisRepN,trial_block_4.thisTrialN,trial_block_4.thisN,trial_block_4.thisIndex,trial_block_4.ran,questions_intro.started,questions_intro.stopped,enter_12.keys,enter_12.rt,enter_12.duration,question2.started,question2.stopped,question_doingbest.response,question_doingbest.rt,enter_15.keys,enter_15.rt,enter_15.duration,pattern.started,pattern.stopped,pattern_2.text,enter_17.keys,enter_17.rt,enter_17.duration,thankyou.started,thankyou.stopped,enter_14.keys,enter_14.rt,enter_14.duration
0.0001,9.536,return,9.5299,,SPR24_030,18,F,2024-04-10_12h02.31.278,jersey_experiment_5_v0,2023.2.2,Win32,85.47008547,,,,,,,,,,,,,,,,,,,,,,,,,,,,,,,,,,,,,,,,,,,,,,,,,,,,,,,,,,,,,,,,,,,,,,,,,,,,,,
,,,,,SPR24_030,18,F,2024-04-10_12h02.31.278,jersey_experiment_5_v0,2023.2.2,Win32,85.47008547,9.5361,25.7225,return,16.1726,,,,,,,,,,,,,,,,,,,,,,,,,,,,,,,,,,,,,,,,,,,,,,,,,,,,,,,,,,,,,,,,,,,,,,,,,,
,,,,,SPR24_030,18,F,2024-04-10_12h02.31.278,jersey_experiment_5_v0,2023.2.2,Win32,85.47008547,,,,,,25.7228,29.7223,return,3.9622,,,,,,,,,,,,,,,,,,,,,,,,,,,,,,,,,,,,,,,,,,,,,,,,,,,,,,,,,,,,,,,,,,,,,
,,,,,SPR24_030,18,F,2024-04-10_12h02.31.278,jersey_experiment_5_v0,2023.2.2,Win32,85.47008547,,,,,,,,,,,29.7225,63.8181,return,34.08,,,,,,,,,,,,,,,,,,,,,,,,,,,,,,,,,,,,,,,,,,,,,,,,,,,,,,,,,,,,,,,,
,,,,,SPR24_030,18,F,2024-04-10_12h02.31.278,jersey_experiment_5_v0,2023.2.2,Win32,85.47008547,,,,,,,,,,,,,,,,63.8319,64.8764,64.8766,79.7827,return,5.7637,,75,0,0,0,27,1,FBP-YG-19.png,0.4,1.2,28,0.25,,,,,,,,,,,,,,,,,,,,,,,,,,,,,,,,,,,,,,,,,,,,,
,,,,,SPR24_030,18,F,2024-04-10_12h02.31.278,jersey_experiment_5_v0,2023.2.2,Win32,85.47008547,,,,,,,,,,,,,,,,79.7901,81.0887,81.0889,86.5137,return,2.8004,,99.47916667,0,1,1,44,1,FBP-RB-19.png,0.45,1.2,45,0.5,,,,,,,,,,,,,,,,,,,,,,,,,,,,,,,,,,,,,,,,,,,,,
,,,,,SPR24_030,18,F,2024-04-10_12h02.31.278,jersey_experiment_5_v0,2023.2.2,Win32,85.47008547,,,,,,,,,,,,,,,,86.5202,87.5714,87.5715,91.4185,return,1.2655,,24.609375,0,2,2,51,1,FBP-PT-18.png,0.37,1.2,52,0.25,,,,,,,,,,,,,,,,,,,,,,,,,,,,,,,,,,,,,,,,,,,,,
,,,,,SPR24_030,18,F,2024-04-10_12h02.31.278,jersey_experiment_5_v0,2023.2.2,Win32,85.47008547,,,,,,,,,,,,,,,,91.4189,92.7133,92.7134,96.0786,return,0.7296,,74.609375,0,3,3,12,1,FBP-OG-91.png,0.4,1.2,13,0.5,,,,,,,,,,,,,,,,,,,,,,,,,,,,,,,,,,,,,,,,,,,,,
,,,,,SPR24_030,18,F,2024-04-10_12h02.31.278,jersey_experiment_5_v0,2023.2.2,Win32,85.47008547,,,,,,,,,,,,,,,,96.0787,97.1246,97.1247,100.8892,return,1.1366,,24.34895833,0,4,4,21,1,FBP-YG-18.png,0.37,1.2,22,0.25,,,,,,,,,,,,,,,,,,,,,,,,,,,,,,,,,,,,,,,,,,,,,
,,,,,SPR24_030,18,F,2024-04-10_12h02.31.278,jersey_experiment_5_v0,2023.2.2,Win32,85.47008547,,,,,,,,,,,,,,,,100.8895,101.9368,101.9369,109.9381,return,6.1183,,69.01041667,0,5,5,28,1,FBP-YG-19.png,0.43,1.2,29,0.25,,,,,,,,,,,,,,,,,,,,,,,,,,,,,,,,,,,,,,,,,,,,,
,,,,,SPR24_030,18,F,2024-04-10_12h02.31.278,jersey_experiment_5_v0,2023.2.2,Win32,85.47008547,,,,,,,,,,,,,,,,109.9446,110.9958,110.996,114.4547,return,1.9281,,82.421875,0,6,6,17,1,FBP-YG-17.png,0.4,1.2,18,0.25,,,,,,,,,,,,,,,,,,,,,,,,,,,,,,,,,,,,,,,,,,,,,
,,,,,SPR24_030,18,F,2024-04-10_12h02.31.278,jersey_experiment_5_v0,2023.2.2,Win32,85.47008547,,,,,,,,,,,,,,,,114.4552,115.749,115.7491,118.3492,return,1.0748,,39.32291667,0,7,7,37,1,FBP-RB-18.png,0.4,1.2,38,0.5,,,,,,,,,,,,,,,,,,,,,,,,,,,,,,,,,,,,,,,,,,,,,
,,,,,SPR24_030,18,F,2024-04-10_12h02.31.278,jersey_experiment_5_v0,2023.2.2,Win32,85.47008547,,,,,,,,,,,,,,,,118.3495,119.3961,119.3963,125.2315,return,1.0136,,41.14583333,0,8,8,50,1,FBP-PT-18.png,0.35,1.2,51,0.25,,,,,,,,,,,,,,,,,,,,,,,,,,,,,,,,,,,,,,,,,,,,,
,,,,,SPR24_030,18,F,2024-04-10_12h02.31.278,jersey_experiment_5_v0,2023.2.2,Win32,85.47008547,,,,,,,,,,,,,,,,125.2319,126.2795,126.2795,130.8446,return,1.2229,,46.74479167,0,9,9,16,1,FBP-YG-17.png,0.37,1.2,17,0.25,,,,,,,,,,,,,,,,,,,,,,,,,,,,,,,,,,,,,,,,,,,,,
,,,,,SPR24_030,18,F,2024-04-10_12h02.31.278,jersey_experiment_5_v0,2023.2.2,Win32,85.47008547,,,,,,,,,,,,,,,,130.8449,131.8907,131.8908,134.8907,return,0.9713,,94.01041667,0,10,10,58,1,FBP-PT-19.png,0.43,1.2,59,0.25,,,,,,,,,,,,,,,,,,,,,,,,,,,,,,,,,,,,,,,,,,,,,
,,,,,SPR24_030,18,F,2024-04-10_12h02.31.278,jersey_experiment_5_v0,2023.2.2,Win32,85.47008547,,,,,,,,,,,,,,,,134.8911,136.1851,136.1852,139.5144,return,1.8651,,98.69791667,0,11,11,9,1,FBP-OG-81.png,0.45,1.2,10,0.5,,,,,,,,,,,,,,,,,,,,,,,,,,,,,,,,,,,,,,,,,,,,,
,,,,,SPR24_030,18,F,2024-04-10_12h02.31.278,jersey_experiment_5_v0,2023.2.2,Win32,85.47008547,,,,,,,,,,,,,,,,139.5145,140.8088,140.8089,147.5152,return,4.3948,,15.625,0,12,12,0,1,FBP-OG-71.png,0.35,1.2,1,0.5,,,,,,,,,,,,,,,,,,,,,,,,,,,,,,,,,,,,,,,,,,,,,
,,,,,SPR24_030,18,F,2024-04-10_12h02.31.278,jersey_experiment_5_v0,2023.2.2,Win32,85.47008547,,,,,,,,,,,,,,,,147.5156,148.8092,148.8093,151.0808,return,0.7176,,93.48958333,0,13,13,38,1,FBP-RB-18.png,0.43,1.2,39,0.5,,,,,,,,,,,,,,,,,,,,,,,,,,,,,,,,,,,,,,,,,,,,,
,,,,,SPR24_030,18,F,2024-04-10_12h02.31.278,jersey_experiment_5_v0,2023.2.2,Win32,85.47008547,,,,,,,,,,,,,,,,151.081,152.1268,152.1269,154.3265,return,0.7864,,57.03125,0,14,14,25,1,FBP-YG-19.png,0.35,1.2,26,0.25,,,,,,,,,,,,,,,,,,,,,,,,,,,,,,,,,,,,,,,,,,,,,
,,,,,SPR24_030,18,F,2024-04-10_12h02.31.278,jersey_experiment_5_v0,2023.2.2,Win32,85.47008547,,,,,,,,,,,,,,,,154.3267,155.374,155.3741,161.9153,return,4.3236,,88.28125,0,15,15,48,1,FBP-PT-17.png,0.43,1.2,49,0.25,,,,,,,,,,,,,,,,,,,,,,,,,,,,,,,,,,,,,,,,,,,,,
,,,,,SPR24_030,18,F,2024-04-10_12h02.31.278,jersey_experiment_5_v0,2023.2.2,Win32,85.47008547,,,,,,,,,,,,,,,,161.9248,163.2223,163.2224,166.1389,return,1.7007,,90.625,0,16,16,43,1,FBP-RB-19.png,0.43,1.2,44,0.5,,,,,,,,,,,,,,,,,,,,,,,,,,,,,,,,,,,,,,,,,,,,,
,,,,,SPR24_030,18,F,2024-04-10_12h02.31.278,jersey_experiment_5_v0,2023.2.2,Win32,85.47008547,,,,,,,,,,,,,,,,166.1394,167.4333,167.4335,169.7509,return,0.7976,,98.17708333,0,17,17,14,1,FBP-OG-91.png,0.45,1.2,15,0.5,,,,,,,,,,,,,,,,,,,,,,,,,,,,,,,,,,,,,,,,,,,,,
,,,,,SPR24_030,18,F,2024-04-10_12h02.31.278,jersey_experiment_5_v0,2023.2.2,Win32,85.47008547,,,,,,,,,,,,,,,,169.7513,171.0453,171.0454,173.4806,return,0.6195,,69.921875,0,18,18,42,1,FBP-RB-19.png,0.4,1.2,43,0.5,,,,,,,,,,,,,,,,,,,,,,,,,,,,,,,,,,,,,,,,,,,,,
,,,,,SPR24_030,18,F,2024-04-10_12h02.31.278,jersey_experiment_5_v0,2023.2.2,Win32,85.47008547,,,,,,,,,,,,,,,,173.481,174.5283,174.5284,180.5867,return,4.5598,,71.61458333,0,19,19,22,1,FBP-YG-18.png,0.4,1.2,23,0.25,,,,,,,,,,,,,,,,,,,,,,,,,,,,,,,,,,,,,,,,,,,,,
,,,,,SPR24_030,18,F,2024-04-10_12h02.31.278,jersey_experiment_5_v0,2023.2.2,Win32,85.47008547,,,,,,,,,,,,,,,,180.5959,181.6457,181.6459,183.635,return,0.6236,,81.90104167,0,20,20,29,1,FBP-YG-19.png,0.45,1.2,30,0.25,,,,,,,,,,,,,,,,,,,,,,,,,,,,,,,,,,,,,,,,,,,,,
,,,,,SPR24_030,18,F,2024-04-10_12h02.31.278,jersey_experiment_5_v0,2023.2.2,Win32,85.47008547,,,,,,,,,,,,,,,,183.6352,184.9282,184.9283,187.622,return,1.0458,,39.0625,0,21,21,41,1,FBP-RB-19.png,0.37,1.2,42,0.5,,,,,,,,,,,,,,,,,,,,,,,,,,,,,,,,,,,,,,,,,,,,,
,,,,,SPR24_030,18,F,2024-04-10_12h02.31.278,jersey_experiment_5_v0,2023.2.2,Win32,85.47008547,,,,,,,,,,,,,,,,187.6221,188.6694,188.6695,192.7647,return,1.0001,,73.828125,0,22,22,18,1,FBP-YG-17.png,0.43,1.2,19,0.25,,,,,,,,,,,,,,,,,,,,,,,,,,,,,,,,,,,,,,,,,,,,,
,,,,,SPR24_030,18,F,2024-04-10_12h02.31.278,jersey_experiment_5_v0,2023.2.2,Win32,85.47008547,,,,,,,,,,,,,,,,192.765,194.0579,194.0581,197.5299,return,0.7179,,17.578125,0,23,23,5,1,FBP-OG-81.png,0.35,1.2,6,0.5,,,,,,,,,,,,,,,,,,,,,,,,,,,,,,,,,,,,,,,,,,,,,
,,,,,SPR24_030,18,F,2024-04-10_12h02.31.278,jersey_experiment_5_v0,2023.2.2,Win32,85.47008547,,,,,,,,,,,,,,,,197.5302,198.5757,198.5758,203.517,return,0.9455,,51.953125,0,24,24,57,1,FBP-PT-19.png,0.4,1.2,58,0.25,,,,,,,,,,,,,,,,,,,,,,,,,,,,,,,,,,,,,,,,,,,,,
,,,,,SPR24_030,18,F,2024-04-10_12h02.31.278,jersey_experiment_5_v0,2023.2.2,Win32,85.47008547,,,,,,,,,,,,,,,,203.5174,204.5641,204.5643,206.3169,return,0.7096,,52.34375,0,25,25,45,1,FBP-PT-17.png,0.35,1.2,46,0.25,,,,,,,,,,,,,,,,,,,,,,,,,,,,,,,,,,,,,,,,,,,,,
,,,,,SPR24_030,18,F,2024-04-10_12h02.31.278,jersey_experiment_5_v0,2023.2.2,Win32,85.47008547,,,,,,,,,,,,,,,,206.3172,207.6114,207.6115,209.8467,return,1.1284,,53.38541667,0,26,26,36,1,FBP-RB-18.png,0.37,1.2,37,0.5,,,,,,,,,,,,,,,,,,,,,,,,,,,,,,,,,,,,,,,,,,,,,
,,,,,SPR24_030,18,F,2024-04-10_12h02.31.278,jersey_experiment_5_v0,2023.2.2,Win32,85.47008547,,,,,,,,,,,,,,,,209.8471,211.1408,211.1409,214.3644,return,1.4637,,53.38541667,0,27,27,31,1,FBP-RB-17.png,0.37,1.2,32,0.5,,,,,,,,,,,,,,,,,,,,,,,,,,,,,,,,,,,,,,,,,,,,,
,,,,,SPR24_030,18,F,2024-04-10_12h02.31.278,jersey_experiment_5_v0,2023.2.2,Win32,85.47008547,,,,,,,,,,,,,,,,214.3648,215.4117,215.4119,222.4234,return,5.1973,,67.44791667,0,28,28,26,1,FBP-YG-19.png,0.37,1.2,27,0.25,,,,,,,,,,,,,,,,,,,,,,,,,,,,,,,,,,,,,,,,,,,,,
,,,,,SPR24_030,18,F,2024-04-10_12h02.31.278,jersey_experiment_5_v0,2023.2.2,Win32,85.47008547,,,,,,,,,,,,,,,,222.4236,223.718,223.7181,227.9179,return,1.9091,,93.359375,0,29,29,3,1,FBP-OG-71.png,0.43,1.2,4,0.5,,,,,,,,,,,,,,,,,,,,,,,,,,,,,,,,,,,,,,,,,,,,,
,,,,,SPR24_030,18,F,2024-04-10_12h02.31.278,jersey_experiment_5_v0,2023.2.2,Win32,85.47008547,,,,,,,,,,,,,,,,227.9185,229.2121,229.2122,231.0356,return,0.5348,,97.13541667,0,30,30,13,1,FBP-OG-91.png,0.43,1.2,14,0.5,,,,,,,,,,,,,,,,,,,,,,,,,,,,,,,,,,,,,,,,,,,,,
,,,,,SPR24_030,18,F,2024-04-10_12h02.31.278,jersey_experiment_5_v0,2023.2.2,Win32,85.47008547,,,,,,,,,,,,,,,,231.036,232.0829,232.0831,233.7532,return,0.6308,,99.609375,0,31,31,59,1,FBP-PT-19.png,0.45,1.2,60,0.25,,,,,,,,,,,,,,,,,,,,,,,,,,,,,,,,,,,,,,,,,,,,,
,,,,,SPR24_030,18,F,2024-04-10_12h02.31.278,jersey_experiment_5_v0,2023.2.2,Win32,85.47008547,,,,,,,,,,,,,,,,233.7533,235.0478,235.0479,239.6712,return,3.3629,,45.83333333,0,32,32,11,1,FBP-OG-91.png,0.37,1.2,12,0.5,,,,,,,,,,,,,,,,,,,,,,,,,,,,,,,,,,,,,,,,,,,,,
,,,,,SPR24_030,18,F,2024-04-10_12h02.31.278,jersey_experiment_5_v0,2023.2.2,Win32,85.47008547,,,,,,,,,,,,,,,,239.6716,240.7184,240.7186,244.5786,return,0.8707,,50.52083333,0,33,33,55,1,FBP-PT-19.png,0.35,1.2,56,0.25,,,,,,,,,,,,,,,,,,,,,,,,,,,,,,,,,,,,,,,,,,,,,
,,,,,SPR24_030,18,F,2024-04-10_12h02.31.278,jersey_experiment_5_v0,2023.2.2,Win32,85.47008547,,,,,,,,,,,,,,,,244.5789,245.8717,245.8717,247.6595,return,0.6637,,52.60416667,0,34,34,6,1,FBP-OG-81.png,0.37,1.2,7,0.5,,,,,,,,,,,,,,,,,,,,,,,,,,,,,,,,,,,,,,,,,,,,,
,,,,,SPR24_030,18,F,2024-04-10_12h02.31.278,jersey_experiment_5_v0,2023.2.2,Win32,85.47008547,,,,,,,,,,,,,,,,247.6597,248.7071,248.7071,252.4599,return,2.1573,,61.97916667,0,35,35,52,1,FBP-PT-18.png,0.4,1.2,53,0.25,,,,,,,,,,,,,,,,,,,,,,,,,,,,,,,,,,,,,,,,,,,,,
,,,,,SPR24_030,18,F,2024-04-10_12h02.31.278,jersey_experiment_5_v0,2023.2.2,Win32,85.47008547,,,,,,,,,,,,,,,,252.4603,253.5078,253.508,257.8956,return,2.5392,,88.15104167,0,36,36,19,1,FBP-YG-17.png,0.45,1.2,20,0.25,,,,,,,,,,,,,,,,,,,,,,,,,,,,,,,,,,,,,,,,,,,,,
,,,,,SPR24_030,18,F,2024-04-10_12h02.31.278,jersey_experiment_5_v0,2023.2.2,Win32,85.47008547,,,,,,,,,,,,,,,,257.8961,258.9428,258.943,262.9192,return,1.9393,,70.83333333,0,37,37,46,1,FBP-PT-17.png,0.37,1.2,47,0.25,,,,,,,,,,,,,,,,,,,,,,,,,,,,,,,,,,,,,,,,,,,,,
,,,,,SPR24_030,18,F,2024-04-10_12h02.31.278,jersey_experiment_5_v0,2023.2.2,Win32,85.47008547,,,,,,,,,,,,,,,,262.9196,263.9664,263.9665,266.7666,return,1.072,,94.27083333,0,38,38,53,1,FBP-PT-18.png,0.43,1.2,54,0.25,,,,,,,,,,,,,,,,,,,,,,,,,,,,,,,,,,,,,,,,,,,,,
,,,,,SPR24_030,18,F,2024-04-10_12h02.31.278,jersey_experiment_5_v0,2023.2.2,Win32,85.47008547,,,,,,,,,,,,,,,,266.7671,268.0608,268.061,271.6609,return,2.2752,,73.95833333,0,39,39,32,1,FBP-RB-17.png,0.4,1.2,33,0.5,,,,,,,,,,,,,,,,,,,,,,,,,,,,,,,,,,,,,,,,,,,,,
,,,,,SPR24_030,18,F,2024-04-10_12h02.31.278,jersey_experiment_5_v0,2023.2.2,Win32,85.47008547,,,,,,,,,,,,,,,,271.6612,272.7081,272.7082,275.5432,return,0.8217,,19.53125,0,40,40,15,1,FBP-YG-17.png,0.35,1.2,16,0.25,,,,,,,,,,,,,,,,,,,,,,,,,,,,,,,,,,,,,,,,,,,,,
,,,,,SPR24_030,18,F,2024-04-10_12h02.31.278,jersey_experiment_5_v0,2023.2.2,Win32,85.47008547,,,,,,,,,,,,,,,,275.5437,276.8379,276.8379,280.8259,return,2.089,,35.28645833,0,41,41,10,1,FBP-OG-91.png,0.35,1.2,11,0.5,,,,,,,,,,,,,,,,,,,,,,,,,,,,,,,,,,,,,,,,,,,,,
,,,,,SPR24_030,18,F,2024-04-10_12h02.31.278,jersey_experiment_5_v0,2023.2.2,Win32,85.47008547,,,,,,,,,,,,,,,,280.8264,282.1206,282.1207,284.5436,return,1.1426,,40.36458333,0,42,42,40,1,FBP-RB-19.png,0.35,1.2,41,0.5,,,,,,,,,,,,,,,,,,,,,,,,,,,,,,,,,,,,,,,,,,,,,
,,,,,SPR24_030,18,F,2024-04-10_12h02.31.278,jersey_experiment_5_v0,2023.2.2,Win32,85.47008547,,,,,,,,,,,,,,,,284.544,285.8381,285.8382,289.885,return,2.0736,,86.71875,0,43,43,33,1,FBP-RB-17.png,0.43,1.2,34,0.5,,,,,,,,,,,,,,,,,,,,,,,,,,,,,,,,,,,,,,,,,,,,,
,,,,,SPR24_030,18,F,2024-04-10_12h02.31.278,jersey_experiment_5_v0,2023.2.2,Win32,85.47008547,,,,,,,,,,,,,,,,289.8853,291.1794,291.1796,292.8499,return,0.5542,,97.52604167,0,44,44,4,1,FBP-OG-71.png,0.45,1.2,5,0.5,,,,,,,,,,,,,,,,,,,,,,,,,,,,,,,,,,,,,,,,,,,,,
,,,,,SPR24_030,18,F,2024-04-10_12h02.31.278,jersey_experiment_5_v0,2023.2.2,Win32,85.47008547,,,,,,,,,,,,,,,,292.8503,294.1443,294.1443,296.7675,return,0.5541,,73.56770833,0,45,45,2,1,FBP-OG-71.png,0.4,1.2,3,0.5,,,,,,,,,,,,,,,,,,,,,,,,,,,,,,,,,,,,,,,,,,,,,
,,,,,SPR24_030,18,F,2024-04-10_12h02.31.278,jersey_experiment_5_v0,2023.2.2,Win32,85.47008547,,,,,,,,,,,,,,,,296.7675,298.062,298.062,299.7101,return,0.6471,,69.79166667,0,46,46,1,1,FBP-OG-71.png,0.37,1.2,2,0.5,,,,,,,,,,,,,,,,,,,,,,,,,,,,,,,,,,,,,,,,,,,,,
,,,,,SPR24_030,18,F,2024-04-10_12h02.31.278,jersey_experiment_5_v0,2023.2.2,Win32,85.47008547,,,,,,,,,,,,,,,,299.7103,300.7562,300.7563,305.8397,return,3.7179,,92.31770833,0,47,47,49,1,FBP-PT-17.png,0.45,1.2,50,0.25,,,,,,,,,,,,,,,,,,,,,,,,,,,,,,,,,,,,,,,,,,,,,
,,,,,SPR24_030,18,F,2024-04-10_12h02.31.278,jersey_experiment_5_v0,2023.2.2,Win32,85.47008547,,,,,,,,,,,,,,,,305.8399,306.8859,306.886,309.2384,return,0.9622,,95.96354167,0,48,48,24,1,FBP-YG-18.png,0.45,1.2,25,0.25,,,,,,,,,,,,,,,,,,,,,,,,,,,,,,,,,,,,,,,,,,,,,
,,,,,SPR24_030,18,F,2024-04-10_12h02.31.278,jersey_experiment_5_v0,2023.2.2,Win32,85.47008547,,,,,,,,,,,,,,,,309.2386,310.5332,310.5333,313.3563,return,1.4036,,37.890625,0,49,49,30,1,FBP-RB-17.png,0.35,1.2,31,0.5,,,,,,,,,,,,,,,,,,,,,,,,,,,,,,,,,,,,,,,,,,,,,
,,,,,SPR24_030,18,F,2024-04-10_12h02.31.278,jersey_experiment_5_v0,2023.2.2,Win32,85.47008547,,,,,,,,,,,,,,,,313.3567,314.4038,314.4039,316.4743,return,0.5834,,99.21875,0,50,50,54,1,FBP-PT-18.png,0.45,1.2,55,0.25,,,,,,,,,,,,,,,,,,,,,,,,,,,,,,,,,,,,,,,,,,,,,
,,,,,SPR24_030,18,F,2024-04-10_12h02.31.278,jersey_experiment_5_v0,2023.2.2,Win32,85.47008547,,,,,,,,,,,,,,,,316.4747,317.7687,317.7688,320.1214,return,0.8194,,23.17708333,0,51,51,35,1,FBP-RB-18.png,0.35,1.2,36,0.5,,,,,,,,,,,,,,,,,,,,,,,,,,,,,,,,,,,,,,,,,,,,,
,,,,,SPR24_030,18,F,2024-04-10_12h02.31.278,jersey_experiment_5_v0,2023.2.2,Win32,85.47008547,,,,,,,,,,,,,,,,320.1218,321.1688,321.1688,323.7214,return,0.5722,,82.421875,0,52,52,23,1,FBP-YG-18.png,0.43,1.2,24,0.25,,,,,,,,,,,,,,,,,,,,,,,,,,,,,,,,,,,,,,,,,,,,,
,,,,,SPR24_030,18,F,2024-04-10_12h02.31.278,jersey_experiment_5_v0,2023.2.2,Win32,85.47008547,,,,,,,,,,,,,,,,323.7218,325.016,325.0161,326.7335,return,0.6392,,66.92708333,0,53,53,7,1,FBP-OG-81.png,0.4,1.2,8,0.5,,,,,,,,,,,,,,,,,,,,,,,,,,,,,,,,,,,,,,,,,,,,,
,,,,,SPR24_030,18,F,2024-04-10_12h02.31.278,jersey_experiment_5_v0,2023.2.2,Win32,85.47008547,,,,,,,,,,,,,,,,326.734,328.0278,328.0279,330.8872,return,2.0579,,90.10416667,0,54,54,39,1,FBP-RB-18.png,0.45,1.2,40,0.5,,,,,,,,,,,,,,,,,,,,,,,,,,,,,,,,,,,,,,,,,,,,,
,,,,,SPR24_030,18,F,2024-04-10_12h02.31.278,jersey_experiment_5_v0,2023.2.2,Win32,85.47008547,,,,,,,,,,,,,,,,330.8876,331.934,331.9342,336.4633,return,2.9893,,20.96354167,0,55,55,20,1,FBP-YG-18.png,0.35,1.2,21,0.25,,,,,,,,,,,,,,,,,,,,,,,,,,,,,,,,,,,,,,,,,,,,,
,,,,,SPR24_030,18,F,2024-04-10_12h02.31.278,jersey_experiment_5_v0,2023.2.2,Win32,85.47008547,,,,,,,,,,,,,,,,336.4638,337.7575,337.7576,340.9105,return,0.5795,,76.82291667,0,56,56,34,1,FBP-RB-17.png,0.45,1.2,35,0.5,,,,,,,,,,,,,,,,,,,,,,,,,,,,,,,,,,,,,,,,,,,,,
,,,,,SPR24_030,18,F,2024-04-10_12h02.31.278,jersey_experiment_5_v0,2023.2.2,Win32,85.47008547,,,,,,,,,,,,,,,,340.911,341.9577,341.9578,346.5459,return,2.2366,,48.046875,0,57,57,47,1,FBP-PT-17.png,0.4,1.2,48,0.25,,,,,,,,,,,,,,,,,,,,,,,,,,,,,,,,,,,,,,,,,,,,,
,,,,,SPR24_030,18,F,2024-04-10_12h02.31.278,jersey_experiment_5_v0,2023.2.2,Win32,85.47008547,,,,,,,,,,,,,,,,346.5554,347.605,347.6051,350.1462,return,0.5895,,65.36458333,0,58,58,56,1,FBP-PT-19.png,0.37,1.2,57,0.25,,,,,,,,,,,,,,,,,,,,,,,,,,,,,,,,,,,,,,,,,,,,,
,,,,,SPR24_030,18,F,2024-04-10_12h02.31.278,jersey_experiment_5_v0,2023.2.2,Win32,85.47008547,,,,,,,,,,,,,,,,350.1465,351.4406,351.4406,353.5475,return,0.906,,78.64583333,0,59,59,8,1,FBP-OG-81.png,0.43,1.2,9,0.5,,,,,,,,,,,,,,,,,,,,,,,,,,,,,,,,,,,,,,,,,,,,,
,,,,,SPR24_030,18,F,2024-04-10_12h02.31.278,jersey_experiment_5_v0,2023.2.2,Win32,85.47008547,,,,,,,,,,,,,,,,353.5509,354.5937,354.5938,356.5344,return,0.7513,,81.38020833,,,,,,FBP-YG-81.png,0.43,1.2,24,0.25,0,0,0,23,1,,,,,,,,,,,,,,,,,,,,,,,,,,,,,,,,,,,,,,,,
,,,,,SPR24_030,18,F,2024-04-10_12h02.31.278,jersey_experiment_5_v0,2023.2.2,Win32,85.47008547,,,,,,,,,,,,,,,,356.5346,357.829,357.829,360.4877,return,0.9153,,86.58854167,,,,,,FBP-RB-71.png,0.45,1.2,35,0.5,0,1,1,34,1,,,,,,,,,,,,,,,,,,,,,,,,,,,,,,,,,,,,,,,,
,,,,,SPR24_030,18,F,2024-04-10_12h02.31.278,jersey_experiment_5_v0,2023.2.2,Win32,85.47008547,,,,,,,,,,,,,,,,360.4882,361.7819,361.782,364.3114,return,0.844,,17.31770833,,,,,,FBP-OG-19.png,0.35,1.2,11,0.5,0,2,2,10,1,,,,,,,,,,,,,,,,,,,,,,,,,,,,,,,,,,,,,,,,
,,,,,SPR24_030,18,F,2024-04-10_12h02.31.278,jersey_experiment_5_v0,2023.2.2,Win32,85.47008547,,,,,,,,,,,,,,,,364.3118,365.6058,365.6059,367.6187,return,0.7885,,91.27604167,,,,,,FBP-OG-18.png,0.45,1.2,10,0.5,0,3,3,9,1,,,,,,,,,,,,,,,,,,,,,,,,,,,,,,,,,,,,,,,,
,,,,,SPR24_030,18,F,2024-04-10_12h02.31.278,jersey_experiment_5_v0,2023.2.2,Win32,85.47008547,,,,,,,,,,,,,,,,367.619,368.6647,368.6648,370.6645,return,0.596,,59.765625,,,,,,FBP-PT-81.png,0.4,1.2,53,0.25,0,4,4,52,1,,,,,,,,,,,,,,,,,,,,,,,,,,,,,,,,,,,,,,,,
,,,,,SPR24_030,18,F,2024-04-10_12h02.31.278,jersey_experiment_5_v0,2023.2.2,Win32,85.47008547,,,,,,,,,,,,,,,,370.665,371.7115,371.7117,376.4544,return,2.2229,,29.03645833,,,,,,FBP-YG-71.png,0.35,1.2,16,0.25,0,5,5,15,1,,,,,,,,,,,,,,,,,,,,,,,,,,,,,,,,,,,,,,,,
,,,,,SPR24_030,18,F,2024-04-10_12h02.31.278,jersey_experiment_5_v0,2023.2.2,Win32,85.47008547,,,,,,,,,,,,,,,,376.4547,377.7474,377.7476,380.9591,return,2.096,,5.078125,,,,,,FBP-OG-17.png,0.35,1.2,1,0.5,0,6,6,0,1,,,,,,,,,,,,,,,,,,,,,,,,,,,,,,,,,,,,,,,,
,,,,,SPR24_030,18,F,2024-04-10_12h02.31.278,jersey_experiment_5_v0,2023.2.2,Win32,85.47008547,,,,,,,,,,,,,,,,380.9594,382.2534,382.2536,385.1947,return,0.7599,,73.046875,,,,,,FBP-RB-81.png,0.4,1.2,38,0.5,0,7,7,37,1,,,,,,,,,,,,,,,,,,,,,,,,,,,,,,,,,,,,,,,,
,,,,,SPR24_030,18,F,2024-04-10_12h02.31.278,jersey_experiment_5_v0,2023.2.2,Win32,85.47008547,,,,,,,,,,,,,,,,385.1951,386.2419,386.242,388.7359,return,1.0718,,22.39583333,,,,,,FBP-PT-81.png,0.35,1.2,51,0.25,0,8,8,50,1,,,,,,,,,,,,,,,,,,,,,,,,,,,,,,,,,,,,,,,,
,,,,,SPR24_030,18,F,2024-04-10_12h02.31.278,jersey_experiment_5_v0,2023.2.2,Win32,85.47008547,,,,,,,,,,,,,,,,388.7364,389.7831,389.7832,395.1362,return,3.2249,,53.77604167,,,,,,FBP-PT-71.png,0.37,1.2,47,0.25,0,9,9,46,1,,,,,,,,,,,,,,,,,,,,,,,,,,,,,,,,,,,,,,,,
,,,,,SPR24_030,18,F,2024-04-10_12h02.31.278,jersey_experiment_5_v0,2023.2.2,Win32,85.47008547,,,,,,,,,,,,,,,,395.1365,396.4305,396.4306,397.9598,return,0.7623,,48.30729167,,,,,,FBP-OG-18.png,0.37,1.2,7,0.5,0,10,10,6,1,,,,,,,,,,,,,,,,,,,,,,,,,,,,,,,,,,,,,,,,
,,,,,SPR24_030,18,F,2024-04-10_12h02.31.278,jersey_experiment_5_v0,2023.2.2,Win32,85.47008547,,,,,,,,,,,,,,,,397.9602,399.0072,399.0073,401.5601,return,0.5858,,51.82291667,,,,,,FBP-PT-71.png,0.35,1.2,46,0.25,0,11,11,45,1,,,,,,,,,,,,,,,,,,,,,,,,,,,,,,,,,,,,,,,,
,,,,,SPR24_030,18,F,2024-04-10_12h02.31.278,jersey_experiment_5_v0,2023.2.2,Win32,85.47008547,,,,,,,,,,,,,,,,401.5606,402.6071,402.6072,405.0071,return,0.7775,,77.34375,,,,,,FBP-PT-71.png,0.45,1.2,50,0.25,0,12,12,49,1,,,,,,,,,,,,,,,,,,,,,,,,,,,,,,,,,,,,,,,,
,,,,,SPR24_030,18,F,2024-04-10_12h02.31.278,jersey_experiment_5_v0,2023.2.2,Win32,85.47008547,,,,,,,,,,,,,,,,405.0077,406.0544,406.0545,407.5366,return,0.7419,,87.76041667,,,,,,FBP-PT-91.png,0.45,1.2,60,0.25,0,13,13,59,1,,,,,,,,,,,,,,,,,,,,,,,,,,,,,,,,,,,,,,,,
,,,,,SPR24_030,18,F,2024-04-10_12h02.31.278,jersey_experiment_5_v0,2023.2.2,Win32,85.47008547,,,,,,,,,,,,,,,,407.5371,408.5839,408.584,410.1837,return,0.633,,88.80208333,,,,,,FBP-PT-71.png,0.43,1.2,49,0.25,0,14,14,48,1,,,,,,,,,,,,,,,,,,,,,,,,,,,,,,,,,,,,,,,,
,,,,,SPR24_030,18,F,2024-04-10_12h02.31.278,jersey_experiment_5_v0,2023.2.2,Win32,85.47008547,,,,,,,,,,,,,,,,410.1841,411.4778,411.4778,413.8311,return,1.0224,,21.61458333,,,,,,FBP-RB-81.png,0.35,1.2,36,0.5,0,15,15,35,1,,,,,,,,,,,,,,,,,,,,,,,,,,,,,,,,,,,,,,,,
,,,,,SPR24_030,18,F,2024-04-10_12h02.31.278,jersey_experiment_5_v0,2023.2.2,Win32,85.47008547,,,,,,,,,,,,,,,,413.8315,415.126,415.126,419.0086,return,0.6821,,46.875,,,,,,FBP-OG-18.png,0.4,1.2,8,0.5,0,16,16,7,1,,,,,,,,,,,,,,,,,,,,,,,,,,,,,,,,,,,,,,,,
,,,,,SPR24_030,18,F,2024-04-10_12h02.31.278,jersey_experiment_5_v0,2023.2.2,Win32,85.47008547,,,,,,,,,,,,,,,,419.0088,420.0549,420.0551,423.3842,return,0.5622,,60.67708333,,,,,,FBP-YG-91.png,0.4,1.2,28,0.25,0,17,17,27,1,,,,,,,,,,,,,,,,,,,,,,,,,,,,,,,,,,,,,,,,
,,,,,SPR24_030,18,F,2024-04-10_12h02.31.278,jersey_experiment_5_v0,2023.2.2,Win32,85.47008547,,,,,,,,,,,,,,,,423.3847,424.4317,424.4318,428.1375,return,1.5131,,81.11979167,,,,,,FBP-PT-91.png,0.43,1.2,59,0.25,0,18,18,58,1,,,,,,,,,,,,,,,,,,,,,,,,,,,,,,,,,,,,,,,,
,,,,,SPR24_030,18,F,2024-04-10_12h02.31.278,jersey_experiment_5_v0,2023.2.2,Win32,85.47008547,,,,,,,,,,,,,,,,428.1379,429.1844,429.1845,430.8549,return,0.5863,,92.83854167,,,,,,FBP-YG-91.png,0.43,1.2,29,0.25,0,19,19,28,1,,,,,,,,,,,,,,,,,,,,,,,,,,,,,,,,,,,,,,,,
,,,,,SPR24_030,18,F,2024-04-10_12h02.31.278,jersey_experiment_5_v0,2023.2.2,Win32,85.47008547,,,,,,,,,,,,,,,,430.8552,432.1496,432.1497,437.2083,return,3.2561,,59.50520833,,,,,,FBP-OG-17.png,0.37,1.2,2,0.5,0,20,20,1,1,,,,,,,,,,,,,,,,,,,,,,,,,,,,,,,,,,,,,,,,
,,,,,SPR24_030,18,F,2024-04-10_12h02.31.278,jersey_experiment_5_v0,2023.2.2,Win32,85.47008547,,,,,,,,,,,,,,,,437.2088,438.2556,438.2557,440.7145,return,0.9251,,71.875,,,,,,FBP-YG-71.png,0.43,1.2,19,0.25,0,21,21,18,1,,,,,,,,,,,,,,,,,,,,,,,,,,,,,,,,,,,,,,,,
,,,,,SPR24_030,18,F,2024-04-10_12h02.31.278,jersey_experiment_5_v0,2023.2.2,Win32,85.47008547,,,,,,,,,,,,,,,,440.7149,442.0088,442.0089,445.8323,return,0.6326,,68.48958333,,,,,,FBP-RB-71.png,0.43,1.2,34,0.5,0,22,22,33,1,,,,,,,,,,,,,,,,,,,,,,,,,,,,,,,,,,,,,,,,
,,,,,SPR24_030,18,F,2024-04-10_12h02.31.278,jersey_experiment_5_v0,2023.2.2,Win32,85.47008547,,,,,,,,,,,,,,,,445.8327,447.1262,447.1262,454.3621,return,3.0074,,54.81770833,,,,,,FBP-RB-81.png,0.43,1.2,39,0.5,0,23,23,38,1,,,,,,,,,,,,,,,,,,,,,,,,,,,,,,,,,,,,,,,,
,,,,,SPR24_030,18,F,2024-04-10_12h02.31.278,jersey_experiment_5_v0,2023.2.2,Win32,85.47008547,,,,,,,,,,,,,,,,454.3626,455.4092,455.4094,459.021,return,0.9809,,4.947916667,,,,,,FBP-YG-71.png,0.37,1.2,17,0.25,0,24,24,16,1,,,,,,,,,,,,,,,,,,,,,,,,,,,,,,,,,,,,,,,,
,,,,,SPR24_030,18,F,2024-04-10_12h02.31.278,jersey_experiment_5_v0,2023.2.2,Win32,85.47008547,,,,,,,,,,,,,,,,459.0214,460.0684,460.0685,462.9859,return,0.7007,,3.125,,,,,,FBP-PT-91.png,0.35,1.2,56,0.25,0,25,25,55,1,,,,,,,,,,,,,,,,,,,,,,,,,,,,,,,,,,,,,,,,
,,,,,SPR24_030,18,F,2024-04-10_12h02.31.278,jersey_experiment_5_v0,2023.2.2,Win32,85.47008547,,,,,,,,,,,,,,,,462.9863,464.0329,464.033,466.3169,return,0.6581,,74.08854167,,,,,,FBP-YG-91.png,0.45,1.2,30,0.25,0,26,26,29,1,,,,,,,,,,,,,,,,,,,,,,,,,,,,,,,,,,,,,,,,
,,,,,SPR24_030,18,F,2024-04-10_12h02.31.278,jersey_experiment_5_v0,2023.2.2,Win32,85.47008547,,,,,,,,,,,,,,,,466.3171,467.3626,467.3627,469.198,return,0.5792,,82.03125,,,,,,FBP-YG-71.png,0.45,1.2,20,0.25,0,27,27,19,1,,,,,,,,,,,,,,,,,,,,,,,,,,,,,,,,,,,,,,,,
,,,,,SPR24_030,18,F,2024-04-10_12h02.31.278,jersey_experiment_5_v0,2023.2.2,Win32,85.47008547,,,,,,,,,,,,,,,,469.1984,470.4924,470.4925,472.445,return,0.5798,,69.27083333,,,,,,FBP-OG-19.png,0.4,1.2,13,0.5,0,28,28,12,1,,,,,,,,,,,,,,,,,,,,,,,,,,,,,,,,,,,,,,,,
,,,,,SPR24_030,18,F,2024-04-10_12h02.31.278,jersey_experiment_5_v0,2023.2.2,Win32,85.47008547,,,,,,,,,,,,,,,,472.4453,473.7395,473.7396,475.8217,return,0.5803,,90.75520833,,,,,,FBP-OG-17.png,0.45,1.2,5,0.5,0,29,29,4,1,,,,,,,,,,,,,,,,,,,,,,,,,,,,,,,,,,,,,,,,
,,,,,SPR24_030,18,F,2024-04-10_12h02.31.278,jersey_experiment_5_v0,2023.2.2,Win32,85.47008547,,,,,,,,,,,,,,,,475.8221,476.8691,476.8693,480.8102,return,2.678,,47.13541667,,,,,,FBP-PT-81.png,0.37,1.2,52,0.25,0,30,30,51,1,,,,,,,,,,,,,,,,,,,,,,,,,,,,,,,,,,,,,,,,
,,,,,SPR24_030,18,F,2024-04-10_12h02.31.278,jersey_experiment_5_v0,2023.2.2,Win32,85.47008547,,,,,,,,,,,,,,,,480.8106,481.8574,481.8575,485.5752,return,0.5517,,49.609375,,,,,,FBP-PT-91.png,0.4,1.2,58,0.25,0,31,31,57,1,,,,,,,,,,,,,,,,,,,,,,,,,,,,,,,,,,,,,,,,
,,,,,SPR24_030,18,F,2024-04-10_12h02.31.278,jersey_experiment_5_v0,2023.2.2,Win32,85.47008547,,,,,,,,,,,,,,,,485.5755,486.8694,486.8695,489.3868,return,0.7594,,75.390625,,,,,,FBP-OG-18.png,0.43,1.2,9,0.5,0,32,32,8,1,,,,,,,,,,,,,,,,,,,,,,,,,,,,,,,,,,,,,,,,
,,,,,SPR24_030,18,F,2024-04-10_12h02.31.278,jersey_experiment_5_v0,2023.2.2,Win32,85.47008547,,,,,,,,,,,,,,,,489.3872,490.6813,490.6814,494.6342,return,2.8543,,28.64583333,,,,,,FBP-RB-71.png,0.37,1.2,32,0.5,0,33,33,31,1,,,,,,,,,,,,,,,,,,,,,,,,,,,,,,,,,,,,,,,,
,,,,,SPR24_030,18,F,2024-04-10_12h02.31.278,jersey_experiment_5_v0,2023.2.2,Win32,85.47008547,,,,,,,,,,,,,,,,494.6347,495.6815,495.6816,498.1519,return,1.2916,,72.52604167,,,,,,FBP-PT-71.png,0.4,1.2,48,0.25,0,34,34,47,1,,,,,,,,,,,,,,,,,,,,,,,,,,,,,,,,,,,,,,,,
,,,,,SPR24_030,18,F,2024-04-10_12h02.31.278,jersey_experiment_5_v0,2023.2.2,Win32,85.47008547,,,,,,,,,,,,,,,,498.1522,499.1992,499.1992,501.9637,return,1.9229,,58.203125,,,,,,FBP-PT-91.png,0.37,1.2,57,0.25,0,35,35,56,1,,,,,,,,,,,,,,,,,,,,,,,,,,,,,,,,,,,,,,,,
,,,,,SPR24_030,18,F,2024-04-10_12h02.31.278,jersey_experiment_5_v0,2023.2.2,Win32,85.47008547,,,,,,,,,,,,,,,,501.964,503.258,503.2581,504.9875,return,0.7472,,53.38541667,,,,,,FBP-OG-19.png,0.37,1.2,12,0.5,0,36,36,11,1,,,,,,,,,,,,,,,,,,,,,,,,,,,,,,,,,,,,,,,,
,,,,,SPR24_030,18,F,2024-04-10_12h02.31.278,jersey_experiment_5_v0,2023.2.2,Win32,85.47008547,,,,,,,,,,,,,,,,504.9879,506.0348,506.0349,508.7643,return,0.5468,,54.296875,,,,,,FBP-YG-71.png,0.4,1.2,18,0.25,0,37,37,17,1,,,,,,,,,,,,,,,,,,,,,,,,,,,,,,,,,,,,,,,,
,,,,,SPR24_030,18,F,2024-04-10_12h02.31.278,jersey_experiment_5_v0,2023.2.2,Win32,85.47008547,,,,,,,,,,,,,,,,508.7646,510.0583,510.0584,512.2231,return,0.837,,77.21354167,,,,,,FBP-OG-17.png,0.43,1.2,4,0.5,0,38,38,3,1,,,,,,,,,,,,,,,,,,,,,,,,,,,,,,,,,,,,,,,,
,,,,,SPR24_030,18,F,2024-04-10_12h02.31.278,jersey_experiment_5_v0,2023.2.2,Win32,85.47008547,,,,,,,,,,,,,,,,512.2236,513.5174,513.5175,517.7879,return,1.8279,,54.296875,,,,,,FBP-RB-71.png,0.4,1.2,33,0.5,0,39,39,32,1,,,,,,,,,,,,,,,,,,,,,,,,,,,,,,,,,,,,,,,,
,,,,,SPR24_030,18,F,2024-04-10_12h02.31.278,jersey_experiment_5_v0,2023.2.2,Win32,85.47008547,,,,,,,,,,,,,,,,517.7884,518.8354,518.8355,521.707,return,1.3999,,79.42708333,,,,,,FBP-PT-81.png,0.43,1.2,54,0.25,0,40,40,53,1,,,,,,,,,,,,,,,,,,,,,,,,,,,,,,,,,,,,,,,,
,,,,,SPR24_030,18,F,2024-04-10_12h02.31.278,jersey_experiment_5_v0,2023.2.2,Win32,85.47008547,,,,,,,,,,,,,,,,521.7072,522.7535,522.7536,525.5059,return,2.0247,,85.15625,,,,,,FBP-YG-81.png,0.45,1.2,25,0.25,0,41,41,24,1,,,,,,,,,,,,,,,,,,,,,,,,,,,,,,,,,,,,,,,,
,,,,,SPR24_030,18,F,2024-04-10_12h02.31.278,jersey_experiment_5_v0,2023.2.2,Win32,85.47008547,,,,,,,,,,,,,,,,525.5064,526.8009,526.8009,530.3765,return,1.8314,,28.515625,,,,,,FBP-RB-91.png,0.37,1.2,42,0.5,0,42,42,41,1,,,,,,,,,,,,,,,,,,,,,,,,,,,,,,,,,,,,,,,,
,,,,,SPR24_030,18,F,2024-04-10_12h02.31.278,jersey_experiment_5_v0,2023.2.2,Win32,85.47008547,,,,,,,,,,,,,,,,530.3767,531.4241,531.4242,533.8357,return,0.5824,,90.625,,,,,,FBP-PT-81.png,0.45,1.2,55,0.25,0,43,43,54,1,,,,,,,,,,,,,,,,,,,,,,,,,,,,,,,,,,,,,,,,
,,,,,SPR24_030,18,F,2024-04-10_12h02.31.278,jersey_experiment_5_v0,2023.2.2,Win32,85.47008547,,,,,,,,,,,,,,,,533.8361,535.1301,535.1301,537.6018,return,0.5414,,77.47395833,,,,,,FBP-OG-19.png,0.45,1.2,15,0.5,0,44,44,14,1,,,,,,,,,,,,,,,,,,,,,,,,,,,,,,,,,,,,,,,,
,,,,,SPR24_030,18,F,2024-04-10_12h02.31.278,jersey_experiment_5_v0,2023.2.2,Win32,85.47008547,,,,,,,,,,,,,,,,537.6021,538.8949,538.895,542.0949,return,1.8372,,22.39583333,,,,,,FBP-RB-91.png,0.35,1.2,41,0.5,0,45,45,40,1,,,,,,,,,,,,,,,,,,,,,,,,,,,,,,,,,,,,,,,,
,,,,,SPR24_030,18,F,2024-04-10_12h02.31.278,jersey_experiment_5_v0,2023.2.2,Win32,85.47008547,,,,,,,,,,,,,,,,542.0952,543.1422,543.1423,545.0256,return,0.6225,,16.27604167,,,,,,FBP-YG-81.png,0.35,1.2,21,0.25,0,46,46,20,1,,,,,,,,,,,,,,,,,,,,,,,,,,,,,,,,,,,,,,,,
,,,,,SPR24_030,18,F,2024-04-10_12h02.31.278,jersey_experiment_5_v0,2023.2.2,Win32,85.47008547,,,,,,,,,,,,,,,,545.0258,546.0722,546.0723,548.1068,return,0.7118,,21.74479167,,,,,,FBP-YG-81.png,0.37,1.2,22,0.25,0,47,47,21,1,,,,,,,,,,,,,,,,,,,,,,,,,,,,,,,,,,,,,,,,
,,,,,SPR24_030,18,F,2024-04-10_12h02.31.278,jersey_experiment_5_v0,2023.2.2,Win32,85.47008547,,,,,,,,,,,,,,,,548.1073,549.4013,549.4015,552.4599,return,1.7797,,26.5625,,,,,,FBP-RB-71.png,0.35,1.2,31,0.5,0,48,48,30,1,,,,,,,,,,,,,,,,,,,,,,,,,,,,,,,,,,,,,,,,
,,,,,SPR24_030,18,F,2024-04-10_12h02.31.278,jersey_experiment_5_v0,2023.2.2,Win32,85.47008547,,,,,,,,,,,,,,,,552.4604,553.7544,553.7545,558.8955,return,3.2965,,83.07291667,,,,,,FBP-OG-19.png,0.43,1.2,14,0.5,0,49,49,13,1,,,,,,,,,,,,,,,,,,,,,,,,,,,,,,,,,,,,,,,,
,,,,,SPR24_030,18,F,2024-04-10_12h02.31.278,jersey_experiment_5_v0,2023.2.2,Win32,85.47008547,,,,,,,,,,,,,,,,558.9051,559.9543,559.9543,565.9663,return,4.3789,,43.61979167,,,,,,FBP-YG-91.png,0.37,1.2,27,0.25,0,50,50,26,1,,,,,,,,,,,,,,,,,,,,,,,,,,,,,,,,,,,,,,,,
,,,,,SPR24_030,18,F,2024-04-10_12h02.31.278,jersey_experiment_5_v0,2023.2.2,Win32,85.47008547,,,,,,,,,,,,,,,,565.9666,567.2607,567.2608,571.6252,return,3.3715,,28.64583333,,,,,,FBP-RB-81.png,0.37,1.2,37,0.5,0,51,51,36,1,,,,,,,,,,,,,,,,,,,,,,,,,,,,,,,,,,,,,,,,
,,,,,SPR24_030,18,F,2024-04-10_12h02.31.278,jersey_experiment_5_v0,2023.2.2,Win32,85.47008547,,,,,,,,,,,,,,,,571.6254,572.6728,572.6729,575.0492,return,0.6558,,61.19791667,,,,,,FBP-YG-81.png,0.4,1.2,23,0.25,0,52,52,22,1,,,,,,,,,,,,,,,,,,,,,,,,,,,,,,,,,,,,,,,,
,,,,,SPR24_030,18,F,2024-04-10_12h02.31.278,jersey_experiment_5_v0,2023.2.2,Win32,85.47008547,,,,,,,,,,,,,,,,575.0496,576.3433,576.3434,578.4256,return,0.6187,,88.93229167,,,,,,FBP-RB-81.png,0.45,1.2,40,0.5,0,53,53,39,1,,,,,,,,,,,,,,,,,,,,,,,,,,,,,,,,,,,,,,,,
,,,,,SPR24_030,18,F,2024-04-10_12h02.31.278,jersey_experiment_5_v0,2023.2.2,Win32,85.47008547,,,,,,,,,,,,,,,,578.4261,579.7198,579.7198,581.5433,return,0.6679,,72.52604167,,,,,,FBP-RB-91.png,0.4,1.2,43,0.5,0,54,54,42,1,,,,,,,,,,,,,,,,,,,,,,,,,,,,,,,,,,,,,,,,
,,,,,SPR24_030,18,F,2024-04-10_12h02.31.278,jersey_experiment_5_v0,2023.2.2,Win32,85.47008547,,,,,,,,,,,,,,,,581.5438,582.5906,582.5908,585.0494,return,0.6068,,28.125,,,,,,FBP-YG-91.png,0.35,1.2,26,0.25,0,55,55,25,1,,,,,,,,,,,,,,,,,,,,,,,,,,,,,,,,,,,,,,,,
,,,,,SPR24_030,18,F,2024-04-10_12h02.31.278,jersey_experiment_5_v0,2023.2.2,Win32,85.47008547,,,,,,,,,,,,,,,,585.0497,586.3444,586.3445,588.5437,return,0.6127,,70.18229167,,,,,,FBP-RB-91.png,0.43,1.2,44,0.5,0,56,56,43,1,,,,,,,,,,,,,,,,,,,,,,,,,,,,,,,,,,,,,,,,
,,,,,SPR24_030,18,F,2024-04-10_12h02.31.278,jersey_experiment_5_v0,2023.2.2,Win32,85.47008547,,,,,,,,,,,,,,,,588.544,589.838,589.8381,591.2731,return,0.7015,,84.375,,,,,,FBP-RB-91.png,0.45,1.2,45,0.5,0,57,57,44,1,,,,,,,,,,,,,,,,,,,,,,,,,,,,,,,,,,,,,,,,
,,,,,SPR24_030,18,F,2024-04-10_12h02.31.278,jersey_experiment_5_v0,2023.2.2,Win32,85.47008547,,,,,,,,,,,,,,,,591.2736,592.5674,592.5675,594.7674,return,0.6716,,34.63541667,,,,,,FBP-OG-18.png,0.35,1.2,6,0.5,0,58,58,5,1,,,,,,,,,,,,,,,,,,,,,,,,,,,,,,,,,,,,,,,,
,,,,,SPR24_030,18,F,2024-04-10_12h02.31.278,jersey_experiment_5_v0,2023.2.2,Win32,85.47008547,,,,,,,,,,,,,,,,594.7678,596.0618,596.0619,599.097,return,0.8424,,36.06770833,,,,,,FBP-OG-17.png,0.4,1.2,3,0.5,0,59,59,2,1,,,,,,,,,,,,,,,,,,,,,,,,,,,,,,,,,,,,,,,,
,,,,,SPR24_030,18,F,2024-04-10_12h02.31.278,jersey_experiment_5_v0,2023.2.2,Win32,85.47008547,,,,,,,,,,,,,,,,,,,,,,,,,,,,,,,,,,,,,,,599.0979,719.0911,,,,,,,,,,,,,,,,,,,,,,,,,,,,,,,,,,,,,,
,,,,,SPR24_030,18,F,2024-04-10_12h02.31.278,jersey_experiment_5_v0,2023.2.2,Win32,85.47008547,,,,,,,,,,,,,,,,,,,,,,,,,,,,,,,,,,,,,,,,,719.0913,728.8322,return,9.7237,,,,,,,,,,,,,,,,,,,,,,,,,,,,,,,,,,
,,,,,SPR24_030,18,F,2024-04-10_12h02.31.278,jersey_experiment_5_v0,2023.2.2,Win32,85.47008547,,,,,,,,,,,,,,,,728.8442,730.1383,730.1384,733.4316,return,1.115,,36.84895833,,,,,,FBP-YG-19.png,0.37,1.2,27,0.5,,,,,,,,,,,,,0,0,0,26,1,,,,,,,,,,,,,,,,,,,,,,,,,,,,
,,,,,SPR24_030,18,F,2024-04-10_12h02.31.278,jersey_experiment_5_v0,2023.2.2,Win32,85.47008547,,,,,,,,,,,,,,,,733.4321,734.4789,734.479,737.1024,return,0.5788,,66.796875,,,,,,FBP-OG-71.png,0.4,1.2,3,0.25,,,,,,,,,,,,,0,1,1,2,1,,,,,,,,,,,,,,,,,,,,,,,,,,,,
,,,,,SPR24_030,18,F,2024-04-10_12h02.31.278,jersey_experiment_5_v0,2023.2.2,Win32,85.47008547,,,,,,,,,,,,,,,,737.1028,738.1497,738.1498,741.7849,return,2.4199,,47.78645833,,,,,,FBP-RB-19.png,0.37,1.2,42,0.25,,,,,,,,,,,,,0,2,2,41,1,,,,,,,,,,,,,,,,,,,,,,,,,,,,
,,,,,SPR24_030,18,F,2024-04-10_12h02.31.278,jersey_experiment_5_v0,2023.2.2,Win32,85.47008547,,,,,,,,,,,,,,,,741.7853,743.0792,743.0794,747.1381,return,3.1538,,52.99479167,,,,,,FBP-PT-19.png,0.37,1.2,57,0.5,,,,,,,,,,,,,0,3,3,56,1,,,,,,,,,,,,,,,,,,,,,,,,,,,,
,,,,,SPR24_030,18,F,2024-04-10_12h02.31.278,jersey_experiment_5_v0,2023.2.2,Win32,85.47008547,,,,,,,,,,,,,,,,747.1385,748.1854,748.1854,749.7852,return,0.5255,,58.07291667,,,,,,FBP-OG-91.png,0.37,1.2,12,0.25,,,,,,,,,,,,,0,4,4,11,1,,,,,,,,,,,,,,,,,,,,,,,,,,,,
,,,,,SPR24_030,18,F,2024-04-10_12h02.31.278,jersey_experiment_5_v0,2023.2.2,Win32,85.47008547,,,,,,,,,,,,,,,,749.7856,750.8327,750.8329,752.4912,return,0.5702,,76.953125,,,,,,FBP-OG-81.png,0.43,1.2,9,0.25,,,,,,,,,,,,,0,5,5,8,1,,,,,,,,,,,,,,,,,,,,,,,,,,,,
,,,,,SPR24_030,18,F,2024-04-10_12h02.31.278,jersey_experiment_5_v0,2023.2.2,Win32,85.47008547,,,,,,,,,,,,,,,,752.4917,753.7864,753.7865,756.7384,return,2.0232,,90.75520833,,,,,,FBP-YG-17.png,0.45,1.2,20,0.5,,,,,,,,,,,,,0,6,6,19,1,,,,,,,,,,,,,,,,,,,,,,,,,,,,
,,,,,SPR24_030,18,F,2024-04-10_12h02.31.278,jersey_experiment_5_v0,2023.2.2,Win32,85.47008547,,,,,,,,,,,,,,,,756.7387,758.0328,758.0328,760.0444,return,1.3335,,88.671875,,,,,,FBP-PT-19.png,0.43,1.2,59,0.5,,,,,,,,,,,,,0,7,7,58,1,,,,,,,,,,,,,,,,,,,,,,,,,,,,
,,,,,SPR24_030,18,F,2024-04-10_12h02.31.278,jersey_experiment_5_v0,2023.2.2,Win32,85.47008547,,,,,,,,,,,,,,,,760.0451,761.0917,761.0918,763.3387,return,0.5353,,89.453125,,,,,,FBP-RB-17.png,0.43,1.2,34,0.25,,,,,,,,,,,,,0,8,8,33,1,,,,,,,,,,,,,,,,,,,,,,,,,,,,
,,,,,SPR24_030,18,F,2024-04-10_12h02.31.278,jersey_experiment_5_v0,2023.2.2,Win32,85.47008547,,,,,,,,,,,,,,,,763.3391,764.3859,764.386,766.786,return,0.6481,,73.046875,,,,,,FBP-OG-81.png,0.4,1.2,8,0.25,,,,,,,,,,,,,0,9,9,7,1,,,,,,,,,,,,,,,,,,,,,,,,,,,,
,,,,,SPR24_030,18,F,2024-04-10_12h02.31.278,jersey_experiment_5_v0,2023.2.2,Win32,85.47008547,,,,,,,,,,,,,,,,766.7864,767.8332,767.8332,769.1278,return,0.5627,,69.53125,,,,,,FBP-OG-91.png,0.4,1.2,13,0.25,,,,,,,,,,,,,0,10,10,12,1,,,,,,,,,,,,,,,,,,,,,,,,,,,,
,,,,,SPR24_030,18,F,2024-04-10_12h02.31.278,jersey_experiment_5_v0,2023.2.2,Win32,85.47008547,,,,,,,,,,,,,,,,769.1282,770.4214,770.4215,774.1627,return,1.965,,20.703125,,,,,,FBP-YG-18.png,0.35,1.2,21,0.5,,,,,,,,,,,,,0,11,11,20,1,,,,,,,,,,,,,,,,,,,,,,,,,,,,
,,,,,SPR24_030,18,F,2024-04-10_12h02.31.278,jersey_experiment_5_v0,2023.2.2,Win32,85.47008547,,,,,,,,,,,,,,,,774.1631,775.21,775.21,777.2452,return,0.5566,,15.88541667,,,,,,FBP-OG-71.png,0.35,1.2,1,0.25,,,,,,,,,,,,,0,12,12,0,1,,,,,,,,,,,,,,,,,,,,,,,,,,,,
,,,,,SPR24_030,18,F,2024-04-10_12h02.31.278,jersey_experiment_5_v0,2023.2.2,Win32,85.47008547,,,,,,,,,,,,,,,,777.2456,778.2925,778.2926,780.0807,return,0.7184,,10.28645833,,,,,,FBP-OG-71.png,0.37,1.2,2,0.25,,,,,,,,,,,,,0,13,13,1,1,,,,,,,,,,,,,,,,,,,,,,,,,,,,
,,,,,SPR24_030,18,F,2024-04-10_12h02.31.278,jersey_experiment_5_v0,2023.2.2,Win32,85.47008547,,,,,,,,,,,,,,,,780.0811,781.3752,781.3753,783.2806,return,0.7189,,11.45833333,,,,,,FBP-PT-19.png,0.35,1.2,56,0.5,,,,,,,,,,,,,0,14,14,55,1,,,,,,,,,,,,,,,,,,,,,,,,,,,,
,,,,,SPR24_030,18,F,2024-04-10_12h02.31.278,jersey_experiment_5_v0,2023.2.2,Win32,85.47008547,,,,,,,,,,,,,,,,783.2811,784.5755,784.5755,787.5161,return,1.475,,31.38020833,,,,,,FBP-PT-17.png,0.35,1.2,46,0.5,,,,,,,,,,,,,0,15,15,45,1,,,,,,,,,,,,,,,,,,,,,,,,,,,,
,,,,,SPR24_030,18,F,2024-04-10_12h02.31.278,jersey_experiment_5_v0,2023.2.2,Win32,85.47008547,,,,,,,,,,,,,,,,787.5166,788.8106,788.8108,791.8222,return,1.3437,,67.83854167,,,,,,FBP-PT-19.png,0.4,1.2,58,0.5,,,,,,,,,,,,,0,16,16,57,1,,,,,,,,,,,,,,,,,,,,,,,,,,,,
,,,,,SPR24_030,18,F,2024-04-10_12h02.31.278,jersey_experiment_5_v0,2023.2.2,Win32,85.47008547,,,,,,,,,,,,,,,,791.8226,792.8694,792.8695,795.6105,return,0.7591,,20.05208333,,,,,,FBP-RB-17.png,0.35,1.2,31,0.25,,,,,,,,,,,,,0,17,17,30,1,,,,,,,,,,,,,,,,,,,,,,,,,,,,
,,,,,SPR24_030,18,F,2024-04-10_12h02.31.278,jersey_experiment_5_v0,2023.2.2,Win32,85.47008547,,,,,,,,,,,,,,,,795.611,796.6579,796.658,798.8342,return,0.577,,79.42708333,,,,,,FBP-RB-18.png,0.4,1.2,38,0.25,,,,,,,,,,,,,0,18,18,37,1,,,,,,,,,,,,,,,,,,,,,,,,,,,,
,,,,,SPR24_030,18,F,2024-04-10_12h02.31.278,jersey_experiment_5_v0,2023.2.2,Win32,85.47008547,,,,,,,,,,,,,,,,798.8346,800.1285,800.1286,802.552,return,0.5499,,80.72916667,,,,,,FBP-PT-18.png,0.4,1.2,53,0.5,,,,,,,,,,,,,0,19,19,52,1,,,,,,,,,,,,,,,,,,,,,,,,,,,,
,,,,,SPR24_030,18,F,2024-04-10_12h02.31.278,jersey_experiment_5_v0,2023.2.2,Win32,85.47008547,,,,,,,,,,,,,,,,802.5524,803.5993,803.5994,805.2465,return,0.7316,,80.72916667,,,,,,FBP-RB-19.png,0.4,1.2,43,0.25,,,,,,,,,,,,,0,20,20,42,1,,,,,,,,,,,,,,,,,,,,,,,,,,,,
,,,,,SPR24_030,18,F,2024-04-10_12h02.31.278,jersey_experiment_5_v0,2023.2.2,Win32,85.47008547,,,,,,,,,,,,,,,,805.247,806.2936,806.2937,808.011,return,0.6762,,87.5,,,,,,FBP-OG-91.png,0.45,1.2,15,0.25,,,,,,,,,,,,,0,21,21,14,1,,,,,,,,,,,,,,,,,,,,,,,,,,,,
,,,,,SPR24_030,18,F,2024-04-10_12h02.31.278,jersey_experiment_5_v0,2023.2.2,Win32,85.47008547,,,,,,,,,,,,,,,,808.0115,809.059,809.0591,811.6347,return,0.6708,,23.4375,,,,,,FBP-RB-19.png,0.35,1.2,41,0.25,,,,,,,,,,,,,0,22,22,40,1,,,,,,,,,,,,,,,,,,,,,,,,,,,,
,,,,,SPR24_030,18,F,2024-04-10_12h02.31.278,jersey_experiment_5_v0,2023.2.2,Win32,85.47008547,,,,,,,,,,,,,,,,811.6351,812.9292,812.9292,816.1761,return,0.5422,,50.91145833,,,,,,FBP-PT-17.png,0.37,1.2,47,0.5,,,,,,,,,,,,,0,23,23,46,1,,,,,,,,,,,,,,,,,,,,,,,,,,,,
,,,,,SPR24_030,18,F,2024-04-10_12h02.31.278,jersey_experiment_5_v0,2023.2.2,Win32,85.47008547,,,,,,,,,,,,,,,,816.1765,817.4703,817.4705,819.553,return,0.6365,,77.34375,,,,,,FBP-PT-18.png,0.43,1.2,54,0.5,,,,,,,,,,,,,0,24,24,53,1,,,,,,,,,,,,,,,,,,,,,,,,,,,,
,,,,,SPR24_030,18,F,2024-04-10_12h02.31.278,jersey_experiment_5_v0,2023.2.2,Win32,85.47008547,,,,,,,,,,,,,,,,819.5535,820.6003,820.6004,822.8939,return,0.603,,46.74479167,,,,,,FBP-RB-17.png,0.37,1.2,32,0.25,,,,,,,,,,,,,0,25,25,31,1,,,,,,,,,,,,,,,,,,,,,,,,,,,,
,,,,,SPR24_030,18,F,2024-04-10_12h02.31.278,jersey_experiment_5_v0,2023.2.2,Win32,85.47008547,,,,,,,,,,,,,,,,822.8943,824.1883,824.1884,826.7529,return,0.7657,,77.60416667,,,,,,FBP-YG-19.png,0.43,1.2,29,0.5,,,,,,,,,,,,,0,26,26,28,1,,,,,,,,,,,,,,,,,,,,,,,,,,,,
,,,,,SPR24_030,18,F,2024-04-10_12h02.31.278,jersey_experiment_5_v0,2023.2.2,Win32,85.47008547,,,,,,,,,,,,,,,,826.7534,827.8003,827.8004,829.1649,return,0.6626,,85.02604167,,,,,,FBP-RB-18.png,0.43,1.2,39,0.25,,,,,,,,,,,,,0,27,27,38,1,,,,,,,,,,,,,,,,,,,,,,,,,,,,
,,,,,SPR24_030,18,F,2024-04-10_12h02.31.278,jersey_experiment_5_v0,2023.2.2,Win32,85.47008547,,,,,,,,,,,,,,,,829.1652,830.4597,830.4597,832.2239,return,0.7669,,89.32291667,,,,,,FBP-PT-19.png,0.45,1.2,60,0.5,,,,,,,,,,,,,0,28,28,59,1,,,,,,,,,,,,,,,,,,,,,,,,,,,,
,,,,,SPR24_030,18,F,2024-04-10_12h02.31.278,jersey_experiment_5_v0,2023.2.2,Win32,85.47008547,,,,,,,,,,,,,,,,832.2243,833.5193,833.5193,835.2122,return,0.6043,,22.00520833,,,,,,FBP-YG-17.png,0.35,1.2,16,0.5,,,,,,,,,,,,,0,29,29,15,1,,,,,,,,,,,,,,,,,,,,,,,,,,,,
,,,,,SPR24_030,18,F,2024-04-10_12h02.31.278,jersey_experiment_5_v0,2023.2.2,Win32,85.47008547,,,,,,,,,,,,,,,,835.2126,836.5071,836.5072,838.424,return,0.6805,,70.83333333,,,,,,FBP-PT-17.png,0.43,1.2,49,0.5,,,,,,,,,,,,,0,30,30,48,1,,,,,,,,,,,,,,,,,,,,,,,,,,,,
,,,,,SPR24_030,18,F,2024-04-10_12h02.31.278,jersey_experiment_5_v0,2023.2.2,Win32,85.47008547,,,,,,,,,,,,,,,,838.4244,839.472,839.472,842.872,return,2.0465,,91.796875,,,,,,FBP-RB-17.png,0.45,1.2,35,0.25,,,,,,,,,,,,,0,31,31,34,1,,,,,,,,,,,,,,,,,,,,,,,,,,,,
,,,,,SPR24_030,18,F,2024-04-10_12h02.31.278,jersey_experiment_5_v0,2023.2.2,Win32,85.47008547,,,,,,,,,,,,,,,,842.8724,843.9191,843.9193,845.5547,return,0.7762,,93.61979167,,,,,,FBP-OG-71.png,0.45,1.2,5,0.25,,,,,,,,,,,,,0,32,32,4,1,,,,,,,,,,,,,,,,,,,,,,,,,,,,
,,,,,SPR24_030,18,F,2024-04-10_12h02.31.278,jersey_experiment_5_v0,2023.2.2,Win32,85.47008547,,,,,,,,,,,,,,,,845.555,846.6005,846.6006,847.9184,return,0.5792,,95.3125,,,,,,FBP-OG-81.png,0.45,1.2,10,0.25,,,,,,,,,,,,,0,33,33,9,1,,,,,,,,,,,,,,,,,,,,,,,,,,,,
,,,,,SPR24_030,18,F,2024-04-10_12h02.31.278,jersey_experiment_5_v0,2023.2.2,Win32,85.47008547,,,,,,,,,,,,,,,,847.9189,848.9658,848.966,850.9907,return,0.8002,,4.557291667,,,,,,FBP-OG-91.png,0.35,1.2,11,0.25,,,,,,,,,,,,,0,34,34,10,1,,,,,,,,,,,,,,,,,,,,,,,,,,,,
,,,,,SPR24_030,18,F,2024-04-10_12h02.31.278,jersey_experiment_5_v0,2023.2.2,Win32,85.47008547,,,,,,,,,,,,,,,,850.9909,852.2846,852.2846,854.9071,return,1.1481,,78.25520833,,,,,,FBP-YG-19.png,0.45,1.2,30,0.5,,,,,,,,,,,,,0,35,35,29,1,,,,,,,,,,,,,,,,,,,,,,,,,,,,
,,,,,SPR24_030,18,F,2024-04-10_12h02.31.278,jersey_experiment_5_v0,2023.2.2,Win32,85.47008547,,,,,,,,,,,,,,,,854.9076,856.2009,856.2011,858.9545,return,0.5136,,81.38020833,,,,,,FBP-PT-17.png,0.45,1.2,50,0.5,,,,,,,,,,,,,0,36,36,49,1,,,,,,,,,,,,,,,,,,,,,,,,,,,,
,,,,,SPR24_030,18,F,2024-04-10_12h02.31.278,jersey_experiment_5_v0,2023.2.2,Win32,85.47008547,,,,,,,,,,,,,,,,858.9549,860.2486,860.2488,861.9557,return,0.5648,,27.21354167,,,,,,FBP-PT-18.png,0.35,1.2,51,0.5,,,,,,,,,,,,,0,37,37,50,1,,,,,,,,,,,,,,,,,,,,,,,,,,,,
,,,,,SPR24_030,18,F,2024-04-10_12h02.31.278,jersey_experiment_5_v0,2023.2.2,Win32,85.47008547,,,,,,,,,,,,,,,,861.956,863.0017,863.0018,864.8013,return,0.7544,,36.71875,,,,,,FBP-RB-18.png,0.37,1.2,37,0.25,,,,,,,,,,,,,0,38,38,36,1,,,,,,,,,,,,,,,,,,,,,,,,,,,,
,,,,,SPR24_030,18,F,2024-04-10_12h02.31.278,jersey_experiment_5_v0,2023.2.2,Win32,85.47008547,,,,,,,,,,,,,,,,864.8018,866.0959,866.0959,868.5547,return,0.748,,25.91145833,,,,,,FBP-YG-19.png,0.35,1.2,26,0.5,,,,,,,,,,,,,0,39,39,25,1,,,,,,,,,,,,,,,,,,,,,,,,,,,,
,,,,,SPR24_030,18,F,2024-04-10_12h02.31.278,jersey_experiment_5_v0,2023.2.2,Win32,85.47008547,,,,,,,,,,,,,,,,868.5551,869.849,869.8491,871.6253,return,0.5145,,44.40104167,,,,,,FBP-YG-17.png,0.37,1.2,17,0.5,,,,,,,,,,,,,0,40,40,16,1,,,,,,,,,,,,,,,,,,,,,,,,,,,,
,,,,,SPR24_030,18,F,2024-04-10_12h02.31.278,jersey_experiment_5_v0,2023.2.2,Win32,85.47008547,,,,,,,,,,,,,,,,871.6257,872.6727,872.6728,875.1666,return,0.6029,,72.78645833,,,,,,FBP-RB-19.png,0.45,1.2,45,0.25,,,,,,,,,,,,,0,41,41,44,1,,,,,,,,,,,,,,,,,,,,,,,,,,,,
,,,,,SPR24_030,18,F,2024-04-10_12h02.31.278,jersey_experiment_5_v0,2023.2.2,Win32,85.47008547,,,,,,,,,,,,,,,,875.1669,876.2139,876.214,877.5197,return,0.6025,,71.61458333,,,,,,FBP-RB-17.png,0.4,1.2,33,0.25,,,,,,,,,,,,,0,42,42,32,1,,,,,,,,,,,,,,,,,,,,,,,,,,,,
,,,,,SPR24_030,18,F,2024-04-10_12h02.31.278,jersey_experiment_5_v0,2023.2.2,Win32,85.47008547,,,,,,,,,,,,,,,,877.5201,878.814,878.8142,880.4256,return,0.5483,,70.703125,,,,,,FBP-PT-18.png,0.37,1.2,52,0.5,,,,,,,,,,,,,0,43,43,51,1,,,,,,,,,,,,,,,,,,,,,,,,,,,,
,,,,,SPR24_030,18,F,2024-04-10_12h02.31.278,jersey_experiment_5_v0,2023.2.2,Win32,85.47008547,,,,,,,,,,,,,,,,880.4261,881.7202,881.7202,883.2035,return,0.6353,,79.94791667,,,,,,FBP-PT-17.png,0.4,1.2,48,0.5,,,,,,,,,,,,,0,44,44,47,1,,,,,,,,,,,,,,,,,,,,,,,,,,,,
,,,,,SPR24_030,18,F,2024-04-10_12h02.31.278,jersey_experiment_5_v0,2023.2.2,Win32,85.47008547,,,,,,,,,,,,,,,,883.2037,884.4966,884.4967,885.6036,return,0.5639,,79.94791667,,,,,,FBP-YG-17.png,0.4,1.2,18,0.5,,,,,,,,,,,,,0,45,45,17,1,,,,,,,,,,,,,,,,,,,,,,,,,,,,
,,,,,SPR24_030,18,F,2024-04-10_12h02.31.278,jersey_experiment_5_v0,2023.2.2,Win32,85.47008547,,,,,,,,,,,,,,,,885.6039,886.6496,886.6497,889.2261,return,0.5715,,83.33333333,,,,,,FBP-RB-19.png,0.43,1.2,44,0.25,,,,,,,,,,,,,0,46,46,43,1,,,,,,,,,,,,,,,,,,,,,,,,,,,,
,,,,,SPR24_030,18,F,2024-04-10_12h02.31.278,jersey_experiment_5_v0,2023.2.2,Win32,85.47008547,,,,,,,,,,,,,,,,889.2266,890.2733,890.2734,892.285,return,0.605,,28.77604167,,,,,,FBP-OG-81.png,0.37,1.2,7,0.25,,,,,,,,,,,,,0,47,47,6,1,,,,,,,,,,,,,,,,,,,,,,,,,,,,
,,,,,SPR24_030,18,F,2024-04-10_12h02.31.278,jersey_experiment_5_v0,2023.2.2,Win32,85.47008547,,,,,,,,,,,,,,,,892.2857,893.3318,893.3318,897.7676,return,3.092,,33.984375,,,,,,FBP-OG-81.png,0.35,1.2,6,0.25,,,,,,,,,,,,,0,48,48,5,1,,,,,,,,,,,,,,,,,,,,,,,,,,,,
,,,,,SPR24_030,18,F,2024-04-10_12h02.31.278,jersey_experiment_5_v0,2023.2.2,Win32,85.47008547,,,,,,,,,,,,,,,,897.7681,899.0628,899.0629,900.7324,return,0.593,,73.30729167,,,,,,FBP-YG-18.png,0.43,1.2,24,0.5,,,,,,,,,,,,,0,49,49,23,1,,,,,,,,,,,,,,,,,,,,,,,,,,,,
,,,,,SPR24_030,18,F,2024-04-10_12h02.31.278,jersey_experiment_5_v0,2023.2.2,Win32,85.47008547,,,,,,,,,,,,,,,,900.7329,902.0268,902.0268,903.6159,return,0.553,,27.08333333,,,,,,FBP-YG-18.png,0.37,1.2,22,0.5,,,,,,,,,,,,,0,50,50,21,1,,,,,,,,,,,,,,,,,,,,,,,,,,,,
,,,,,SPR24_030,18,F,2024-04-10_12h02.31.278,jersey_experiment_5_v0,2023.2.2,Win32,85.47008547,,,,,,,,,,,,,,,,903.6162,904.9089,904.909,908.1679,return,1.6691,,82.8125,,,,,,FBP-YG-18.png,0.45,1.2,25,0.5,,,,,,,,,,,,,0,51,51,24,1,,,,,,,,,,,,,,,,,,,,,,,,,,,,
,,,,,SPR24_030,18,F,2024-04-10_12h02.31.278,jersey_experiment_5_v0,2023.2.2,Win32,85.47008547,,,,,,,,,,,,,,,,908.1684,909.2152,909.2152,911.4502,return,0.9241,,4.427083333,,,,,,FBP-RB-18.png,0.35,1.2,36,0.25,,,,,,,,,,,,,0,52,52,35,1,,,,,,,,,,,,,,,,,,,,,,,,,,,,
,,,,,SPR24_030,18,F,2024-04-10_12h02.31.278,jersey_experiment_5_v0,2023.2.2,Win32,85.47008547,,,,,,,,,,,,,,,,911.4503,912.4976,912.4978,914.3918,return,0.6691,,76.43229167,,,,,,FBP-OG-71.png,0.43,1.2,4,0.25,,,,,,,,,,,,,0,53,53,3,1,,,,,,,,,,,,,,,,,,,,,,,,,,,,
,,,,,SPR24_030,18,F,2024-04-10_12h02.31.278,jersey_experiment_5_v0,2023.2.2,Win32,85.47008547,,,,,,,,,,,,,,,,914.3922,915.6861,915.6862,918.4273,return,2.1129,,68.09895833,,,,,,FBP-YG-17.png,0.43,1.2,19,0.5,,,,,,,,,,,,,0,54,54,18,1,,,,,,,,,,,,,,,,,,,,,,,,,,,,
,,,,,SPR24_030,18,F,2024-04-10_12h02.31.278,jersey_experiment_5_v0,2023.2.2,Win32,85.47008547,,,,,,,,,,,,,,,,918.4276,919.4744,919.4745,920.8508,return,0.5423,,81.38020833,,,,,,FBP-RB-18.png,0.45,1.2,40,0.25,,,,,,,,,,,,,0,55,55,39,1,,,,,,,,,,,,,,,,,,,,,,,,,,,,
,,,,,SPR24_030,18,F,2024-04-10_12h02.31.278,jersey_experiment_5_v0,2023.2.2,Win32,85.47008547,,,,,,,,,,,,,,,,920.8511,922.1463,922.1463,923.9451,return,0.5975,,51.30208333,,,,,,FBP-YG-19.png,0.4,1.2,28,0.5,,,,,,,,,,,,,0,56,56,27,1,,,,,,,,,,,,,,,,,,,,,,,,,,,,
,,,,,SPR24_030,18,F,2024-04-10_12h02.31.278,jersey_experiment_5_v0,2023.2.2,Win32,85.47008547,,,,,,,,,,,,,,,,923.9454,925.2394,925.2395,926.9569,return,0.6051,,65.49479167,,,,,,FBP-YG-18.png,0.4,1.2,23,0.5,,,,,,,,,,,,,0,57,57,22,1,,,,,,,,,,,,,,,,,,,,,,,,,,,,
,,,,,SPR24_030,18,F,2024-04-10_12h02.31.278,jersey_experiment_5_v0,2023.2.2,Win32,85.47008547,,,,,,,,,,,,,,,,926.9574,928.2513,928.2514,929.8393,return,0.6382,,83.59375,,,,,,FBP-PT-18.png,0.45,1.2,55,0.5,,,,,,,,,,,,,0,58,58,54,1,,,,,,,,,,,,,,,,,,,,,,,,,,,,
,,,,,SPR24_030,18,F,2024-04-10_12h02.31.278,jersey_experiment_5_v0,2023.2.2,Win32,85.47008547,,,,,,,,,,,,,,,,929.8397,930.8865,930.8866,932.3689,return,0.5195,,88.02083333,,,,,,FBP-OG-91.png,0.43,1.2,14,0.25,,,,,,,,,,,,,0,59,59,13,1,,,,,,,,,,,,,,,,,,,,,,,,,,,,
,,,,,SPR24_030,18,F,2024-04-10_12h02.31.278,jersey_experiment_5_v0,2023.2.2,Win32,85.47008547,,,,,,,,,,,,,,,,932.3747,933.675,933.675,935.6164,return,0.5551,,38.15104167,,,,,,FBP-PT-71.png,0.37,1.2,47,0.5,,,,,,,,,,,,,,,,,,0,0,0,46,1,,,,,,,,,,,,,,,,,,,,,,,
,,,,,SPR24_030,18,F,2024-04-10_12h02.31.278,jersey_experiment_5_v0,2023.2.2,Win32,85.47008547,,,,,,,,,,,,,,,,935.617,936.6635,936.6636,938.6061,return,0.7875,,76.69270833,,,,,,FBP-RB-81.png,0.45,1.2,40,0.25,,,,,,,,,,,,,,,,,,0,1,1,39,1,,,,,,,,,,,,,,,,,,,,,,,
,,,,,SPR24_030,18,F,2024-04-10_12h02.31.278,jersey_experiment_5_v0,2023.2.2,Win32,85.47008547,,,,,,,,,,,,,,,,938.6065,939.8995,939.8996,941.0528,return,0.6111,,80.98958333,,,,,,FBP-YG-81.png,0.43,1.2,24,0.5,,,,,,,,,,,,,,,,,,0,2,2,23,1,,,,,,,,,,,,,,,,,,,,,,,
,,,,,SPR24_030,18,F,2024-04-10_12h02.31.278,jersey_experiment_5_v0,2023.2.2,Win32,85.47008547,,,,,,,,,,,,,,,,941.053,942.3458,942.3459,946.3236,return,2.3051,,35.67708333,,,,,,FBP-PT-71.png,0.35,1.2,46,0.5,,,,,,,,,,,,,,,,,,0,3,3,45,1,,,,,,,,,,,,,,,,,,,,,,,
,,,,,SPR24_030,18,F,2024-04-10_12h02.31.278,jersey_experiment_5_v0,2023.2.2,Win32,85.47008547,,,,,,,,,,,,,,,,946.3239,947.3696,947.3697,949.3224,return,0.7477,,77.86458333,,,,,,FBP-RB-71.png,0.43,1.2,34,0.25,,,,,,,,,,,,,,,,,,0,4,4,33,1,,,,,,,,,,,,,,,,,,,,,,,
,,,,,SPR24_030,18,F,2024-04-10_12h02.31.278,jersey_experiment_5_v0,2023.2.2,Win32,85.47008547,,,,,,,,,,,,,,,,949.3229,950.6175,950.6177,952.2166,return,0.7142,,27.734375,,,,,,FBP-PT-81.png,0.35,1.2,51,0.5,,,,,,,,,,,,,,,,,,0,5,5,50,1,,,,,,,,,,,,,,,,,,,,,,,
,,,,,SPR24_030,18,F,2024-04-10_12h02.31.278,jersey_experiment_5_v0,2023.2.2,Win32,85.47008547,,,,,,,,,,,,,,,,952.2171,953.264,953.2641,957.2286,return,2.3567,,83.85416667,,,,,,FBP-OG-18.png,0.45,1.2,10,0.25,,,,,,,,,,,,,,,,,,0,6,6,9,1,,,,,,,,,,,,,,,,,,,,,,,
,,,,,SPR24_030,18,F,2024-04-10_12h02.31.278,jersey_experiment_5_v0,2023.2.2,Win32,85.47008547,,,,,,,,,,,,,,,,957.2291,958.2759,958.276,960.5581,return,0.5911,,18.75,,,,,,FBP-RB-81.png,0.35,1.2,36,0.25,,,,,,,,,,,,,,,,,,0,7,7,35,1,,,,,,,,,,,,,,,,,,,,,,,
,,,,,SPR24_030,18,F,2024-04-10_12h02.31.278,jersey_experiment_5_v0,2023.2.2,Win32,85.47008547,,,,,,,,,,,,,,,,960.5586,961.8525,961.8525,964.617,return,0.8779,,81.11979167,,,,,,FBP-PT-71.png,0.45,1.2,50,0.5,,,,,,,,,,,,,,,,,,0,8,8,49,1,,,,,,,,,,,,,,,,,,,,,,,
,,,,,SPR24_030,18,F,2024-04-10_12h02.31.278,jersey_experiment_5_v0,2023.2.2,Win32,85.47008547,,,,,,,,,,,,,,,,964.6175,965.6645,965.6646,967.8996,return,0.6171,,85.67708333,,,,,,FBP-RB-91.png,0.45,1.2,45,0.25,,,,,,,,,,,,,,,,,,0,9,9,44,1,,,,,,,,,,,,,,,,,,,,,,,
,,,,,SPR24_030,18,F,2024-04-10_12h02.31.278,jersey_experiment_5_v0,2023.2.2,Win32,85.47008547,,,,,,,,,,,,,,,,967.9,968.9469,968.947,970.3467,return,0.6533,,89.19270833,,,,,,FBP-OG-19.png,0.45,1.2,15,0.25,,,,,,,,,,,,,,,,,,0,10,10,14,1,,,,,,,,,,,,,,,,,,,,,,,
,,,,,SPR24_030,18,F,2024-04-10_12h02.31.278,jersey_experiment_5_v0,2023.2.2,Win32,85.47008547,,,,,,,,,,,,,,,,970.3472,971.394,971.394,974.9704,return,1.677,,28.77604167,,,,,,FBP-OG-18.png,0.37,1.2,7,0.25,,,,,,,,,,,,,,,,,,0,11,11,6,1,,,,,,,,,,,,,,,,,,,,,,,
,,,,,SPR24_030,18,F,2024-04-10_12h02.31.278,jersey_experiment_5_v0,2023.2.2,Win32,85.47008547,,,,,,,,,,,,,,,,974.9709,976.2654,976.2656,978.4412,return,0.5604,,58.203125,,,,,,FBP-PT-81.png,0.4,1.2,53,0.5,,,,,,,,,,,,,,,,,,0,12,12,52,1,,,,,,,,,,,,,,,,,,,,,,,
,,,,,SPR24_030,18,F,2024-04-10_12h02.31.278,jersey_experiment_5_v0,2023.2.2,Win32,85.47008547,,,,,,,,,,,,,,,,978.4416,979.7355,979.7356,982.4178,return,0.8479,,79.16666667,,,,,,FBP-PT-81.png,0.43,1.2,54,0.5,,,,,,,,,,,,,,,,,,0,13,13,53,1,,,,,,,,,,,,,,,,,,,,,,,
,,,,,SPR24_030,18,F,2024-04-10_12h02.31.278,jersey_experiment_5_v0,2023.2.2,Win32,85.47008547,,,,,,,,,,,,,,,,982.4183,983.4651,983.4652,985.4533,return,0.5566,,82.55208333,,,,,,FBP-OG-17.png,0.43,1.2,4,0.25,,,,,,,,,,,,,,,,,,0,14,14,3,1,,,,,,,,,,,,,,,,,,,,,,,
,,,,,SPR24_030,18,F,2024-04-10_12h02.31.278,jersey_experiment_5_v0,2023.2.2,Win32,85.47008547,,,,,,,,,,,,,,,,985.4537,986.5008,986.5009,988.9357,return,0.5387,,78.25520833,,,,,,FBP-OG-18.png,0.4,1.2,8,0.25,,,,,,,,,,,,,,,,,,0,15,15,7,1,,,,,,,,,,,,,,,,,,,,,,,
,,,,,SPR24_030,18,F,2024-04-10_12h02.31.278,jersey_experiment_5_v0,2023.2.2,Win32,85.47008547,,,,,,,,,,,,,,,,988.9362,990.2301,990.2301,991.9358,return,0.6013,,27.21354167,,,,,,FBP-YG-91.png,0.35,1.2,26,0.5,,,,,,,,,,,,,,,,,,0,16,16,25,1,,,,,,,,,,,,,,,,,,,,,,,
,,,,,SPR24_030,18,F,2024-04-10_12h02.31.278,jersey_experiment_5_v0,2023.2.2,Win32,85.47008547,,,,,,,,,,,,,,,,991.9362,992.983,992.9832,994.4889,return,0.5963,,32.94270833,,,,,,FBP-RB-71.png,0.35,1.2,31,0.25,,,,,,,,,,,,,,,,,,0,17,17,30,1,,,,,,,,,,,,,,,,,,,,,,,
,,,,,SPR24_030,18,F,2024-04-10_12h02.31.278,jersey_experiment_5_v0,2023.2.2,Win32,85.47008547,,,,,,,,,,,,,,,,994.4894,995.7832,995.7833,997.6655,return,0.5424,,78.90625,,,,,,FBP-YG-81.png,0.45,1.2,25,0.5,,,,,,,,,,,,,,,,,,0,18,18,24,1,,,,,,,,,,,,,,,,,,,,,,,
,,,,,SPR24_030,18,F,2024-04-10_12h02.31.278,jersey_experiment_5_v0,2023.2.2,Win32,85.47008547,,,,,,,,,,,,,,,,997.6659,998.7127,998.7128,1001.5362,return,0.7774,,40.234375,,,,,,FBP-RB-81.png,0.37,1.2,37,0.25,,,,,,,,,,,,,,,,,,0,19,19,36,1,,,,,,,,,,,,,,,,,,,,,,,
,,,,,SPR24_030,18,F,2024-04-10_12h02.31.278,jersey_experiment_5_v0,2023.2.2,Win32,85.47008547,,,,,,,,,,,,,,,,1001.5366,1002.8306,1002.8306,1004.7482,return,0.5583,,86.58854167,,,,,,FBP-PT-91.png,0.43,1.2,59,0.5,,,,,,,,,,,,,,,,,,0,20,20,58,1,,,,,,,,,,,,,,,,,,,,,,,
,,,,,SPR24_030,18,F,2024-04-10_12h02.31.278,jersey_experiment_5_v0,2023.2.2,Win32,85.47008547,,,,,,,,,,,,,,,,1004.7486,1005.7954,1005.7955,1007.8424,return,0.5889,,21.61458333,,,,,,FBP-RB-71.png,0.37,1.2,32,0.25,,,,,,,,,,,,,,,,,,0,21,21,31,1,,,,,,,,,,,,,,,,,,,,,,,
,,,,,SPR24_030,18,F,2024-04-10_12h02.31.278,jersey_experiment_5_v0,2023.2.2,Win32,85.47008547,,,,,,,,,,,,,,,,1007.8428,1009.1365,1009.1365,1010.6908,return,0.5765,,80.72916667,,,,,,FBP-YG-91.png,0.45,1.2,30,0.5,,,,,,,,,,,,,,,,,,0,22,22,29,1,,,,,,,,,,,,,,,,,,,,,,,
,,,,,SPR24_030,18,F,2024-04-10_12h02.31.278,jersey_experiment_5_v0,2023.2.2,Win32,85.47008547,,,,,,,,,,,,,,,,1010.691,1011.984,1011.9841,1014.6544,return,0.5919,,51.953125,,,,,,FBP-PT-91.png,0.37,1.2,57,0.5,,,,,,,,,,,,,,,,,,0,23,23,56,1,,,,,,,,,,,,,,,,,,,,,,,
,,,,,SPR24_030,18,F,2024-04-10_12h02.31.278,jersey_experiment_5_v0,2023.2.2,Win32,85.47008547,,,,,,,,,,,,,,,,1014.655,1015.7018,1015.7018,1019.7723,return,0.5473,,76.69270833,,,,,,FBP-OG-18.png,0.43,1.2,9,0.25,,,,,,,,,,,,,,,,,,0,24,24,8,1,,,,,,,,,,,,,,,,,,,,,,,
,,,,,SPR24_030,18,F,2024-04-10_12h02.31.278,jersey_experiment_5_v0,2023.2.2,Win32,85.47008547,,,,,,,,,,,,,,,,1019.7727,1021.0666,1021.0668,1022.2076,return,0.5552,,76.953125,,,,,,FBP-PT-71.png,0.4,1.2,48,0.5,,,,,,,,,,,,,,,,,,0,25,25,47,1,,,,,,,,,,,,,,,,,,,,,,,
,,,,,SPR24_030,18,F,2024-04-10_12h02.31.278,jersey_experiment_5_v0,2023.2.2,Win32,85.47008547,,,,,,,,,,,,,,,,1022.208,1023.255,1023.2551,1025.5489,return,0.5702,,47.265625,,,,,,FBP-RB-91.png,0.35,1.2,41,0.25,,,,,,,,,,,,,,,,,,0,26,26,40,1,,,,,,,,,,,,,,,,,,,,,,,
,,,,,SPR24_030,18,F,2024-04-10_12h02.31.278,jersey_experiment_5_v0,2023.2.2,Win32,85.47008547,,,,,,,,,,,,,,,,1025.5491,1026.8445,1026.8446,1029.903,return,0.5526,,76.82291667,,,,,,FBP-PT-71.png,0.43,1.2,49,0.5,,,,,,,,,,,,,,,,,,0,27,27,48,1,,,,,,,,,,,,,,,,,,,,,,,
,,,,,SPR24_030,18,F,2024-04-10_12h02.31.278,jersey_experiment_5_v0,2023.2.2,Win32,85.47008547,,,,,,,,,,,,,,,,1029.9032,1030.9493,1030.9494,1032.2318,return,0.5517,,77.60416667,,,,,,FBP-OG-19.png,0.4,1.2,13,0.25,,,,,,,,,,,,,,,,,,0,28,28,12,1,,,,,,,,,,,,,,,,,,,,,,,
,,,,,SPR24_030,18,F,2024-04-10_12h02.31.278,jersey_experiment_5_v0,2023.2.2,Win32,85.47008547,,,,,,,,,,,,,,,,1032.2322,1033.2789,1033.279,1035.233,return,1.0121,,60.80729167,,,,,,FBP-RB-91.png,0.37,1.2,42,0.25,,,,,,,,,,,,,,,,,,0,29,29,41,1,,,,,,,,,,,,,,,,,,,,,,,
,,,,,SPR24_030,18,F,2024-04-10_12h02.31.278,jersey_experiment_5_v0,2023.2.2,Win32,85.47008547,,,,,,,,,,,,,,,,1035.2331,1036.279,1036.2791,1039.6094,return,2.1059,,85.41666667,,,,,,FBP-RB-71.png,0.45,1.2,35,0.25,,,,,,,,,,,,,,,,,,0,30,30,34,1,,,,,,,,,,,,,,,,,,,,,,,
,,,,,SPR24_030,18,F,2024-04-10_12h02.31.278,jersey_experiment_5_v0,2023.2.2,Win32,85.47008547,,,,,,,,,,,,,,,,1039.6096,1040.9028,1040.9029,1043.9507,return,0.541,,79.94791667,,,,,,FBP-YG-81.png,0.4,1.2,23,0.5,,,,,,,,,,,,,,,,,,0,31,31,22,1,,,,,,,,,,,,,,,,,,,,,,,
,,,,,SPR24_030,18,F,2024-04-10_12h02.31.278,jersey_experiment_5_v0,2023.2.2,Win32,85.47008547,,,,,,,,,,,,,,,,1043.951,1045.2441,1045.2442,1046.691,return,0.5661,,84.375,,,,,,FBP-PT-91.png,0.4,1.2,58,0.5,,,,,,,,,,,,,,,,,,0,32,32,57,1,,,,,,,,,,,,,,,,,,,,,,,
,,,,,SPR24_030,18,F,2024-04-10_12h02.31.278,jersey_experiment_5_v0,2023.2.2,Win32,85.47008547,,,,,,,,,,,,,,,,1046.6914,1047.7383,1047.7385,1051.8088,return,2.6019,,54.16666667,,,,,,FBP-OG-18.png,0.35,1.2,6,0.25,,,,,,,,,,,,,,,,,,0,33,33,5,1,,,,,,,,,,,,,,,,,,,,,,,
,,,,,SPR24_030,18,F,2024-04-10_12h02.31.278,jersey_experiment_5_v0,2023.2.2,Win32,85.47008547,,,,,,,,,,,,,,,,1051.8093,1053.1032,1053.1032,1055.1502,return,0.604,,57.16145833,,,,,,FBP-PT-81.png,0.37,1.2,52,0.5,,,,,,,,,,,,,,,,,,0,34,34,51,1,,,,,,,,,,,,,,,,,,,,,,,
,,,,,SPR24_030,18,F,2024-04-10_12h02.31.278,jersey_experiment_5_v0,2023.2.2,Win32,85.47008547,,,,,,,,,,,,,,,,1055.1506,1056.4447,1056.4448,1058.5869,return,1.0228,,80.078125,,,,,,FBP-YG-71.png,0.43,1.2,19,0.5,,,,,,,,,,,,,,,,,,0,35,35,18,1,,,,,,,,,,,,,,,,,,,,,,,
,,,,,SPR24_030,18,F,2024-04-10_12h02.31.278,jersey_experiment_5_v0,2023.2.2,Win32,85.47008547,,,,,,,,,,,,,,,,1058.587,1059.6334,1059.6335,1061.915,return,1.2888,,47.265625,,,,,,FBP-OG-19.png,0.37,1.2,12,0.25,,,,,,,,,,,,,,,,,,0,36,36,11,1,,,,,,,,,,,,,,,,,,,,,,,
,,,,,SPR24_030,18,F,2024-04-10_12h02.31.278,jersey_experiment_5_v0,2023.2.2,Win32,85.47008547,,,,,,,,,,,,,,,,1061.9155,1063.2106,1063.2107,1064.446,return,0.6119,,52.99479167,,,,,,FBP-YG-71.png,0.37,1.2,17,0.5,,,,,,,,,,,,,,,,,,0,37,37,16,1,,,,,,,,,,,,,,,,,,,,,,,
,,,,,SPR24_030,18,F,2024-04-10_12h02.31.278,jersey_experiment_5_v0,2023.2.2,Win32,85.47008547,,,,,,,,,,,,,,,,1064.4462,1065.739,1065.739,1067.74,return,1.1415,,84.63541667,,,,,,FBP-YG-71.png,0.45,1.2,20,0.5,,,,,,,,,,,,,,,,,,0,38,38,19,1,,,,,,,,,,,,,,,,,,,,,,,
,,,,,SPR24_030,18,F,2024-04-10_12h02.31.278,jersey_experiment_5_v0,2023.2.2,Win32,85.47008547,,,,,,,,,,,,,,,,1067.7403,1068.7862,1068.7863,1070.6327,return,0.5617,,89.453125,,,,,,FBP-OG-17.png,0.45,1.2,5,0.25,,,,,,,,,,,,,,,,,,0,39,39,4,1,,,,,,,,,,,,,,,,,,,,,,,
,,,,,SPR24_030,18,F,2024-04-10_12h02.31.278,jersey_experiment_5_v0,2023.2.2,Win32,85.47008547,,,,,,,,,,,,,,,,1070.6329,1071.6804,1071.6805,1074.7627,return,0.6431,,50.65104167,,,,,,FBP-OG-19.png,0.35,1.2,11,0.25,,,,,,,,,,,,,,,,,,0,40,40,10,1,,,,,,,,,,,,,,,,,,,,,,,
,,,,,SPR24_030,18,F,2024-04-10_12h02.31.278,jersey_experiment_5_v0,2023.2.2,Win32,85.47008547,,,,,,,,,,,,,,,,1074.763,1075.8101,1075.8101,1079.704,return,2.5628,,61.58854167,,,,,,FBP-RB-91.png,0.4,1.2,43,0.25,,,,,,,,,,,,,,,,,,0,41,41,42,1,,,,,,,,,,,,,,,,,,,,,,,
,,,,,SPR24_030,18,F,2024-04-10_12h02.31.278,jersey_experiment_5_v0,2023.2.2,Win32,85.47008547,,,,,,,,,,,,,,,,1079.708,1081.01,1081.0101,1084.81,return,2.0083,,91.796875,,,,,,FBP-PT-91.png,0.45,1.2,60,0.5,,,,,,,,,,,,,,,,,,0,42,42,59,1,,,,,,,,,,,,,,,,,,,,,,,
,,,,,SPR24_030,18,F,2024-04-10_12h02.31.278,jersey_experiment_5_v0,2023.2.2,Win32,85.47008547,,,,,,,,,,,,,,,,1084.8105,1086.1045,1086.1045,1087.8335,return,0.4906,,81.640625,,,,,,FBP-YG-71.png,0.4,1.2,18,0.5,,,,,,,,,,,,,,,,,,0,43,43,17,1,,,,,,,,,,,,,,,,,,,,,,,
,,,,,SPR24_030,18,F,2024-04-10_12h02.31.278,jersey_experiment_5_v0,2023.2.2,Win32,85.47008547,,,,,,,,,,,,,,,,1087.834,1089.1291,1089.1291,1091.3752,return,0.7209,,48.69791667,,,,,,FBP-YG-71.png,0.35,1.2,16,0.5,,,,,,,,,,,,,,,,,,0,44,44,15,1,,,,,,,,,,,,,,,,,,,,,,,
,,,,,SPR24_030,18,F,2024-04-10_12h02.31.278,jersey_experiment_5_v0,2023.2.2,Win32,85.47008547,,,,,,,,,,,,,,,,1091.3756,1092.6692,1092.6692,1094.6575,return,0.6008,,55.98958333,,,,,,FBP-YG-91.png,0.37,1.2,27,0.5,,,,,,,,,,,,,,,,,,0,45,45,26,1,,,,,,,,,,,,,,,,,,,,,,,
,,,,,SPR24_030,18,F,2024-04-10_12h02.31.278,jersey_experiment_5_v0,2023.2.2,Win32,85.47008547,,,,,,,,,,,,,,,,1094.658,1095.9517,1095.9517,1097.5517,return,0.5788,,56.25,,,,,,FBP-YG-81.png,0.37,1.2,22,0.5,,,,,,,,,,,,,,,,,,0,46,46,21,1,,,,,,,,,,,,,,,,,,,,,,,
,,,,,SPR24_030,18,F,2024-04-10_12h02.31.278,jersey_experiment_5_v0,2023.2.2,Win32,85.47008547,,,,,,,,,,,,,,,,1097.5518,1098.8461,1098.8462,1100.7637,return,0.6067,,81.25,,,,,,FBP-YG-91.png,0.43,1.2,29,0.5,,,,,,,,,,,,,,,,,,0,47,47,28,1,,,,,,,,,,,,,,,,,,,,,,,
,,,,,SPR24_030,18,F,2024-04-10_12h02.31.278,jersey_experiment_5_v0,2023.2.2,Win32,85.47008547,,,,,,,,,,,,,,,,1100.7639,1101.8109,1101.811,1103.5284,return,0.5622,,57.8125,,,,,,FBP-OG-17.png,0.4,1.2,3,0.25,,,,,,,,,,,,,,,,,,0,48,48,2,1,,,,,,,,,,,,,,,,,,,,,,,
,,,,,SPR24_030,18,F,2024-04-10_12h02.31.278,jersey_experiment_5_v0,2023.2.2,Win32,85.47008547,,,,,,,,,,,,,,,,1103.5285,1104.5757,1104.5758,1108.4934,return,2.6642,,92.70833333,,,,,,FBP-RB-91.png,0.43,1.2,44,0.25,,,,,,,,,,,,,,,,,,0,49,49,43,1,,,,,,,,,,,,,,,,,,,,,,,
,,,,,SPR24_030,18,F,2024-04-10_12h02.31.278,jersey_experiment_5_v0,2023.2.2,Win32,85.47008547,,,,,,,,,,,,,,,,1108.4938,1109.7876,1109.7877,1112.4359,return,1.0471,,27.21354167,,,,,,FBP-PT-91.png,0.35,1.2,56,0.5,,,,,,,,,,,,,,,,,,0,50,50,55,1,,,,,,,,,,,,,,,,,,,,,,,
,,,,,SPR24_030,18,F,2024-04-10_12h02.31.278,jersey_experiment_5_v0,2023.2.2,Win32,85.47008547,,,,,,,,,,,,,,,,1112.4361,1113.482,1113.4821,1115.2583,return,0.5717,,76.82291667,,,,,,FBP-RB-71.png,0.4,1.2,33,0.25,,,,,,,,,,,,,,,,,,0,51,51,32,1,,,,,,,,,,,,,,,,,,,,,,,
,,,,,SPR24_030,18,F,2024-04-10_12h02.31.278,jersey_experiment_5_v0,2023.2.2,Win32,85.47008547,,,,,,,,,,,,,,,,1115.2587,1116.3057,1116.3057,1120.8952,return,3.5641,,57.03125,,,,,,FBP-OG-19.png,0.43,1.2,14,0.25,,,,,,,,,,,,,,,,,,0,52,52,13,1,,,,,,,,,,,,,,,,,,,,,,,
,,,,,SPR24_030,18,F,2024-04-10_12h02.31.278,jersey_experiment_5_v0,2023.2.2,Win32,85.47008547,,,,,,,,,,,,,,,,1120.8954,1121.941,1121.9412,1124.0587,return,0.6538,,64.453125,,,,,,FBP-RB-81.png,0.4,1.2,38,0.25,,,,,,,,,,,,,,,,,,0,53,53,37,1,,,,,,,,,,,,,,,,,,,,,,,
,,,,,SPR24_030,18,F,2024-04-10_12h02.31.278,jersey_experiment_5_v0,2023.2.2,Win32,85.47008547,,,,,,,,,,,,,,,,1124.0591,1125.1061,1125.1061,1127.3307,return,0.6472,,81.640625,,,,,,FBP-RB-81.png,0.43,1.2,39,0.25,,,,,,,,,,,,,,,,,,0,54,54,38,1,,,,,,,,,,,,,,,,,,,,,,,
,,,,,SPR24_030,18,F,2024-04-10_12h02.31.278,jersey_experiment_5_v0,2023.2.2,Win32,85.47008547,,,,,,,,,,,,,,,,1127.3309,1128.3767,1128.3768,1132.9414,return,2.6041,,40.234375,,,,,,FBP-OG-17.png,0.35,1.2,1,0.25,,,,,,,,,,,,,,,,,,0,55,55,0,1,,,,,,,,,,,,,,,,,,,,,,,
,,,,,SPR24_030,18,F,2024-04-10_12h02.31.278,jersey_experiment_5_v0,2023.2.2,Win32,85.47008547,,,,,,,,,,,,,,,,1132.9417,1134.2357,1134.2357,1135.8002,return,0.6676,,29.16666667,,,,,,FBP-YG-81.png,0.35,1.2,21,0.5,,,,,,,,,,,,,,,,,,0,56,56,20,1,,,,,,,,,,,,,,,,,,,,,,,
,,,,,SPR24_030,18,F,2024-04-10_12h02.31.278,jersey_experiment_5_v0,2023.2.2,Win32,85.47008547,,,,,,,,,,,,,,,,1135.8007,1136.8472,1136.8472,1138.7073,return,0.6118,,53.25520833,,,,,,FBP-OG-17.png,0.37,1.2,2,0.25,,,,,,,,,,,,,,,,,,0,57,57,1,1,,,,,,,,,,,,,,,,,,,,,,,
,,,,,SPR24_030,18,F,2024-04-10_12h02.31.278,jersey_experiment_5_v0,2023.2.2,Win32,85.47008547,,,,,,,,,,,,,,,,1138.7074,1140.0007,1140.0008,1142.0125,return,0.6416,,65.49479167,,,,,,FBP-YG-91.png,0.4,1.2,28,0.5,,,,,,,,,,,,,,,,,,0,58,58,27,1,,,,,,,,,,,,,,,,,,,,,,,
,,,,,SPR24_030,18,F,2024-04-10_12h02.31.278,jersey_experiment_5_v0,2023.2.2,Win32,85.47008547,,,,,,,,,,,,,,,,1142.0133,1143.3077,1143.3077,1146.4241,return,2.386,,82.94270833,,,,,,FBP-PT-81.png,0.45,1.2,55,0.5,,,,,,,,,,,,,,,,,,0,59,59,54,1,,,,,,,,,,,,,,,,,,,,,,,
,,,,,SPR24_030,18,F,2024-04-10_12h02.31.278,jersey_experiment_5_v0,2023.2.2,Win32,85.47008547,,,,,,,,,,,,,,,,,,,,,,,,,,,,,,,,,,,,,,,,,,,,,,,,,,,,,,,,1146.4243,1152.884,return,6.4365,,,,,,,,,,,,,,,,,,,
,,,,,SPR24_030,18,F,2024-04-10_12h02.31.278,jersey_experiment_5_v0,2023.2.2,Win32,85.47008547,,,,,,,,,,,,,,,,,,,,,,,,,,,,,,,,,,,,,,,,,,,,,,,,,,,,,,,,,,,,,1152.8842,1158.4247,1,2.6741,return,2.8442,,,,,,,,,,,,
,,,,,SPR24_030,18,F,2024-04-10_12h02.31.278,jersey_experiment_5_v0,2023.2.2,Win32,85.47008547,,,,,,,,,,,,,,,,,,,,,,,,,,,,,,,,,,,,,,,,,,,,,,,,,,,,,,,,,,,,,,,,,,,,1158.4247,1328.5338,"I noticed that there would be a series of slim/husky players in a row, then a random pop up of the opposite body type. I think the study could be about perceiving body types differently after comparing them to another. ",right,159.5642,,,,,,
,,,,,SPR24_030,18,F,2024-04-10_12h02.31.278,jersey_experiment_5_v0,2023.2.2,Win32,85.47008547,,,,,,,,,,,,,,,,,,,,,,,,,,,,,,,,,,,,,,,,,,,,,,,,,,,,,,,,,,,,,,,,,,,,,,,,,,1328.5339,1331.1846,return,2.6378,