requirements.started,requirements.stopped,key_resp_3.keys,key_resp_3.rt,key_resp_3.duration,Subject ID,Age,Gender,date,expName,psychopyVersion,OS,frameRate,instructions1.started,instructions1.stopped,key_resp.keys,key_resp.rt,key_resp.duration,example.started,example.stopped,enter_2.keys,enter_2.rt,enter_2.duration,instructions2.started,instructions2.stopped,enter_3.keys,enter_3.rt,enter_3.duration,image.started,image.stopped,slider_2.started,slider_2.stopped,next.keys,next.rt,next.duration,slider.response,trial_block_1.thisRepN,trial_block_1.thisTrialN,trial_block_1.thisN,trial_block_1.thisIndex,trial_block_1.ran,Path,Width,Height,Index,Duration,trial_block_2.thisRepN,trial_block_2.thisTrialN,trial_block_2.thisN,trial_block_2.thisIndex,trial_block_2.ran,rest_break.started,rest_break.stopped,end_break.started,end_break.stopped,key_resp_5.keys,key_resp_5.rt,key_resp_5.duration,trial_block_3.thisRepN,trial_block_3.thisTrialN,trial_block_3.thisN,trial_block_3.thisIndex,trial_block_3.ran,trial_block_4.thisRepN,trial_block_4.thisTrialN,trial_block_4.thisN,trial_block_4.thisIndex,trial_block_4.ran,questions_intro.started,questions_intro.stopped,enter_12.keys,enter_12.rt,enter_12.duration,question2.started,question2.stopped,question_doingbest.response,question_doingbest.rt,enter_15.keys,enter_15.rt,enter_15.duration,pattern.started,pattern.stopped,pattern_2.text,enter_17.keys,enter_17.rt,enter_17.duration,thankyou.started,thankyou.stopped,enter_14.keys,enter_14.rt,enter_14.duration
1E-04,10.1732,return,10.1655,,SPR24_090,20,female,2024-04-24_17h00.38.742,jersey_experiment_5_v0,2023.2.2,Win32,85.47008547,,,,,,,,,,,,,,,,,,,,,,,,,,,,,,,,,,,,,,,,,,,,,,,,,,,,,,,,,,,,,,,,,,,,,,,,,,,,,,
,,,,,SPR24_090,20,female,2024-04-24_17h00.38.742,jersey_experiment_5_v0,2023.2.2,Win32,85.47008547,10.1733,19.5499,return,9.3685,,,,,,,,,,,,,,,,,,,,,,,,,,,,,,,,,,,,,,,,,,,,,,,,,,,,,,,,,,,,,,,,,,,,,,,,,,
,,,,,SPR24_090,20,female,2024-04-24_17h00.38.742,jersey_experiment_5_v0,2023.2.2,Win32,85.47008547,,,,,,19.5499,24.1146,return,4.5271,,,,,,,,,,,,,,,,,,,,,,,,,,,,,,,,,,,,,,,,,,,,,,,,,,,,,,,,,,,,,,,,,,,,,
,,,,,SPR24_090,20,female,2024-04-24_17h00.38.742,jersey_experiment_5_v0,2023.2.2,Win32,85.47008547,,,,,,,,,,,24.1147,49.2335,return,25.1058,,,,,,,,,,,,,,,,,,,,,,,,,,,,,,,,,,,,,,,,,,,,,,,,,,,,,,,,,,,,,,,,
,,,,,SPR24_090,20,female,2024-04-24_17h00.38.742,jersey_experiment_5_v0,2023.2.2,Win32,85.47008547,,,,,,,,,,,,,,,,49.2398,50.5389,50.5389,58.9157,return,2.4335,,74.34895833,0,0,0,3,1,FBP-OG-71.png,0.43,1.2,4,0.5,,,,,,,,,,,,,,,,,,,,,,,,,,,,,,,,,,,,,,,,,,,,,
,,,,,SPR24_090,20,female,2024-04-24_17h00.38.742,jersey_experiment_5_v0,2023.2.2,Win32,85.47008547,,,,,,,,,,,,,,,,58.916,60.2098,60.2099,66.5278,return,3.9441,,24.86979167,0,1,1,1,1,FBP-OG-71.png,0.37,1.2,2,0.5,,,,,,,,,,,,,,,,,,,,,,,,,,,,,,,,,,,,,,,,,,,,,
,,,,,SPR24_090,20,female,2024-04-24_17h00.38.742,jersey_experiment_5_v0,2023.2.2,Win32,85.47008547,,,,,,,,,,,,,,,,66.5319,67.5748,67.5748,72.2102,return,2.8236,,25.390625,0,2,2,16,1,FBP-YG-17.png,0.37,1.2,17,0.25,,,,,,,,,,,,,,,,,,,,,,,,,,,,,,,,,,,,,,,,,,,,,
,,,,,SPR24_090,20,female,2024-04-24_17h00.38.742,jersey_experiment_5_v0,2023.2.2,Win32,85.47008547,,,,,,,,,,,,,,,,72.2104,73.5044,73.5044,77.2341,return,2.5313,,25.65104167,0,3,3,40,1,FBP-RB-19.png,0.35,1.2,41,0.5,,,,,,,,,,,,,,,,,,,,,,,,,,,,,,,,,,,,,,,,,,,,,
,,,,,SPR24_090,20,female,2024-04-24_17h00.38.742,jersey_experiment_5_v0,2023.2.2,Win32,85.47008547,,,,,,,,,,,,,,,,77.2344,78.5281,78.5281,81.0341,return,0.7939,,75.13020833,0,4,4,30,1,FBP-RB-17.png,0.35,1.2,31,0.5,,,,,,,,,,,,,,,,,,,,,,,,,,,,,,,,,,,,,,,,,,,,,
,,,,,SPR24_090,20,female,2024-04-24_17h00.38.742,jersey_experiment_5_v0,2023.2.2,Win32,85.47008547,,,,,,,,,,,,,,,,81.0342,82.0812,82.0813,85.2931,return,1.2143,,99.609375,0,5,5,23,1,FBP-YG-18.png,0.43,1.2,24,0.25,,,,,,,,,,,,,,,,,,,,,,,,,,,,,,,,,,,,,,,,,,,,,
,,,,,SPR24_090,20,female,2024-04-24_17h00.38.742,jersey_experiment_5_v0,2023.2.2,Win32,85.47008547,,,,,,,,,,,,,,,,85.2933,86.3402,86.3402,88.1166,return,0.9412,,99.609375,0,6,6,22,1,FBP-YG-18.png,0.4,1.2,23,0.25,,,,,,,,,,,,,,,,,,,,,,,,,,,,,,,,,,,,,,,,,,,,,
,,,,,SPR24_090,20,female,2024-04-24_17h00.38.742,jersey_experiment_5_v0,2023.2.2,Win32,85.47008547,,,,,,,,,,,,,,,,88.1168,89.4109,89.4109,90.5757,return,0.6495,,99.609375,0,7,7,13,1,FBP-OG-91.png,0.43,1.2,14,0.5,,,,,,,,,,,,,,,,,,,,,,,,,,,,,,,,,,,,,,,,,,,,,
,,,,,SPR24_090,20,female,2024-04-24_17h00.38.742,jersey_experiment_5_v0,2023.2.2,Win32,85.47008547,,,,,,,,,,,,,,,,90.5758,91.8697,91.8697,92.9874,return,0.5713,,99.609375,0,8,8,34,1,FBP-RB-17.png,0.45,1.2,35,0.5,,,,,,,,,,,,,,,,,,,,,,,,,,,,,,,,,,,,,,,,,,,,,
,,,,,SPR24_090,20,female,2024-04-24_17h00.38.742,jersey_experiment_5_v0,2023.2.2,Win32,85.47008547,,,,,,,,,,,,,,,,92.9875,94.2817,94.2818,96.9641,return,1.563,,74.609375,0,9,9,11,1,FBP-OG-91.png,0.37,1.2,12,0.5,,,,,,,,,,,,,,,,,,,,,,,,,,,,,,,,,,,,,,,,,,,,,
,,,,,SPR24_090,20,female,2024-04-24_17h00.38.742,jersey_experiment_5_v0,2023.2.2,Win32,85.47008547,,,,,,,,,,,,,,,,96.9642,98.0112,98.0112,100.7172,return,0.652,,99.86979167,0,10,10,54,1,FBP-PT-18.png,0.45,1.2,55,0.25,,,,,,,,,,,,,,,,,,,,,,,,,,,,,,,,,,,,,,,,,,,,,
,,,,,SPR24_090,20,female,2024-04-24_17h00.38.742,jersey_experiment_5_v0,2023.2.2,Win32,85.47008547,,,,,,,,,,,,,,,,100.7175,102.0113,102.0114,106.7526,return,2.9059,,75,0,11,11,5,1,FBP-OG-81.png,0.35,1.2,6,0.5,,,,,,,,,,,,,,,,,,,,,,,,,,,,,,,,,,,,,,,,,,,,,
,,,,,SPR24_090,20,female,2024-04-24_17h00.38.742,jersey_experiment_5_v0,2023.2.2,Win32,85.47008547,,,,,,,,,,,,,,,,106.7528,107.7998,107.7998,110.0352,return,0.5793,,99.47916667,0,12,12,29,1,FBP-YG-19.png,0.45,1.2,30,0.25,,,,,,,,,,,,,,,,,,,,,,,,,,,,,,,,,,,,,,,,,,,,,
,,,,,SPR24_090,20,female,2024-04-24_17h00.38.742,jersey_experiment_5_v0,2023.2.2,Win32,85.47008547,,,,,,,,,,,,,,,,110.0354,111.0824,111.0824,115.0824,return,0.6198,,74.86979167,0,13,13,57,1,FBP-PT-19.png,0.4,1.2,58,0.25,,,,,,,,,,,,,,,,,,,,,,,,,,,,,,,,,,,,,,,,,,,,,
,,,,,SPR24_090,20,female,2024-04-24_17h00.38.742,jersey_experiment_5_v0,2023.2.2,Win32,85.47008547,,,,,,,,,,,,,,,,115.0825,116.3765,116.3765,117.5179,return,0.5904,,74.86979167,0,14,14,42,1,FBP-RB-19.png,0.4,1.2,43,0.5,,,,,,,,,,,,,,,,,,,,,,,,,,,,,,,,,,,,,,,,,,,,,
,,,,,SPR24_090,20,female,2024-04-24_17h00.38.742,jersey_experiment_5_v0,2023.2.2,Win32,85.47008547,,,,,,,,,,,,,,,,117.5181,118.812,118.8121,119.7531,return,0.5251,,74.86979167,0,15,15,31,1,FBP-RB-17.png,0.37,1.2,32,0.5,,,,,,,,,,,,,,,,,,,,,,,,,,,,,,,,,,,,,,,,,,,,,
,,,,,SPR24_090,20,female,2024-04-24_17h00.38.742,jersey_experiment_5_v0,2023.2.2,Win32,85.47008547,,,,,,,,,,,,,,,,119.7533,121.0473,121.0474,122.718,return,0.5572,,99.34895833,0,16,16,39,1,FBP-RB-18.png,0.45,1.2,40,0.5,,,,,,,,,,,,,,,,,,,,,,,,,,,,,,,,,,,,,,,,,,,,,
,,,,,SPR24_090,20,female,2024-04-24_17h00.38.742,jersey_experiment_5_v0,2023.2.2,Win32,85.47008547,,,,,,,,,,,,,,,,122.7182,124.0121,124.0122,124.9533,return,0.5147,,99.34895833,0,17,17,44,1,FBP-RB-19.png,0.45,1.2,45,0.5,,,,,,,,,,,,,,,,,,,,,,,,,,,,,,,,,,,,,,,,,,,,,
,,,,,SPR24_090,20,female,2024-04-24_17h00.38.742,jersey_experiment_5_v0,2023.2.2,Win32,85.47008547,,,,,,,,,,,,,,,,124.9535,126.0003,126.0004,127.0592,return,0.494,,99.34895833,0,18,18,18,1,FBP-YG-17.png,0.43,1.2,19,0.25,,,,,,,,,,,,,,,,,,,,,,,,,,,,,,,,,,,,,,,,,,,,,
,,,,,SPR24_090,20,female,2024-04-24_17h00.38.742,jersey_experiment_5_v0,2023.2.2,Win32,85.47008547,,,,,,,,,,,,,,,,127.0595,128.1064,128.1064,130.0831,return,0.7433,,85.28645833,0,19,19,52,1,FBP-PT-18.png,0.4,1.2,53,0.25,,,,,,,,,,,,,,,,,,,,,,,,,,,,,,,,,,,,,,,,,,,,,
,,,,,SPR24_090,20,female,2024-04-24_17h00.38.742,jersey_experiment_5_v0,2023.2.2,Win32,85.47008547,,,,,,,,,,,,,,,,130.0831,131.3772,131.3772,132.9772,return,0.5644,,99.609375,0,20,20,14,1,FBP-OG-91.png,0.45,1.2,15,0.5,,,,,,,,,,,,,,,,,,,,,,,,,,,,,,,,,,,,,,,,,,,,,
,,,,,SPR24_090,20,female,2024-04-24_17h00.38.742,jersey_experiment_5_v0,2023.2.2,Win32,85.47008547,,,,,,,,,,,,,,,,132.9774,134.0242,134.0243,136.2126,return,0.541,,24.47916667,0,21,21,15,1,FBP-YG-17.png,0.35,1.2,16,0.25,,,,,,,,,,,,,,,,,,,,,,,,,,,,,,,,,,,,,,,,,,,,,
,,,,,SPR24_090,20,female,2024-04-24_17h00.38.742,jersey_experiment_5_v0,2023.2.2,Win32,85.47008547,,,,,,,,,,,,,,,,136.2128,137.5067,137.5067,139.0125,return,0.541,,24.47916667,0,22,22,35,1,FBP-RB-18.png,0.35,1.2,36,0.5,,,,,,,,,,,,,,,,,,,,,,,,,,,,,,,,,,,,,,,,,,,,,
,,,,,SPR24_090,20,female,2024-04-24_17h00.38.742,jersey_experiment_5_v0,2023.2.2,Win32,85.47008547,,,,,,,,,,,,,,,,139.0127,140.0597,140.0598,141.0716,return,0.5086,,24.47916667,0,23,23,50,1,FBP-PT-18.png,0.35,1.2,51,0.25,,,,,,,,,,,,,,,,,,,,,,,,,,,,,,,,,,,,,,,,,,,,,
,,,,,SPR24_090,20,female,2024-04-24_17h00.38.742,jersey_experiment_5_v0,2023.2.2,Win32,85.47008547,,,,,,,,,,,,,,,,141.0718,142.3658,142.3658,144.2834,return,0.5003,,99.34895833,0,24,24,4,1,FBP-OG-71.png,0.45,1.2,5,0.5,,,,,,,,,,,,,,,,,,,,,,,,,,,,,,,,,,,,,,,,,,,,,
,,,,,SPR24_090,20,female,2024-04-24_17h00.38.742,jersey_experiment_5_v0,2023.2.2,Win32,85.47008547,,,,,,,,,,,,,,,,144.2836,145.5777,145.5777,147.0247,return,0.5172,,75.91145833,0,25,25,32,1,FBP-RB-17.png,0.4,1.2,33,0.5,,,,,,,,,,,,,,,,,,,,,,,,,,,,,,,,,,,,,,,,,,,,,
,,,,,SPR24_090,20,female,2024-04-24_17h00.38.742,jersey_experiment_5_v0,2023.2.2,Win32,85.47008547,,,,,,,,,,,,,,,,147.025,148.3188,148.3189,149.2484,return,0.5429,,75.91145833,0,26,26,2,1,FBP-OG-71.png,0.4,1.2,3,0.5,,,,,,,,,,,,,,,,,,,,,,,,,,,,,,,,,,,,,,,,,,,,,
,,,,,SPR24_090,20,female,2024-04-24_17h00.38.742,jersey_experiment_5_v0,2023.2.2,Win32,85.47008547,,,,,,,,,,,,,,,,149.2486,150.5424,150.5424,152.0484,return,0.5431,,98.56770833,0,27,27,9,1,FBP-OG-81.png,0.45,1.2,10,0.5,,,,,,,,,,,,,,,,,,,,,,,,,,,,,,,,,,,,,,,,,,,,,
,,,,,SPR24_090,20,female,2024-04-24_17h00.38.742,jersey_experiment_5_v0,2023.2.2,Win32,85.47008547,,,,,,,,,,,,,,,,152.0486,153.3425,153.3425,154.6838,return,0.5476,,89.84375,0,28,28,37,1,FBP-RB-18.png,0.4,1.2,38,0.5,,,,,,,,,,,,,,,,,,,,,,,,,,,,,,,,,,,,,,,,,,,,,
,,,,,SPR24_090,20,female,2024-04-24_17h00.38.742,jersey_experiment_5_v0,2023.2.2,Win32,85.47008547,,,,,,,,,,,,,,,,154.684,155.7309,155.7309,158.131,return,0.6354,,25.78125,0,29,29,25,1,FBP-YG-19.png,0.35,1.2,26,0.25,,,,,,,,,,,,,,,,,,,,,,,,,,,,,,,,,,,,,,,,,,,,,
,,,,,SPR24_090,20,female,2024-04-24_17h00.38.742,jersey_experiment_5_v0,2023.2.2,Win32,85.47008547,,,,,,,,,,,,,,,,158.1313,159.4251,159.4252,162.3783,return,0.5828,,64.97395833,0,30,30,6,1,FBP-OG-81.png,0.37,1.2,7,0.5,,,,,,,,,,,,,,,,,,,,,,,,,,,,,,,,,,,,,,,,,,,,,
,,,,,SPR24_090,20,female,2024-04-24_17h00.38.742,jersey_experiment_5_v0,2023.2.2,Win32,85.47008547,,,,,,,,,,,,,,,,162.3784,163.4253,163.4253,164.6019,return,0.5001,,64.71354167,0,31,31,51,1,FBP-PT-18.png,0.37,1.2,52,0.25,,,,,,,,,,,,,,,,,,,,,,,,,,,,,,,,,,,,,,,,,,,,,
,,,,,SPR24_090,20,female,2024-04-24_17h00.38.742,jersey_experiment_5_v0,2023.2.2,Win32,85.47008547,,,,,,,,,,,,,,,,164.6022,165.6489,165.6489,167.3784,return,0.5635,,98.828125,0,32,32,59,1,FBP-PT-19.png,0.45,1.2,60,0.25,,,,,,,,,,,,,,,,,,,,,,,,,,,,,,,,,,,,,,,,,,,,,
,,,,,SPR24_090,20,female,2024-04-24_17h00.38.742,jersey_experiment_5_v0,2023.2.2,Win32,85.47008547,,,,,,,,,,,,,,,,167.3787,168.4255,168.4255,171.155,return,0.6591,,99.34895833,0,33,33,24,1,FBP-YG-18.png,0.45,1.2,25,0.25,,,,,,,,,,,,,,,,,,,,,,,,,,,,,,,,,,,,,,,,,,,,,
,,,,,SPR24_090,20,female,2024-04-24_17h00.38.742,jersey_experiment_5_v0,2023.2.2,Win32,85.47008547,,,,,,,,,,,,,,,,171.1552,172.4492,172.4492,175.2962,return,0.5523,,50.390625,0,34,34,36,1,FBP-RB-18.png,0.37,1.2,37,0.5,,,,,,,,,,,,,,,,,,,,,,,,,,,,,,,,,,,,,,,,,,,,,
,,,,,SPR24_090,20,female,2024-04-24_17h00.38.742,jersey_experiment_5_v0,2023.2.2,Win32,85.47008547,,,,,,,,,,,,,,,,175.2965,176.3434,176.3434,180.5083,return,0.747,,99.609375,0,35,35,48,1,FBP-PT-17.png,0.43,1.2,49,0.25,,,,,,,,,,,,,,,,,,,,,,,,,,,,,,,,,,,,,,,,,,,,,
,,,,,SPR24_090,20,female,2024-04-24_17h00.38.742,jersey_experiment_5_v0,2023.2.2,Win32,85.47008547,,,,,,,,,,,,,,,,180.5085,181.5552,181.5552,183.8848,return,0.5228,,74.86979167,0,36,36,58,1,FBP-PT-19.png,0.43,1.2,59,0.25,,,,,,,,,,,,,,,,,,,,,,,,,,,,,,,,,,,,,,,,,,,,,
,,,,,SPR24_090,20,female,2024-04-24_17h00.38.742,jersey_experiment_5_v0,2023.2.2,Win32,85.47008547,,,,,,,,,,,,,,,,183.885,184.9319,184.932,187.1321,return,0.5471,,25.52083333,0,37,37,20,1,FBP-YG-18.png,0.35,1.2,21,0.25,,,,,,,,,,,,,,,,,,,,,,,,,,,,,,,,,,,,,,,,,,,,,
,,,,,SPR24_090,20,female,2024-04-24_17h00.38.742,jersey_experiment_5_v0,2023.2.2,Win32,85.47008547,,,,,,,,,,,,,,,,187.1322,188.1791,188.1791,191.7323,return,0.5079,,62.109375,0,38,38,17,1,FBP-YG-17.png,0.4,1.2,18,0.25,,,,,,,,,,,,,,,,,,,,,,,,,,,,,,,,,,,,,,,,,,,,,
,,,,,SPR24_090,20,female,2024-04-24_17h00.38.742,jersey_experiment_5_v0,2023.2.2,Win32,85.47008547,,,,,,,,,,,,,,,,191.7325,192.7792,192.7792,194.9087,return,0.4978,,83.72395833,0,39,39,28,1,FBP-YG-19.png,0.43,1.2,29,0.25,,,,,,,,,,,,,,,,,,,,,,,,,,,,,,,,,,,,,,,,,,,,,
,,,,,SPR24_090,20,female,2024-04-24_17h00.38.742,jersey_experiment_5_v0,2023.2.2,Win32,85.47008547,,,,,,,,,,,,,,,,194.9088,195.9558,195.9558,198.6268,return,0.541,,61.45833333,0,40,40,56,1,FBP-PT-19.png,0.37,1.2,57,0.25,,,,,,,,,,,,,,,,,,,,,,,,,,,,,,,,,,,,,,,,,,,,,
,,,,,SPR24_090,20,female,2024-04-24_17h00.38.742,jersey_experiment_5_v0,2023.2.2,Win32,85.47008547,,,,,,,,,,,,,,,,198.627,199.9208,199.9208,203.2502,return,1.5528,,62.76041667,0,41,41,12,1,FBP-OG-91.png,0.4,1.2,13,0.5,,,,,,,,,,,,,,,,,,,,,,,,,,,,,,,,,,,,,,,,,,,,,
,,,,,SPR24_090,20,female,2024-04-24_17h00.38.742,jersey_experiment_5_v0,2023.2.2,Win32,85.47008547,,,,,,,,,,,,,,,,203.2503,204.2974,204.2974,206.0269,return,0.5481,,99.86979167,0,42,42,19,1,FBP-YG-17.png,0.45,1.2,20,0.25,,,,,,,,,,,,,,,,,,,,,,,,,,,,,,,,,,,,,,,,,,,,,
,,,,,SPR24_090,20,female,2024-04-24_17h00.38.742,jersey_experiment_5_v0,2023.2.2,Win32,85.47008547,,,,,,,,,,,,,,,,206.0271,207.074,207.074,209.8975,return,0.5956,,60.546875,0,43,43,46,1,FBP-PT-17.png,0.37,1.2,47,0.25,,,,,,,,,,,,,,,,,,,,,,,,,,,,,,,,,,,,,,,,,,,,,
,,,,,SPR24_090,20,female,2024-04-24_17h00.38.742,jersey_experiment_5_v0,2023.2.2,Win32,85.47008547,,,,,,,,,,,,,,,,209.8977,210.9446,210.9446,212.1211,return,0.5129,,62.5,0,44,44,27,1,FBP-YG-19.png,0.4,1.2,28,0.25,,,,,,,,,,,,,,,,,,,,,,,,,,,,,,,,,,,,,,,,,,,,,
,,,,,SPR24_090,20,female,2024-04-24_17h00.38.742,jersey_experiment_5_v0,2023.2.2,Win32,85.47008547,,,,,,,,,,,,,,,,212.1212,213.4153,213.4153,215.3446,return,0.5885,,23.828125,0,45,45,0,1,FBP-OG-71.png,0.35,1.2,1,0.5,,,,,,,,,,,,,,,,,,,,,,,,,,,,,,,,,,,,,,,,,,,,,
,,,,,SPR24_090,20,female,2024-04-24_17h00.38.742,jersey_experiment_5_v0,2023.2.2,Win32,85.47008547,,,,,,,,,,,,,,,,215.3449,216.6391,216.6392,221.2744,return,3.3354,,60.80729167,0,46,46,33,1,FBP-RB-17.png,0.43,1.2,34,0.5,,,,,,,,,,,,,,,,,,,,,,,,,,,,,,,,,,,,,,,,,,,,,
,,,,,SPR24_090,20,female,2024-04-24_17h00.38.742,jersey_experiment_5_v0,2023.2.2,Win32,85.47008547,,,,,,,,,,,,,,,,221.2746,222.5686,222.5686,224.5451,return,0.5047,,74.21875,0,47,47,43,1,FBP-RB-19.png,0.43,1.2,44,0.5,,,,,,,,,,,,,,,,,,,,,,,,,,,,,,,,,,,,,,,,,,,,,
,,,,,SPR24_090,20,female,2024-04-24_17h00.38.742,jersey_experiment_5_v0,2023.2.2,Win32,85.47008547,,,,,,,,,,,,,,,,224.5454,225.5923,225.5923,227.5804,return,0.5937,,62.36979167,0,48,48,47,1,FBP-PT-17.png,0.4,1.2,48,0.25,,,,,,,,,,,,,,,,,,,,,,,,,,,,,,,,,,,,,,,,,,,,,
,,,,,SPR24_090,20,female,2024-04-24_17h00.38.742,jersey_experiment_5_v0,2023.2.2,Win32,85.47008547,,,,,,,,,,,,,,,,227.5806,228.8747,228.8747,231.3571,return,0.4971,,87.23958333,0,49,49,38,1,FBP-RB-18.png,0.43,1.2,39,0.5,,,,,,,,,,,,,,,,,,,,,,,,,,,,,,,,,,,,,,,,,,,,,
,,,,,SPR24_090,20,female,2024-04-24_17h00.38.742,jersey_experiment_5_v0,2023.2.2,Win32,85.47008547,,,,,,,,,,,,,,,,231.3574,232.4043,232.4043,233.6161,return,0.5314,,87.23958333,0,50,50,49,1,FBP-PT-17.png,0.45,1.2,50,0.25,,,,,,,,,,,,,,,,,,,,,,,,,,,,,,,,,,,,,,,,,,,,,
,,,,,SPR24_090,20,female,2024-04-24_17h00.38.742,jersey_experiment_5_v0,2023.2.2,Win32,85.47008547,,,,,,,,,,,,,,,,233.6163,234.9103,234.9104,237.7103,return,0.6602,,88.41145833,0,51,51,8,1,FBP-OG-81.png,0.43,1.2,9,0.5,,,,,,,,,,,,,,,,,,,,,,,,,,,,,,,,,,,,,,,,,,,,,
,,,,,SPR24_090,20,female,2024-04-24_17h00.38.742,jersey_experiment_5_v0,2023.2.2,Win32,85.47008547,,,,,,,,,,,,,,,,237.7106,239.0045,239.0045,240.6988,return,0.5701,,37.109375,0,52,52,41,1,FBP-RB-19.png,0.37,1.2,42,0.5,,,,,,,,,,,,,,,,,,,,,,,,,,,,,,,,,,,,,,,,,,,,,
,,,,,SPR24_090,20,female,2024-04-24_17h00.38.742,jersey_experiment_5_v0,2023.2.2,Win32,85.47008547,,,,,,,,,,,,,,,,240.699,241.7456,241.7456,243.5811,return,0.5228,,87.109375,0,53,53,53,1,FBP-PT-18.png,0.43,1.2,54,0.25,,,,,,,,,,,,,,,,,,,,,,,,,,,,,,,,,,,,,,,,,,,,,
,,,,,SPR24_090,20,female,2024-04-24_17h00.38.742,jersey_experiment_5_v0,2023.2.2,Win32,85.47008547,,,,,,,,,,,,,,,,243.5812,244.6284,244.6284,246.4282,return,0.6032,,64.0625,0,54,54,26,1,FBP-YG-19.png,0.37,1.2,27,0.25,,,,,,,,,,,,,,,,,,,,,,,,,,,,,,,,,,,,,,,,,,,,,
,,,,,SPR24_090,20,female,2024-04-24_17h00.38.742,jersey_experiment_5_v0,2023.2.2,Win32,85.47008547,,,,,,,,,,,,,,,,246.4284,247.7226,247.7226,251.3931,return,1.2814,,62.109375,0,55,55,10,1,FBP-OG-91.png,0.35,1.2,11,0.5,,,,,,,,,,,,,,,,,,,,,,,,,,,,,,,,,,,,,,,,,,,,,
,,,,,SPR24_090,20,female,2024-04-24_17h00.38.742,jersey_experiment_5_v0,2023.2.2,Win32,85.47008547,,,,,,,,,,,,,,,,251.3933,252.6874,252.6875,254.1697,return,0.5358,,62.109375,0,56,56,7,1,FBP-OG-81.png,0.4,1.2,8,0.5,,,,,,,,,,,,,,,,,,,,,,,,,,,,,,,,,,,,,,,,,,,,,
,,,,,SPR24_090,20,female,2024-04-24_17h00.38.742,jersey_experiment_5_v0,2023.2.2,Win32,85.47008547,,,,,,,,,,,,,,,,254.1698,255.2168,255.2168,257.4522,return,1.5235,,37.23958333,0,57,57,55,1,FBP-PT-19.png,0.35,1.2,56,0.25,,,,,,,,,,,,,,,,,,,,,,,,,,,,,,,,,,,,,,,,,,,,,
,,,,,SPR24_090,20,female,2024-04-24_17h00.38.742,jersey_experiment_5_v0,2023.2.2,Win32,85.47008547,,,,,,,,,,,,,,,,257.4524,258.4992,258.4992,259.5345,return,0.5305,,37.23958333,0,58,58,45,1,FBP-PT-17.png,0.35,1.2,46,0.25,,,,,,,,,,,,,,,,,,,,,,,,,,,,,,,,,,,,,,,,,,,,,
,,,,,SPR24_090,20,female,2024-04-24_17h00.38.742,jersey_experiment_5_v0,2023.2.2,Win32,85.47008547,,,,,,,,,,,,,,,,259.5348,260.5817,260.5817,262.17,return,0.5725,,57.8125,0,59,59,21,1,FBP-YG-18.png,0.37,1.2,22,0.25,,,,,,,,,,,,,,,,,,,,,,,,,,,,,,,,,,,,,,,,,,,,,
,,,,,SPR24_090,20,female,2024-04-24_17h00.38.742,jersey_experiment_5_v0,2023.2.2,Win32,85.47008547,,,,,,,,,,,,,,,,262.172,263.2171,263.2171,264.7231,return,0.5421,,58.85416667,,,,,,FBP-PT-81.png,0.37,1.2,52,0.25,0,0,0,51,1,,,,,,,,,,,,,,,,,,,,,,,,,,,,,,,,,,,,,,,,
,,,,,SPR24_090,20,female,2024-04-24_17h00.38.742,jersey_experiment_5_v0,2023.2.2,Win32,85.47008547,,,,,,,,,,,,,,,,264.7233,266.0171,266.0172,267.4055,return,0.567,,75,,,,,,FBP-OG-19.png,0.43,1.2,14,0.5,0,1,1,13,1,,,,,,,,,,,,,,,,,,,,,,,,,,,,,,,,,,,,,,,,
,,,,,SPR24_090,20,female,2024-04-24_17h00.38.742,jersey_experiment_5_v0,2023.2.2,Win32,85.47008547,,,,,,,,,,,,,,,,267.4057,268.6995,268.6996,271.5821,return,2.4605,,62.109375,,,,,,FBP-RB-71.png,0.37,1.2,32,0.5,0,2,2,31,1,,,,,,,,,,,,,,,,,,,,,,,,,,,,,,,,,,,,,,,,
,,,,,SPR24_090,20,female,2024-04-24_17h00.38.742,jersey_experiment_5_v0,2023.2.2,Win32,85.47008547,,,,,,,,,,,,,,,,271.5822,272.6293,272.6293,274.8647,return,0.5311,,99.86979167,,,,,,FBP-PT-71.png,0.45,1.2,50,0.25,0,3,3,49,1,,,,,,,,,,,,,,,,,,,,,,,,,,,,,,,,,,,,,,,,
,,,,,SPR24_090,20,female,2024-04-24_17h00.38.742,jersey_experiment_5_v0,2023.2.2,Win32,85.47008547,,,,,,,,,,,,,,,,274.8648,275.9117,275.9117,276.9237,return,0.5338,,99.86979167,,,,,,FBP-PT-71.png,0.43,1.2,49,0.25,0,4,4,48,1,,,,,,,,,,,,,,,,,,,,,,,,,,,,,,,,,,,,,,,,
,,,,,SPR24_090,20,female,2024-04-24_17h00.38.742,jersey_experiment_5_v0,2023.2.2,Win32,85.47008547,,,,,,,,,,,,,,,,276.9239,278.2176,278.2176,280.1705,return,0.5111,,25.26041667,,,,,,FBP-OG-18.png,0.35,1.2,6,0.5,0,5,5,5,1,,,,,,,,,,,,,,,,,,,,,,,,,,,,,,,,,,,,,,,,
,,,,,SPR24_090,20,female,2024-04-24_17h00.38.742,jersey_experiment_5_v0,2023.2.2,Win32,85.47008547,,,,,,,,,,,,,,,,280.1706,281.4647,281.4648,283.1354,return,0.4831,,38.02083333,,,,,,FBP-RB-71.png,0.4,1.2,33,0.5,0,6,6,32,1,,,,,,,,,,,,,,,,,,,,,,,,,,,,,,,,,,,,,,,,
,,,,,SPR24_090,20,female,2024-04-24_17h00.38.742,jersey_experiment_5_v0,2023.2.2,Win32,85.47008547,,,,,,,,,,,,,,,,283.1356,284.4296,284.4296,285.4178,return,0.5491,,38.02083333,,,,,,FBP-RB-91.png,0.37,1.2,42,0.5,0,7,7,41,1,,,,,,,,,,,,,,,,,,,,,,,,,,,,,,,,,,,,,,,,
,,,,,SPR24_090,20,female,2024-04-24_17h00.38.742,jersey_experiment_5_v0,2023.2.2,Win32,85.47008547,,,,,,,,,,,,,,,,285.418,286.4649,286.4649,291.2416,return,0.642,,87.890625,,,,,,FBP-PT-81.png,0.45,1.2,55,0.25,0,8,8,54,1,,,,,,,,,,,,,,,,,,,,,,,,,,,,,,,,,,,,,,,,
,,,,,SPR24_090,20,female,2024-04-24_17h00.38.742,jersey_experiment_5_v0,2023.2.2,Win32,85.47008547,,,,,,,,,,,,,,,,291.2419,292.2887,292.2888,294.1945,return,0.5511,,75.91145833,,,,,,FBP-YG-81.png,0.43,1.2,24,0.25,0,9,9,23,1,,,,,,,,,,,,,,,,,,,,,,,,,,,,,,,,,,,,,,,,
,,,,,SPR24_090,20,female,2024-04-24_17h00.38.742,jersey_experiment_5_v0,2023.2.2,Win32,85.47008547,,,,,,,,,,,,,,,,294.1947,295.2417,295.2418,299.3126,return,0.3769,,64.0625,,,,,,FBP-PT-91.png,0.37,1.2,57,0.25,0,10,10,56,1,,,,,,,,,,,,,,,,,,,,,,,,,,,,,,,,,,,,,,,,
,,,,,SPR24_090,20,female,2024-04-24_17h00.38.742,jersey_experiment_5_v0,2023.2.2,Win32,85.47008547,,,,,,,,,,,,,,,,299.3128,300.3596,300.3596,302.1243,return,0.5467,,36.45833333,,,,,,FBP-PT-91.png,0.4,1.2,58,0.25,0,11,11,57,1,,,,,,,,,,,,,,,,,,,,,,,,,,,,,,,,,,,,,,,,
,,,,,SPR24_090,20,female,2024-04-24_17h00.38.742,jersey_experiment_5_v0,2023.2.2,Win32,85.47008547,,,,,,,,,,,,,,,,302.1245,303.1715,303.1715,304.5599,return,0.1785,,37.76041667,,,,,,FBP-YG-81.png,0.37,1.2,22,0.25,0,12,12,21,1,,,,,,,,,,,,,,,,,,,,,,,,,,,,,,,,,,,,,,,,
,,,,,SPR24_090,20,female,2024-04-24_17h00.38.742,jersey_experiment_5_v0,2023.2.2,Win32,85.47008547,,,,,,,,,,,,,,,,304.56,305.8538,305.8539,306.8304,return,0.1781,,24.73958333,,,,,,FBP-OG-17.png,0.35,1.2,1,0.5,0,13,13,0,1,,,,,,,,,,,,,,,,,,,,,,,,,,,,,,,,,,,,,,,,
,,,,,SPR24_090,20,female,2024-04-24_17h00.38.742,jersey_experiment_5_v0,2023.2.2,Win32,85.47008547,,,,,,,,,,,,,,,,306.8305,307.8775,307.8776,309.4657,return,0.2061,,74.47916667,,,,,,FBP-YG-71.png,0.43,1.2,19,0.25,0,14,14,18,1,,,,,,,,,,,,,,,,,,,,,,,,,,,,,,,,,,,,,,,,
,,,,,SPR24_090,20,female,2024-04-24_17h00.38.742,jersey_experiment_5_v0,2023.2.2,Win32,85.47008547,,,,,,,,,,,,,,,,309.4659,310.5129,310.513,311.9719,return,0.2123,,26.43229167,,,,,,FBP-PT-81.png,0.35,1.2,51,0.25,0,15,15,50,1,,,,,,,,,,,,,,,,,,,,,,,,,,,,,,,,,,,,,,,,
,,,,,SPR24_090,20,female,2024-04-24_17h00.38.742,jersey_experiment_5_v0,2023.2.2,Win32,85.47008547,,,,,,,,,,,,,,,,311.972,313.0189,313.0189,315.113,return,0.2676,,99.73958333,,,,,,FBP-PT-91.png,0.45,1.2,60,0.25,0,16,16,59,1,,,,,,,,,,,,,,,,,,,,,,,,,,,,,,,,,,,,,,,,
,,,,,SPR24_090,20,female,2024-04-24_17h00.38.742,jersey_experiment_5_v0,2023.2.2,Win32,85.47008547,,,,,,,,,,,,,,,,315.1132,316.1602,316.1602,318.9956,return,0.1645,,62.5,,,,,,FBP-PT-71.png,0.4,1.2,48,0.25,0,17,17,47,1,,,,,,,,,,,,,,,,,,,,,,,,,,,,,,,,,,,,,,,,
,,,,,SPR24_090,20,female,2024-04-24_17h00.38.742,jersey_experiment_5_v0,2023.2.2,Win32,85.47008547,,,,,,,,,,,,,,,,318.9959,320.2898,320.2898,321.325,return,0.1794,,74.47916667,,,,,,FBP-OG-17.png,0.45,1.2,5,0.5,0,18,18,4,1,,,,,,,,,,,,,,,,,,,,,,,,,,,,,,,,,,,,,,,,
,,,,,SPR24_090,20,female,2024-04-24_17h00.38.742,jersey_experiment_5_v0,2023.2.2,Win32,85.47008547,,,,,,,,,,,,,,,,321.3252,322.6192,322.6193,323.9133,return,0.2062,,37.5,,,,,,FBP-RB-91.png,0.35,1.2,41,0.5,0,19,19,40,1,,,,,,,,,,,,,,,,,,,,,,,,,,,,,,,,,,,,,,,,
,,,,,SPR24_090,20,female,2024-04-24_17h00.38.742,jersey_experiment_5_v0,2023.2.2,Win32,85.47008547,,,,,,,,,,,,,,,,323.9135,324.9605,324.9605,326.6428,return,0.1981,,75.65104167,,,,,,FBP-YG-81.png,0.45,1.2,25,0.25,0,20,20,24,1,,,,,,,,,,,,,,,,,,,,,,,,,,,,,,,,,,,,,,,,
,,,,,SPR24_090,20,female,2024-04-24_17h00.38.742,jersey_experiment_5_v0,2023.2.2,Win32,85.47008547,,,,,,,,,,,,,,,,326.6429,327.6901,327.6901,328.8901,return,0.1609,,35.67708333,,,,,,FBP-PT-71.png,0.35,1.2,46,0.25,0,21,21,45,1,,,,,,,,,,,,,,,,,,,,,,,,,,,,,,,,,,,,,,,,
,,,,,SPR24_090,20,female,2024-04-24_17h00.38.742,jersey_experiment_5_v0,2023.2.2,Win32,85.47008547,,,,,,,,,,,,,,,,328.8904,330.1844,330.1844,331.7723,return,0.1698,,99.73958333,,,,,,FBP-RB-81.png,0.45,1.2,40,0.5,0,22,22,39,1,,,,,,,,,,,,,,,,,,,,,,,,,,,,,,,,,,,,,,,,
,,,,,SPR24_090,20,female,2024-04-24_17h00.38.742,jersey_experiment_5_v0,2023.2.2,Win32,85.47008547,,,,,,,,,,,,,,,,331.7726,332.8198,332.8198,335.502,return,1.0613,,61.84895833,,,,,,FBP-PT-81.png,0.4,1.2,53,0.25,0,23,23,52,1,,,,,,,,,,,,,,,,,,,,,,,,,,,,,,,,,,,,,,,,
,,,,,SPR24_090,20,female,2024-04-24_17h00.38.742,jersey_experiment_5_v0,2023.2.2,Win32,85.47008547,,,,,,,,,,,,,,,,335.5023,336.5491,336.5491,338.3962,return,1.251,,90.36458333,,,,,,FBP-YG-91.png,0.45,1.2,30,0.25,0,24,24,29,1,,,,,,,,,,,,,,,,,,,,,,,,,,,,,,,,,,,,,,,,
,,,,,SPR24_090,20,female,2024-04-24_17h00.38.742,jersey_experiment_5_v0,2023.2.2,Win32,85.47008547,,,,,,,,,,,,,,,,338.3964,339.6905,339.6905,340.7375,return,0.1273,,88.28125,,,,,,FBP-OG-18.png,0.43,1.2,9,0.5,0,25,25,8,1,,,,,,,,,,,,,,,,,,,,,,,,,,,,,,,,,,,,,,,,
,,,,,SPR24_090,20,female,2024-04-24_17h00.38.742,jersey_experiment_5_v0,2023.2.2,Win32,85.47008547,,,,,,,,,,,,,,,,340.7378,342.0315,342.0316,344.8434,return,1.3215,,38.671875,,,,,,FBP-OG-19.png,0.37,1.2,12,0.5,0,26,26,11,1,,,,,,,,,,,,,,,,,,,,,,,,,,,,,,,,,,,,,,,,
,,,,,SPR24_090,20,female,2024-04-24_17h00.38.742,jersey_experiment_5_v0,2023.2.2,Win32,85.47008547,,,,,,,,,,,,,,,,344.8436,345.8907,345.8907,346.6671,return,0.0388,,37.36979167,,,,,,FBP-YG-91.png,0.35,1.2,26,0.25,0,27,27,25,1,,,,,,,,,,,,,,,,,,,,,,,,,,,,,,,,,,,,,,,,
,,,,,SPR24_090,20,female,2024-04-24_17h00.38.742,jersey_experiment_5_v0,2023.2.2,Win32,85.47008547,,,,,,,,,,,,,,,,346.6673,347.9614,347.9615,348.9142,return,0.1415,,75.65104167,,,,,,FBP-RB-71.png,0.45,1.2,35,0.5,0,28,28,34,1,,,,,,,,,,,,,,,,,,,,,,,,,,,,,,,,,,,,,,,,
,,,,,SPR24_090,20,female,2024-04-24_17h00.38.742,jersey_experiment_5_v0,2023.2.2,Win32,85.47008547,,,,,,,,,,,,,,,,348.9144,350.2085,350.2085,351.8201,return,0.6642,,37.5,,,,,,FBP-OG-18.png,0.37,1.2,7,0.5,0,29,29,6,1,,,,,,,,,,,,,,,,,,,,,,,,,,,,,,,,,,,,,,,,
,,,,,SPR24_090,20,female,2024-04-24_17h00.38.742,jersey_experiment_5_v0,2023.2.2,Win32,85.47008547,,,,,,,,,,,,,,,,351.8203,352.8674,352.8674,354.2202,return,0.0994,,37.109375,,,,,,FBP-PT-71.png,0.37,1.2,47,0.25,0,30,30,46,1,,,,,,,,,,,,,,,,,,,,,,,,,,,,,,,,,,,,,,,,
,,,,,SPR24_090,20,female,2024-04-24_17h00.38.742,jersey_experiment_5_v0,2023.2.2,Win32,85.47008547,,,,,,,,,,,,,,,,354.2204,355.5146,355.5146,356.4675,return,0.1187,,62.63020833,,,,,,FBP-RB-91.png,0.43,1.2,44,0.5,0,31,31,43,1,,,,,,,,,,,,,,,,,,,,,,,,,,,,,,,,,,,,,,,,
,,,,,SPR24_090,20,female,2024-04-24_17h00.38.742,jersey_experiment_5_v0,2023.2.2,Win32,85.47008547,,,,,,,,,,,,,,,,356.4677,357.7617,357.7617,358.4086,return,0.2443,,62.63020833,,,,,,FBP-RB-81.png,0.4,1.2,38,0.5,0,32,32,37,1,,,,,,,,,,,,,,,,,,,,,,,,,,,,,,,,,,,,,,,,
,,,,,SPR24_090,20,female,2024-04-24_17h00.38.742,jersey_experiment_5_v0,2023.2.2,Win32,85.47008547,,,,,,,,,,,,,,,,358.4088,359.4558,359.4558,360.3971,return,0.3457,,62.63020833,,,,,,FBP-YG-91.png,0.37,1.2,27,0.25,0,33,33,26,1,,,,,,,,,,,,,,,,,,,,,,,,,,,,,,,,,,,,,,,,
,,,,,SPR24_090,20,female,2024-04-24_17h00.38.742,jersey_experiment_5_v0,2023.2.2,Win32,85.47008547,,,,,,,,,,,,,,,,360.3973,361.6912,361.6912,363.2794,return,0.3882,,34.63541667,,,,,,FBP-RB-71.png,0.35,1.2,31,0.5,0,34,34,30,1,,,,,,,,,,,,,,,,,,,,,,,,,,,,,,,,,,,,,,,,
,,,,,SPR24_090,20,female,2024-04-24_17h00.38.742,jersey_experiment_5_v0,2023.2.2,Win32,85.47008547,,,,,,,,,,,,,,,,363.2795,364.5737,364.5737,365.5618,return,0.1721,,60.41666667,,,,,,FBP-OG-17.png,0.4,1.2,3,0.5,0,35,35,2,1,,,,,,,,,,,,,,,,,,,,,,,,,,,,,,,,,,,,,,,,
,,,,,SPR24_090,20,female,2024-04-24_17h00.38.742,jersey_experiment_5_v0,2023.2.2,Win32,85.47008547,,,,,,,,,,,,,,,,365.5619,366.609,366.609,368.068,return,0.1192,,88.28125,,,,,,FBP-YG-91.png,0.43,1.2,29,0.25,0,36,36,28,1,,,,,,,,,,,,,,,,,,,,,,,,,,,,,,,,,,,,,,,,
,,,,,SPR24_090,20,female,2024-04-24_17h00.38.742,jersey_experiment_5_v0,2023.2.2,Win32,85.47008547,,,,,,,,,,,,,,,,368.0681,369.1149,369.1149,371.1504,return,0.1328,,37.5,,,,,,FBP-YG-81.png,0.35,1.2,21,0.25,0,37,37,20,1,,,,,,,,,,,,,,,,,,,,,,,,,,,,,,,,,,,,,,,,
,,,,,SPR24_090,20,female,2024-04-24_17h00.38.742,jersey_experiment_5_v0,2023.2.2,Win32,85.47008547,,,,,,,,,,,,,,,,371.1506,372.4445,372.4445,373.7151,return,0.0949,,61.06770833,,,,,,FBP-OG-18.png,0.4,1.2,8,0.5,0,38,38,7,1,,,,,,,,,,,,,,,,,,,,,,,,,,,,,,,,,,,,,,,,
,,,,,SPR24_090,20,female,2024-04-24_17h00.38.742,jersey_experiment_5_v0,2023.2.2,Win32,85.47008547,,,,,,,,,,,,,,,,373.7154,374.7622,374.7623,377.0917,return,0.612,,76.04166667,,,,,,FBP-YG-91.png,0.4,1.2,28,0.25,0,39,39,27,1,,,,,,,,,,,,,,,,,,,,,,,,,,,,,,,,,,,,,,,,
,,,,,SPR24_090,20,female,2024-04-24_17h00.38.742,jersey_experiment_5_v0,2023.2.2,Win32,85.47008547,,,,,,,,,,,,,,,,377.0919,378.3859,378.3859,379.7624,return,0.2495,,62.63020833,,,,,,FBP-OG-17.png,0.37,1.2,2,0.5,0,40,40,1,1,,,,,,,,,,,,,,,,,,,,,,,,,,,,,,,,,,,,,,,,
,,,,,SPR24_090,20,female,2024-04-24_17h00.38.742,jersey_experiment_5_v0,2023.2.2,Win32,85.47008547,,,,,,,,,,,,,,,,379.7626,380.8095,380.8095,381.8919,return,0.2691,,62.63020833,,,,,,FBP-YG-71.png,0.37,1.2,17,0.25,0,41,41,16,1,,,,,,,,,,,,,,,,,,,,,,,,,,,,,,,,,,,,,,,,
,,,,,SPR24_090,20,female,2024-04-24_17h00.38.742,jersey_experiment_5_v0,2023.2.2,Win32,85.47008547,,,,,,,,,,,,,,,,381.892,383.1859,383.186,384.2684,return,0.1095,,35.9375,,,,,,FBP-RB-81.png,0.35,1.2,36,0.5,0,42,42,35,1,,,,,,,,,,,,,,,,,,,,,,,,,,,,,,,,,,,,,,,,
,,,,,SPR24_090,20,female,2024-04-24_17h00.38.742,jersey_experiment_5_v0,2023.2.2,Win32,85.47008547,,,,,,,,,,,,,,,,384.2686,385.5626,385.5626,387.6333,return,0.104,,86.84895833,,,,,,FBP-RB-91.png,0.45,1.2,45,0.5,0,43,43,44,1,,,,,,,,,,,,,,,,,,,,,,,,,,,,,,,,,,,,,,,,
,,,,,SPR24_090,20,female,2024-04-24_17h00.38.742,jersey_experiment_5_v0,2023.2.2,Win32,85.47008547,,,,,,,,,,,,,,,,387.6336,388.6803,388.6803,389.7392,return,0.1125,,99.73958333,,,,,,FBP-YG-71.png,0.45,1.2,20,0.25,0,44,44,19,1,,,,,,,,,,,,,,,,,,,,,,,,,,,,,,,,,,,,,,,,
,,,,,SPR24_090,20,female,2024-04-24_17h00.38.742,jersey_experiment_5_v0,2023.2.2,Win32,85.47008547,,,,,,,,,,,,,,,,389.7394,391.0333,391.0333,391.6569,return,0.1971,,98.95833333,,,,,,FBP-RB-81.png,0.43,1.2,39,0.5,0,45,45,38,1,,,,,,,,,,,,,,,,,,,,,,,,,,,,,,,,,,,,,,,,
,,,,,SPR24_090,20,female,2024-04-24_17h00.38.742,jersey_experiment_5_v0,2023.2.2,Win32,85.47008547,,,,,,,,,,,,,,,,391.6572,392.7039,392.7041,393.3745,return,0.1441,,98.828125,,,,,,FBP-PT-91.png,0.43,1.2,59,0.25,0,46,46,58,1,,,,,,,,,,,,,,,,,,,,,,,,,,,,,,,,,,,,,,,,
,,,,,SPR24_090,20,female,2024-04-24_17h00.38.742,jersey_experiment_5_v0,2023.2.2,Win32,85.47008547,,,,,,,,,,,,,,,,393.3747,394.6688,394.6689,396.0335,return,0.1648,,37.63020833,,,,,,FBP-OG-19.png,0.35,1.2,11,0.5,0,47,47,10,1,,,,,,,,,,,,,,,,,,,,,,,,,,,,,,,,,,,,,,,,
,,,,,SPR24_090,20,female,2024-04-24_17h00.38.742,jersey_experiment_5_v0,2023.2.2,Win32,85.47008547,,,,,,,,,,,,,,,,396.0338,397.3278,397.3279,398.6219,return,0.0841,,75,,,,,,FBP-OG-18.png,0.45,1.2,10,0.5,0,48,48,9,1,,,,,,,,,,,,,,,,,,,,,,,,,,,,,,,,,,,,,,,,
,,,,,SPR24_090,20,female,2024-04-24_17h00.38.742,jersey_experiment_5_v0,2023.2.2,Win32,85.47008547,,,,,,,,,,,,,,,,398.622,399.9161,399.9161,400.9749,return,0.0823,,62.63020833,,,,,,FBP-OG-19.png,0.4,1.2,13,0.5,0,49,49,12,1,,,,,,,,,,,,,,,,,,,,,,,,,,,,,,,,,,,,,,,,
,,,,,SPR24_090,20,female,2024-04-24_17h00.38.742,jersey_experiment_5_v0,2023.2.2,Win32,85.47008547,,,,,,,,,,,,,,,,400.9753,402.0221,402.0221,403.4338,return,0.0292,,36.328125,,,,,,FBP-YG-71.png,0.35,1.2,16,0.25,0,50,50,15,1,,,,,,,,,,,,,,,,,,,,,,,,,,,,,,,,,,,,,,,,
,,,,,SPR24_090,20,female,2024-04-24_17h00.38.742,jersey_experiment_5_v0,2023.2.2,Win32,85.47008547,,,,,,,,,,,,,,,,403.434,404.481,404.481,405.5164,return,0.0757,,62.5,,,,,,FBP-YG-81.png,0.4,1.2,23,0.25,0,51,51,22,1,,,,,,,,,,,,,,,,,,,,,,,,,,,,,,,,,,,,,,,,
,,,,,SPR24_090,20,female,2024-04-24_17h00.38.742,jersey_experiment_5_v0,2023.2.2,Win32,85.47008547,,,,,,,,,,,,,,,,405.5166,406.5633,406.5633,408.8105,return,0.934,,88.54166667,,,,,,FBP-PT-81.png,0.43,1.2,54,0.25,0,52,52,53,1,,,,,,,,,,,,,,,,,,,,,,,,,,,,,,,,,,,,,,,,
,,,,,SPR24_090,20,female,2024-04-24_17h00.38.742,jersey_experiment_5_v0,2023.2.2,Win32,85.47008547,,,,,,,,,,,,,,,,408.8106,410.1047,410.1048,411.1635,return,0.0767,,38.41145833,,,,,,FBP-RB-81.png,0.37,1.2,37,0.5,0,53,53,36,1,,,,,,,,,,,,,,,,,,,,,,,,,,,,,,,,,,,,,,,,
,,,,,SPR24_090,20,female,2024-04-24_17h00.38.742,jersey_experiment_5_v0,2023.2.2,Win32,85.47008547,,,,,,,,,,,,,,,,411.1637,412.4578,412.4578,413.5636,return,0.0764,,74.47916667,,,,,,FBP-OG-17.png,0.43,1.2,4,0.5,0,54,54,3,1,,,,,,,,,,,,,,,,,,,,,,,,,,,,,,,,,,,,,,,,
,,,,,SPR24_090,20,female,2024-04-24_17h00.38.742,jersey_experiment_5_v0,2023.2.2,Win32,85.47008547,,,,,,,,,,,,,,,,413.5638,414.8577,414.8577,416.4579,return,0.8077,,60.67708333,,,,,,FBP-RB-71.png,0.43,1.2,34,0.5,0,55,55,33,1,,,,,,,,,,,,,,,,,,,,,,,,,,,,,,,,,,,,,,,,
,,,,,SPR24_090,20,female,2024-04-24_17h00.38.742,jersey_experiment_5_v0,2023.2.2,Win32,85.47008547,,,,,,,,,,,,,,,,416.4581,417.752,417.7521,418.3285,return,0.1622,,60.67708333,,,,,,FBP-RB-91.png,0.4,1.2,43,0.5,0,56,56,42,1,,,,,,,,,,,,,,,,,,,,,,,,,,,,,,,,,,,,,,,,
,,,,,SPR24_090,20,female,2024-04-24_17h00.38.742,jersey_experiment_5_v0,2023.2.2,Win32,85.47008547,,,,,,,,,,,,,,,,418.3286,419.3755,419.3756,419.9992,return,0.085,,60.41666667,,,,,,FBP-YG-71.png,0.4,1.2,18,0.25,0,57,57,17,1,,,,,,,,,,,,,,,,,,,,,,,,,,,,,,,,,,,,,,,,
,,,,,SPR24_090,20,female,2024-04-24_17h00.38.742,jersey_experiment_5_v0,2023.2.2,Win32,85.47008547,,,,,,,,,,,,,,,,419.9994,421.0462,421.0462,422.3874,return,0.7393,,37.109375,,,,,,FBP-PT-91.png,0.35,1.2,56,0.25,0,58,58,55,1,,,,,,,,,,,,,,,,,,,,,,,,,,,,,,,,,,,,,,,,
,,,,,SPR24_090,20,female,2024-04-24_17h00.38.742,jersey_experiment_5_v0,2023.2.2,Win32,85.47008547,,,,,,,,,,,,,,,,422.3876,423.6817,423.6818,424.7523,return,0.1077,,74.609375,,,,,,FBP-OG-19.png,0.45,1.2,15,0.5,0,59,59,14,1,,,,,,,,,,,,,,,,,,,,,,,,,,,,,,,,,,,,,,,,
,,,,,SPR24_090,20,female,2024-04-24_17h00.38.742,jersey_experiment_5_v0,2023.2.2,Win32,85.47008547,,,,,,,,,,,,,,,,,,,,,,,,,,,,,,,,,,,,,,,424.7526,544.745,,,,,,,,,,,,,,,,,,,,,,,,,,,,,,,,,,,,,,
,,,,,SPR24_090,20,female,2024-04-24_17h00.38.742,jersey_experiment_5_v0,2023.2.2,Win32,85.47008547,,,,,,,,,,,,,,,,,,,,,,,,,,,,,,,,,,,,,,,,,544.7451,547.1333,return,2.3779,,,,,,,,,,,,,,,,,,,,,,,,,,,,,,,,,,
,,,,,SPR24_090,20,female,2024-04-24_17h00.38.742,jersey_experiment_5_v0,2023.2.2,Win32,85.47008547,,,,,,,,,,,,,,,,547.1394,548.192,548.192,550.0508,return,0.4139,,25.78125,,,,,,FBP-OG-81.png,0.37,1.2,7,0.25,,,,,,,,,,,,,0,0,0,6,1,,,,,,,,,,,,,,,,,,,,,,,,,,,,
,,,,,SPR24_090,20,female,2024-04-24_17h00.38.742,jersey_experiment_5_v0,2023.2.2,Win32,85.47008547,,,,,,,,,,,,,,,,550.051,551.345,551.345,553.1334,return,0.1436,,64.19270833,,,,,,FBP-YG-19.png,0.43,1.2,29,0.5,,,,,,,,,,,,,0,1,1,28,1,,,,,,,,,,,,,,,,,,,,,,,,,,,,
,,,,,SPR24_090,20,female,2024-04-24_17h00.38.742,jersey_experiment_5_v0,2023.2.2,Win32,85.47008547,,,,,,,,,,,,,,,,553.1336,554.4275,554.4275,554.9922,return,0.1175,,63.93229167,,,,,,FBP-PT-18.png,0.43,1.2,54,0.5,,,,,,,,,,,,,0,2,2,53,1,,,,,,,,,,,,,,,,,,,,,,,,,,,,
,,,,,SPR24_090,20,female,2024-04-24_17h00.38.742,jersey_experiment_5_v0,2023.2.2,Win32,85.47008547,,,,,,,,,,,,,,,,554.9924,556.2863,556.2864,557.4981,return,0.0879,,38.28125,,,,,,FBP-PT-19.png,0.37,1.2,57,0.5,,,,,,,,,,,,,0,3,3,56,1,,,,,,,,,,,,,,,,,,,,,,,,,,,,
,,,,,SPR24_090,20,female,2024-04-24_17h00.38.742,jersey_experiment_5_v0,2023.2.2,Win32,85.47008547,,,,,,,,,,,,,,,,557.4983,558.7922,558.7922,559.9217,return,0.1181,,63.80208333,,,,,,FBP-YG-18.png,0.43,1.2,24,0.5,,,,,,,,,,,,,0,4,4,23,1,,,,,,,,,,,,,,,,,,,,,,,,,,,,
,,,,,SPR24_090,20,female,2024-04-24_17h00.38.742,jersey_experiment_5_v0,2023.2.2,Win32,85.47008547,,,,,,,,,,,,,,,,559.9219,560.9689,560.9689,562.1098,return,0.3897,,63.671875,,,,,,FBP-RB-17.png,0.4,1.2,33,0.25,,,,,,,,,,,,,0,5,5,32,1,,,,,,,,,,,,,,,,,,,,,,,,,,,,
,,,,,SPR24_090,20,female,2024-04-24_17h00.38.742,jersey_experiment_5_v0,2023.2.2,Win32,85.47008547,,,,,,,,,,,,,,,,562.11,563.1572,563.1572,565.3101,return,1.062,,25.78125,,,,,,FBP-RB-19.png,0.35,1.2,41,0.25,,,,,,,,,,,,,0,6,6,40,1,,,,,,,,,,,,,,,,,,,,,,,,,,,,
,,,,,SPR24_090,20,female,2024-04-24_17h00.38.742,jersey_experiment_5_v0,2023.2.2,Win32,85.47008547,,,,,,,,,,,,,,,,565.3104,566.3572,566.3572,567.6161,return,0.0574,,63.80208333,,,,,,FBP-RB-17.png,0.43,1.2,34,0.25,,,,,,,,,,,,,0,7,7,33,1,,,,,,,,,,,,,,,,,,,,,,,,,,,,
,,,,,SPR24_090,20,female,2024-04-24_17h00.38.742,jersey_experiment_5_v0,2023.2.2,Win32,85.47008547,,,,,,,,,,,,,,,,567.6162,568.6632,568.6632,570.675,return,0.0944,,63.15104167,,,,,,FBP-OG-81.png,0.4,1.2,8,0.25,,,,,,,,,,,,,0,8,8,7,1,,,,,,,,,,,,,,,,,,,,,,,,,,,,
,,,,,SPR24_090,20,female,2024-04-24_17h00.38.742,jersey_experiment_5_v0,2023.2.2,Win32,85.47008547,,,,,,,,,,,,,,,,570.6753,571.9693,571.9693,573.3575,return,0.1319,,25.26041667,,,,,,FBP-PT-19.png,0.35,1.2,56,0.5,,,,,,,,,,,,,0,9,9,55,1,,,,,,,,,,,,,,,,,,,,,,,,,,,,
,,,,,SPR24_090,20,female,2024-04-24_17h00.38.742,jersey_experiment_5_v0,2023.2.2,Win32,85.47008547,,,,,,,,,,,,,,,,573.3578,574.4047,574.4047,575.7577,return,0.0844,,75.390625,,,,,,FBP-RB-17.png,0.45,1.2,35,0.25,,,,,,,,,,,,,0,10,10,34,1,,,,,,,,,,,,,,,,,,,,,,,,,,,,
,,,,,SPR24_090,20,female,2024-04-24_17h00.38.742,jersey_experiment_5_v0,2023.2.2,Win32,85.47008547,,,,,,,,,,,,,,,,575.7579,576.8047,576.8047,577.4518,return,0.0759,,75,,,,,,FBP-OG-81.png,0.45,1.2,10,0.25,,,,,,,,,,,,,0,11,11,9,1,,,,,,,,,,,,,,,,,,,,,,,,,,,,
,,,,,SPR24_090,20,female,2024-04-24_17h00.38.742,jersey_experiment_5_v0,2023.2.2,Win32,85.47008547,,,,,,,,,,,,,,,,577.4519,578.4988,578.4989,580.9932,return,0.0844,,37.109375,,,,,,FBP-RB-19.png,0.37,1.2,42,0.25,,,,,,,,,,,,,0,12,12,41,1,,,,,,,,,,,,,,,,,,,,,,,,,,,,
,,,,,SPR24_090,20,female,2024-04-24_17h00.38.742,jersey_experiment_5_v0,2023.2.2,Win32,85.47008547,,,,,,,,,,,,,,,,580.9933,582.2873,582.2873,583.2756,return,0.1587,,25.91145833,,,,,,FBP-PT-17.png,0.35,1.2,46,0.5,,,,,,,,,,,,,0,13,13,45,1,,,,,,,,,,,,,,,,,,,,,,,,,,,,
,,,,,SPR24_090,20,female,2024-04-24_17h00.38.742,jersey_experiment_5_v0,2023.2.2,Win32,85.47008547,,,,,,,,,,,,,,,,583.2758,584.3226,584.3227,585.8403,return,0.0701,,62.23958333,,,,,,FBP-RB-18.png,0.43,1.2,39,0.25,,,,,,,,,,,,,0,14,14,38,1,,,,,,,,,,,,,,,,,,,,,,,,,,,,
,,,,,SPR24_090,20,female,2024-04-24_17h00.38.742,jersey_experiment_5_v0,2023.2.2,Win32,85.47008547,,,,,,,,,,,,,,,,585.8406,586.8873,586.8874,589.4052,return,1.2982,,24.73958333,,,,,,FBP-OG-71.png,0.35,1.2,1,0.25,,,,,,,,,,,,,0,15,15,0,1,,,,,,,,,,,,,,,,,,,,,,,,,,,,
,,,,,SPR24_090,20,female,2024-04-24_17h00.38.742,jersey_experiment_5_v0,2023.2.2,Win32,85.47008547,,,,,,,,,,,,,,,,589.4053,590.6992,590.6993,591.6759,return,0.0971,,74.86979167,,,,,,FBP-PT-17.png,0.43,1.2,49,0.5,,,,,,,,,,,,,0,16,16,48,1,,,,,,,,,,,,,,,,,,,,,,,,,,,,
,,,,,SPR24_090,20,female,2024-04-24_17h00.38.742,jersey_experiment_5_v0,2023.2.2,Win32,85.47008547,,,,,,,,,,,,,,,,591.6761,592.9699,592.97,594.5936,return,0.0377,,49.86979167,,,,,,FBP-YG-18.png,0.37,1.2,22,0.5,,,,,,,,,,,,,0,17,17,21,1,,,,,,,,,,,,,,,,,,,,,,,,,,,,
,,,,,SPR24_090,20,female,2024-04-24_17h00.38.742,jersey_experiment_5_v0,2023.2.2,Win32,85.47008547,,,,,,,,,,,,,,,,594.5939,595.8877,595.8877,597.1819,return,0.0956,,74.73958333,,,,,,FBP-YG-17.png,0.45,1.2,20,0.5,,,,,,,,,,,,,0,18,18,19,1,,,,,,,,,,,,,,,,,,,,,,,,,,,,
,,,,,SPR24_090,20,female,2024-04-24_17h00.38.742,jersey_experiment_5_v0,2023.2.2,Win32,85.47008547,,,,,,,,,,,,,,,,597.1822,598.4761,598.4762,599.7233,return,0.0984,,64.453125,,,,,,FBP-PT-17.png,0.4,1.2,48,0.5,,,,,,,,,,,,,0,19,19,47,1,,,,,,,,,,,,,,,,,,,,,,,,,,,,
,,,,,SPR24_090,20,female,2024-04-24_17h00.38.742,jersey_experiment_5_v0,2023.2.2,Win32,85.47008547,,,,,,,,,,,,,,,,599.7235,600.7702,600.7702,602.1467,return,0.2117,,75,,,,,,FBP-OG-91.png,0.43,1.2,14,0.25,,,,,,,,,,,,,0,20,20,13,1,,,,,,,,,,,,,,,,,,,,,,,,,,,,
,,,,,SPR24_090,20,female,2024-04-24_17h00.38.742,jersey_experiment_5_v0,2023.2.2,Win32,85.47008547,,,,,,,,,,,,,,,,602.147,603.4409,603.4409,606.7706,return,2.1507,,35.02604167,,,,,,FBP-YG-19.png,0.37,1.2,27,0.5,,,,,,,,,,,,,0,21,21,26,1,,,,,,,,,,,,,,,,,,,,,,,,,,,,
,,,,,SPR24_090,20,female,2024-04-24_17h00.38.742,jersey_experiment_5_v0,2023.2.2,Win32,85.47008547,,,,,,,,,,,,,,,,606.7707,608.0646,608.0646,610.347,return,0.9004,,75.26041667,,,,,,FBP-PT-19.png,0.43,1.2,59,0.5,,,,,,,,,,,,,0,22,22,58,1,,,,,,,,,,,,,,,,,,,,,,,,,,,,
,,,,,SPR24_090,20,female,2024-04-24_17h00.38.742,jersey_experiment_5_v0,2023.2.2,Win32,85.47008547,,,,,,,,,,,,,,,,610.3471,611.6415,611.6416,612.9472,return,0.2721,,49.47916667,,,,,,FBP-PT-17.png,0.37,1.2,47,0.5,,,,,,,,,,,,,0,23,23,46,1,,,,,,,,,,,,,,,,,,,,,,,,,,,,
,,,,,SPR24_090,20,female,2024-04-24_17h00.38.742,jersey_experiment_5_v0,2023.2.2,Win32,85.47008547,,,,,,,,,,,,,,,,612.9474,614.2412,614.2412,615.7119,return,0.9897,,62.890625,,,,,,FBP-YG-19.png,0.4,1.2,28,0.5,,,,,,,,,,,,,0,24,24,27,1,,,,,,,,,,,,,,,,,,,,,,,,,,,,
,,,,,SPR24_090,20,female,2024-04-24_17h00.38.742,jersey_experiment_5_v0,2023.2.2,Win32,85.47008547,,,,,,,,,,,,,,,,615.7121,617.006,617.0062,618.7944,return,0.0398,,88.15104167,,,,,,FBP-PT-17.png,0.45,1.2,50,0.5,,,,,,,,,,,,,0,25,25,49,1,,,,,,,,,,,,,,,,,,,,,,,,,,,,
,,,,,SPR24_090,20,female,2024-04-24_17h00.38.742,jersey_experiment_5_v0,2023.2.2,Win32,85.47008547,,,,,,,,,,,,,,,,618.7946,620.0886,620.0886,620.5122,return,0.0571,,88.15104167,,,,,,FBP-YG-18.png,0.45,1.2,25,0.5,,,,,,,,,,,,,0,26,26,24,1,,,,,,,,,,,,,,,,,,,,,,,,,,,,
,,,,,SPR24_090,20,female,2024-04-24_17h00.38.742,jersey_experiment_5_v0,2023.2.2,Win32,85.47008547,,,,,,,,,,,,,,,,620.5124,621.5593,621.5593,622.8181,return,0.0802,,36.19791667,,,,,,FBP-RB-18.png,0.37,1.2,37,0.25,,,,,,,,,,,,,0,27,27,36,1,,,,,,,,,,,,,,,,,,,,,,,,,,,,
,,,,,SPR24_090,20,female,2024-04-24_17h00.38.742,jersey_experiment_5_v0,2023.2.2,Win32,85.47008547,,,,,,,,,,,,,,,,622.8184,623.8654,623.8655,624.8886,return,0.1114,,36.97916667,,,,,,FBP-RB-17.png,0.37,1.2,32,0.25,,,,,,,,,,,,,0,28,28,31,1,,,,,,,,,,,,,,,,,,,,,,,,,,,,
,,,,,SPR24_090,20,female,2024-04-24_17h00.38.742,jersey_experiment_5_v0,2023.2.2,Win32,85.47008547,,,,,,,,,,,,,,,,624.8889,625.9358,625.9359,626.924,return,0.2146,,62.109375,,,,,,FBP-OG-71.png,0.43,1.2,4,0.25,,,,,,,,,,,,,0,29,29,3,1,,,,,,,,,,,,,,,,,,,,,,,,,,,,
,,,,,SPR24_090,20,female,2024-04-24_17h00.38.742,jersey_experiment_5_v0,2023.2.2,Win32,85.47008547,,,,,,,,,,,,,,,,626.9243,628.2184,628.2185,628.9596,return,0.0955,,36.328125,,,,,,FBP-PT-18.png,0.35,1.2,51,0.5,,,,,,,,,,,,,0,30,30,50,1,,,,,,,,,,,,,,,,,,,,,,,,,,,,
,,,,,SPR24_090,20,female,2024-04-24_17h00.38.742,jersey_experiment_5_v0,2023.2.2,Win32,85.47008547,,,,,,,,,,,,,,,,628.9598,630.0066,630.0066,631.1125,return,0.0911,,37.36979167,,,,,,FBP-OG-71.png,0.37,1.2,2,0.25,,,,,,,,,,,,,0,31,31,1,1,,,,,,,,,,,,,,,,,,,,,,,,,,,,
,,,,,SPR24_090,20,female,2024-04-24_17h00.38.742,jersey_experiment_5_v0,2023.2.2,Win32,85.47008547,,,,,,,,,,,,,,,,631.1127,632.4067,632.4067,633.6185,return,0.1414,,61.328125,,,,,,FBP-YG-17.png,0.4,1.2,18,0.5,,,,,,,,,,,,,0,32,32,17,1,,,,,,,,,,,,,,,,,,,,,,,,,,,,
,,,,,SPR24_090,20,female,2024-04-24_17h00.38.742,jersey_experiment_5_v0,2023.2.2,Win32,85.47008547,,,,,,,,,,,,,,,,633.6186,634.6656,634.6656,635.1833,return,0.2252,,61.328125,,,,,,FBP-RB-19.png,0.4,1.2,43,0.25,,,,,,,,,,,,,0,33,33,42,1,,,,,,,,,,,,,,,,,,,,,,,,,,,,
,,,,,SPR24_090,20,female,2024-04-24_17h00.38.742,jersey_experiment_5_v0,2023.2.2,Win32,85.47008547,,,,,,,,,,,,,,,,635.1835,636.4774,636.4775,637.3246,return,0.0973,,37.23958333,,,,,,FBP-YG-17.png,0.35,1.2,16,0.5,,,,,,,,,,,,,0,34,34,15,1,,,,,,,,,,,,,,,,,,,,,,,,,,,,
,,,,,SPR24_090,20,female,2024-04-24_17h00.38.742,jersey_experiment_5_v0,2023.2.2,Win32,85.47008547,,,,,,,,,,,,,,,,637.3248,638.3715,638.3716,639.4186,return,0.0889,,25.13020833,,,,,,FBP-OG-91.png,0.35,1.2,11,0.25,,,,,,,,,,,,,0,35,35,10,1,,,,,,,,,,,,,,,,,,,,,,,,,,,,
,,,,,SPR24_090,20,female,2024-04-24_17h00.38.742,jersey_experiment_5_v0,2023.2.2,Win32,85.47008547,,,,,,,,,,,,,,,,639.4188,640.4658,640.4658,641.8894,return,0.3907,,73.30729167,,,,,,FBP-OG-91.png,0.45,1.2,15,0.25,,,,,,,,,,,,,0,36,36,14,1,,,,,,,,,,,,,,,,,,,,,,,,,,,,
,,,,,SPR24_090,20,female,2024-04-24_17h00.38.742,jersey_experiment_5_v0,2023.2.2,Win32,85.47008547,,,,,,,,,,,,,,,,641.8896,643.1835,643.1835,644.1247,return,0.4492,,74.73958333,,,,,,FBP-PT-19.png,0.45,1.2,60,0.5,,,,,,,,,,,,,0,37,37,59,1,,,,,,,,,,,,,,,,,,,,,,,,,,,,
,,,,,SPR24_090,20,female,2024-04-24_17h00.38.742,jersey_experiment_5_v0,2023.2.2,Win32,85.47008547,,,,,,,,,,,,,,,,644.1249,645.4189,645.4189,646.0895,return,0.229,,74.609375,,,,,,FBP-YG-19.png,0.45,1.2,30,0.5,,,,,,,,,,,,,0,38,38,29,1,,,,,,,,,,,,,,,,,,,,,,,,,,,,
,,,,,SPR24_090,20,female,2024-04-24_17h00.38.742,jersey_experiment_5_v0,2023.2.2,Win32,85.47008547,,,,,,,,,,,,,,,,646.0897,647.3837,647.3837,648.4896,return,0.1486,,61.84895833,,,,,,FBP-YG-18.png,0.4,1.2,23,0.5,,,,,,,,,,,,,0,39,39,22,1,,,,,,,,,,,,,,,,,,,,,,,,,,,,
,,,,,SPR24_090,20,female,2024-04-24_17h00.38.742,jersey_experiment_5_v0,2023.2.2,Win32,85.47008547,,,,,,,,,,,,,,,,648.4897,649.7837,649.7837,650.8191,return,0.1883,,73.69791667,,,,,,FBP-YG-17.png,0.43,1.2,19,0.5,,,,,,,,,,,,,0,40,40,18,1,,,,,,,,,,,,,,,,,,,,,,,,,,,,
,,,,,SPR24_090,20,female,2024-04-24_17h00.38.742,jersey_experiment_5_v0,2023.2.2,Win32,85.47008547,,,,,,,,,,,,,,,,650.8194,652.1132,652.1133,652.8426,return,0.2181,,76.04166667,,,,,,FBP-PT-18.png,0.45,1.2,55,0.5,,,,,,,,,,,,,0,41,41,54,1,,,,,,,,,,,,,,,,,,,,,,,,,,,,
,,,,,SPR24_090,20,female,2024-04-24_17h00.38.742,jersey_experiment_5_v0,2023.2.2,Win32,85.47008547,,,,,,,,,,,,,,,,652.8427,653.8898,653.8898,655.5134,return,1.1115,,75.78125,,,,,,FBP-RB-18.png,0.45,1.2,40,0.25,,,,,,,,,,,,,0,42,42,39,1,,,,,,,,,,,,,,,,,,,,,,,,,,,,
,,,,,SPR24_090,20,female,2024-04-24_17h00.38.742,jersey_experiment_5_v0,2023.2.2,Win32,85.47008547,,,,,,,,,,,,,,,,655.5136,656.5605,656.5606,657.9604,return,0.1146,,24.86979167,,,,,,FBP-RB-17.png,0.35,1.2,31,0.25,,,,,,,,,,,,,0,43,43,30,1,,,,,,,,,,,,,,,,,,,,,,,,,,,,
,,,,,SPR24_090,20,female,2024-04-24_17h00.38.742,jersey_experiment_5_v0,2023.2.2,Win32,85.47008547,,,,,,,,,,,,,,,,657.9605,659.0075,659.0076,661.2783,return,0.2262,,37.890625,,,,,,FBP-RB-19.png,0.43,1.2,44,0.25,,,,,,,,,,,,,0,44,44,43,1,,,,,,,,,,,,,,,,,,,,,,,,,,,,
,,,,,SPR24_090,20,female,2024-04-24_17h00.38.742,jersey_experiment_5_v0,2023.2.2,Win32,85.47008547,,,,,,,,,,,,,,,,661.2785,662.3254,662.3254,663.8901,return,0.1189,,74.609375,,,,,,FBP-OG-71.png,0.45,1.2,5,0.25,,,,,,,,,,,,,0,45,45,4,1,,,,,,,,,,,,,,,,,,,,,,,,,,,,
,,,,,SPR24_090,20,female,2024-04-24_17h00.38.742,jersey_experiment_5_v0,2023.2.2,Win32,85.47008547,,,,,,,,,,,,,,,,663.8903,664.9372,664.9372,667.4079,return,0.0343,,60.28645833,,,,,,FBP-OG-71.png,0.4,1.2,3,0.25,,,,,,,,,,,,,0,46,46,2,1,,,,,,,,,,,,,,,,,,,,,,,,,,,,
,,,,,SPR24_090,20,female,2024-04-24_17h00.38.742,jersey_experiment_5_v0,2023.2.2,Win32,85.47008547,,,,,,,,,,,,,,,,667.408,668.4549,668.455,669.3373,return,0.2195,,60.28645833,,,,,,FBP-RB-18.png,0.4,1.2,38,0.25,,,,,,,,,,,,,0,47,47,37,1,,,,,,,,,,,,,,,,,,,,,,,,,,,,
,,,,,SPR24_090,20,female,2024-04-24_17h00.38.742,jersey_experiment_5_v0,2023.2.2,Win32,85.47008547,,,,,,,,,,,,,,,,669.3375,670.3845,670.3845,671.7257,return,0.8154,,74.86979167,,,,,,FBP-OG-81.png,0.43,1.2,9,0.25,,,,,,,,,,,,,0,48,48,8,1,,,,,,,,,,,,,,,,,,,,,,,,,,,,
,,,,,SPR24_090,20,female,2024-04-24_17h00.38.742,jersey_experiment_5_v0,2023.2.2,Win32,85.47008547,,,,,,,,,,,,,,,,671.7259,672.7729,672.7729,674.1258,return,0.0483,,24.609375,,,,,,FBP-OG-81.png,0.35,1.2,6,0.25,,,,,,,,,,,,,0,49,49,5,1,,,,,,,,,,,,,,,,,,,,,,,,,,,,
,,,,,SPR24_090,20,female,2024-04-24_17h00.38.742,jersey_experiment_5_v0,2023.2.2,Win32,85.47008547,,,,,,,,,,,,,,,,674.126,675.1728,675.1728,676.4436,return,0.0765,,73.4375,,,,,,FBP-RB-19.png,0.45,1.2,45,0.25,,,,,,,,,,,,,0,50,50,44,1,,,,,,,,,,,,,,,,,,,,,,,,,,,,
,,,,,SPR24_090,20,female,2024-04-24_17h00.38.742,jersey_experiment_5_v0,2023.2.2,Win32,85.47008547,,,,,,,,,,,,,,,,676.4438,677.7376,677.7376,678.4435,return,0.0152,,37.23958333,,,,,,FBP-YG-18.png,0.35,1.2,21,0.5,,,,,,,,,,,,,0,51,51,20,1,,,,,,,,,,,,,,,,,,,,,,,,,,,,
,,,,,SPR24_090,20,female,2024-04-24_17h00.38.742,jersey_experiment_5_v0,2023.2.2,Win32,85.47008547,,,,,,,,,,,,,,,,678.4437,679.7377,679.7377,680.6672,return,0.0882,,61.84895833,,,,,,FBP-PT-18.png,0.4,1.2,53,0.5,,,,,,,,,,,,,0,52,52,52,1,,,,,,,,,,,,,,,,,,,,,,,,,,,,
,,,,,SPR24_090,20,female,2024-04-24_17h00.38.742,jersey_experiment_5_v0,2023.2.2,Win32,85.47008547,,,,,,,,,,,,,,,,680.6674,681.7143,681.7144,682.3379,return,0.0236,,61.84895833,,,,,,FBP-OG-91.png,0.4,1.2,13,0.25,,,,,,,,,,,,,0,53,53,12,1,,,,,,,,,,,,,,,,,,,,,,,,,,,,
,,,,,SPR24_090,20,female,2024-04-24_17h00.38.742,jersey_experiment_5_v0,2023.2.2,Win32,85.47008547,,,,,,,,,,,,,,,,682.338,683.3849,683.3849,683.8086,return,0.0474,,61.84895833,,,,,,FBP-OG-91.png,0.37,1.2,12,0.25,,,,,,,,,,,,,0,54,54,11,1,,,,,,,,,,,,,,,,,,,,,,,,,,,,
,,,,,SPR24_090,20,female,2024-04-24_17h00.38.742,jersey_experiment_5_v0,2023.2.2,Win32,85.47008547,,,,,,,,,,,,,,,,683.8088,685.1026,685.1026,685.8085,return,0.0811,,61.19791667,,,,,,FBP-YG-19.png,0.35,1.2,26,0.5,,,,,,,,,,,,,0,55,55,25,1,,,,,,,,,,,,,,,,,,,,,,,,,,,,
,,,,,SPR24_090,20,female,2024-04-24_17h00.38.742,jersey_experiment_5_v0,2023.2.2,Win32,85.47008547,,,,,,,,,,,,,,,,685.8087,687.1027,687.1028,687.738,return,0.0629,,61.19791667,,,,,,FBP-PT-18.png,0.37,1.2,52,0.5,,,,,,,,,,,,,0,56,56,51,1,,,,,,,,,,,,,,,,,,,,,,,,,,,,
,,,,,SPR24_090,20,female,2024-04-24_17h00.38.742,jersey_experiment_5_v0,2023.2.2,Win32,85.47008547,,,,,,,,,,,,,,,,687.7381,689.0321,689.0322,689.3616,return,0.0573,,61.19791667,,,,,,FBP-YG-17.png,0.37,1.2,17,0.5,,,,,,,,,,,,,0,57,57,16,1,,,,,,,,,,,,,,,,,,,,,,,,,,,,
,,,,,SPR24_090,20,female,2024-04-24_17h00.38.742,jersey_experiment_5_v0,2023.2.2,Win32,85.47008547,,,,,,,,,,,,,,,,689.3618,690.4088,690.4088,691.6441,return,0.0858,,35.80729167,,,,,,FBP-RB-18.png,0.35,1.2,36,0.25,,,,,,,,,,,,,0,58,58,35,1,,,,,,,,,,,,,,,,,,,,,,,,,,,,
,,,,,SPR24_090,20,female,2024-04-24_17h00.38.742,jersey_experiment_5_v0,2023.2.2,Win32,85.47008547,,,,,,,,,,,,,,,,691.6442,692.9381,692.9382,694.5148,return,0.0095,,61.06770833,,,,,,FBP-PT-19.png,0.4,1.2,58,0.5,,,,,,,,,,,,,0,59,59,57,1,,,,,,,,,,,,,,,,,,,,,,,,,,,,
,,,,,SPR24_090,20,female,2024-04-24_17h00.38.742,jersey_experiment_5_v0,2023.2.2,Win32,85.47008547,,,,,,,,,,,,,,,,694.5161,695.8088,695.8089,696.6207,return,0.0972,,73.95833333,,,,,,FBP-PT-81.png,0.45,1.2,55,0.5,,,,,,,,,,,,,,,,,,0,0,0,54,1,,,,,,,,,,,,,,,,,,,,,,,
,,,,,SPR24_090,20,female,2024-04-24_17h00.38.742,jersey_experiment_5_v0,2023.2.2,Win32,85.47008547,,,,,,,,,,,,,,,,696.621,697.9148,697.9149,699.4679,return,0.1443,,99.47916667,,,,,,FBP-YG-91.png,0.45,1.2,30,0.5,,,,,,,,,,,,,,,,,,0,1,1,29,1,,,,,,,,,,,,,,,,,,,,,,,
,,,,,SPR24_090,20,female,2024-04-24_17h00.38.742,jersey_experiment_5_v0,2023.2.2,Win32,85.47008547,,,,,,,,,,,,,,,,699.4681,700.7619,700.7619,701.7149,return,0.0477,,74.73958333,,,,,,FBP-YG-71.png,0.4,1.2,18,0.5,,,,,,,,,,,,,,,,,,0,2,2,17,1,,,,,,,,,,,,,,,,,,,,,,,
,,,,,SPR24_090,20,female,2024-04-24_17h00.38.742,jersey_experiment_5_v0,2023.2.2,Win32,85.47008547,,,,,,,,,,,,,,,,701.7151,702.7621,702.7621,703.3385,return,0.0065,,74.73958333,,,,,,FBP-RB-91.png,0.37,1.2,42,0.25,,,,,,,,,,,,,,,,,,0,3,3,41,1,,,,,,,,,,,,,,,,,,,,,,,
,,,,,SPR24_090,20,female,2024-04-24_17h00.38.742,jersey_experiment_5_v0,2023.2.2,Win32,85.47008547,,,,,,,,,,,,,,,,703.3386,704.6327,704.6327,704.9386,return,0.1342,,74.73958333,,,,,,FBP-YG-91.png,0.4,1.2,28,0.5,,,,,,,,,,,,,,,,,,0,4,4,27,1,,,,,,,,,,,,,,,,,,,,,,,
,,,,,SPR24_090,20,female,2024-04-24_17h00.38.742,jersey_experiment_5_v0,2023.2.2,Win32,85.47008547,,,,,,,,,,,,,,,,704.9388,705.9857,705.9858,706.9741,return,0.048,,61.06770833,,,,,,FBP-RB-91.png,0.35,1.2,41,0.25,,,,,,,,,,,,,,,,,,0,5,5,40,1,,,,,,,,,,,,,,,,,,,,,,,
,,,,,SPR24_090,20,female,2024-04-24_17h00.38.742,jersey_experiment_5_v0,2023.2.2,Win32,85.47008547,,,,,,,,,,,,,,,,706.9742,708.0209,708.0209,709.1153,return,0.1354,,35.9375,,,,,,FBP-OG-17.png,0.35,1.2,1,0.25,,,,,,,,,,,,,,,,,,0,6,6,0,1,,,,,,,,,,,,,,,,,,,,,,,
,,,,,SPR24_090,20,female,2024-04-24_17h00.38.742,jersey_experiment_5_v0,2023.2.2,Win32,85.47008547,,,,,,,,,,,,,,,,709.1154,710.4095,710.4096,711.1976,return,0.1917,,66.66666667,,,,,,FBP-PT-71.png,0.45,1.2,50,0.5,,,,,,,,,,,,,,,,,,0,7,7,49,1,,,,,,,,,,,,,,,,,,,,,,,
,,,,,SPR24_090,20,female,2024-04-24_17h00.38.742,jersey_experiment_5_v0,2023.2.2,Win32,85.47008547,,,,,,,,,,,,,,,,711.1978,712.2449,712.2449,712.7154,return,0.0275,,66.66666667,,,,,,FBP-RB-81.png,0.43,1.2,39,0.25,,,,,,,,,,,,,,,,,,0,8,8,38,1,,,,,,,,,,,,,,,,,,,,,,,
,,,,,SPR24_090,20,female,2024-04-24_17h00.38.742,jersey_experiment_5_v0,2023.2.2,Win32,85.47008547,,,,,,,,,,,,,,,,712.7156,714.0096,714.0096,714.9272,return,0.0714,,39.19270833,,,,,,FBP-YG-81.png,0.37,1.2,22,0.5,,,,,,,,,,,,,,,,,,0,9,9,21,1,,,,,,,,,,,,,,,,,,,,,,,
,,,,,SPR24_090,20,female,2024-04-24_17h00.38.742,jersey_experiment_5_v0,2023.2.2,Win32,85.47008547,,,,,,,,,,,,,,,,714.9274,715.9743,715.9743,716.3507,return,0.002,,39.19270833,,,,,,FBP-RB-81.png,0.37,1.2,37,0.25,,,,,,,,,,,,,,,,,,0,10,10,36,1,,,,,,,,,,,,,,,,,,,,,,,
,,,,,SPR24_090,20,female,2024-04-24_17h00.38.742,jersey_experiment_5_v0,2023.2.2,Win32,85.47008547,,,,,,,,,,,,,,,,716.3508,717.6449,717.645,717.8333,return,0.0402,,39.19270833,,,,,,FBP-PT-81.png,0.37,1.2,52,0.5,,,,,,,,,,,,,,,,,,0,11,11,51,1,,,,,,,,,,,,,,,,,,,,,,,
,,,,,SPR24_090,20,female,2024-04-24_17h00.38.742,jersey_experiment_5_v0,2023.2.2,Win32,85.47008547,,,,,,,,,,,,,,,,717.8335,719.1273,719.1273,720.751,return,0.3411,,38.80208333,,,,,,FBP-PT-71.png,0.37,1.2,47,0.5,,,,,,,,,,,,,,,,,,0,12,12,46,1,,,,,,,,,,,,,,,,,,,,,,,
,,,,,SPR24_090,20,female,2024-04-24_17h00.38.742,jersey_experiment_5_v0,2023.2.2,Win32,85.47008547,,,,,,,,,,,,,,,,720.7512,722.0451,722.0451,724.1275,return,1.3083,,38.80208333,,,,,,FBP-YG-71.png,0.37,1.2,17,0.5,,,,,,,,,,,,,,,,,,0,13,13,16,1,,,,,,,,,,,,,,,,,,,,,,,
,,,,,SPR24_090,20,female,2024-04-24_17h00.38.742,jersey_experiment_5_v0,2023.2.2,Win32,85.47008547,,,,,,,,,,,,,,,,724.1276,725.4217,725.4217,726.0451,return,0.2254,,38.80208333,,,,,,FBP-PT-81.png,0.35,1.2,51,0.5,,,,,,,,,,,,,,,,,,0,14,14,50,1,,,,,,,,,,,,,,,,,,,,,,,
,,,,,SPR24_090,20,female,2024-04-24_17h00.38.742,jersey_experiment_5_v0,2023.2.2,Win32,85.47008547,,,,,,,,,,,,,,,,726.0453,727.0924,727.0925,727.6454,return,0.1781,,38.80208333,,,,,,FBP-OG-19.png,0.4,1.2,13,0.25,,,,,,,,,,,,,,,,,,0,15,15,12,1,,,,,,,,,,,,,,,,,,,,,,,
,,,,,SPR24_090,20,female,2024-04-24_17h00.38.742,jersey_experiment_5_v0,2023.2.2,Win32,85.47008547,,,,,,,,,,,,,,,,727.6456,728.6924,728.6924,729.5041,return,0.2122,,38.80208333,,,,,,FBP-RB-71.png,0.4,1.2,33,0.25,,,,,,,,,,,,,,,,,,0,16,16,32,1,,,,,,,,,,,,,,,,,,,,,,,
,,,,,SPR24_090,20,female,2024-04-24_17h00.38.742,jersey_experiment_5_v0,2023.2.2,Win32,85.47008547,,,,,,,,,,,,,,,,729.5043,730.5514,730.5515,732.081,return,0.0935,,24.73958333,,,,,,FBP-OG-18.png,0.37,1.2,7,0.25,,,,,,,,,,,,,,,,,,0,17,17,6,1,,,,,,,,,,,,,,,,,,,,,,,
,,,,,SPR24_090,20,female,2024-04-24_17h00.38.742,jersey_experiment_5_v0,2023.2.2,Win32,85.47008547,,,,,,,,,,,,,,,,732.0812,733.1278,733.1279,734.2102,return,0.0566,,75.52083333,,,,,,FBP-OG-17.png,0.45,1.2,5,0.25,,,,,,,,,,,,,,,,,,0,18,18,4,1,,,,,,,,,,,,,,,,,,,,,,,
,,,,,SPR24_090,20,female,2024-04-24_17h00.38.742,jersey_experiment_5_v0,2023.2.2,Win32,85.47008547,,,,,,,,,,,,,,,,734.2103,735.5043,735.5044,736.6692,return,0.6838,,63.54166667,,,,,,FBP-YG-81.png,0.4,1.2,23,0.5,,,,,,,,,,,,,,,,,,0,19,19,22,1,,,,,,,,,,,,,,,,,,,,,,,
,,,,,SPR24_090,20,female,2024-04-24_17h00.38.742,jersey_experiment_5_v0,2023.2.2,Win32,85.47008547,,,,,,,,,,,,,,,,736.6694,737.9634,737.9634,738.8575,return,0.3722,,75.13020833,,,,,,FBP-YG-81.png,0.45,1.2,25,0.5,,,,,,,,,,,,,,,,,,0,20,20,24,1,,,,,,,,,,,,,,,,,,,,,,,
,,,,,SPR24_090,20,female,2024-04-24_17h00.38.742,jersey_experiment_5_v0,2023.2.2,Win32,85.47008547,,,,,,,,,,,,,,,,738.8578,739.9045,739.9045,740.9045,return,0.0908,,88.02083333,,,,,,FBP-RB-71.png,0.45,1.2,35,0.25,,,,,,,,,,,,,,,,,,0,21,21,34,1,,,,,,,,,,,,,,,,,,,,,,,
,,,,,SPR24_090,20,female,2024-04-24_17h00.38.742,jersey_experiment_5_v0,2023.2.2,Win32,85.47008547,,,,,,,,,,,,,,,,740.9048,742.199,742.199,743.0692,return,0.0721,,62.23958333,,,,,,FBP-YG-91.png,0.37,1.2,27,0.5,,,,,,,,,,,,,,,,,,0,22,22,26,1,,,,,,,,,,,,,,,,,,,,,,,
,,,,,SPR24_090,20,female,2024-04-24_17h00.38.742,jersey_experiment_5_v0,2023.2.2,Win32,85.47008547,,,,,,,,,,,,,,,,743.0695,744.3636,744.3636,744.6342,return,0.1111,,62.23958333,,,,,,FBP-PT-81.png,0.4,1.2,53,0.5,,,,,,,,,,,,,,,,,,0,23,23,52,1,,,,,,,,,,,,,,,,,,,,,,,
,,,,,SPR24_090,20,female,2024-04-24_17h00.38.742,jersey_experiment_5_v0,2023.2.2,Win32,85.47008547,,,,,,,,,,,,,,,,744.6344,745.6812,745.6813,746.9518,return,0.7596,,74.609375,,,,,,FBP-OG-19.png,0.45,1.2,15,0.25,,,,,,,,,,,,,,,,,,0,24,24,14,1,,,,,,,,,,,,,,,,,,,,,,,
,,,,,SPR24_090,20,female,2024-04-24_17h00.38.742,jersey_experiment_5_v0,2023.2.2,Win32,85.47008547,,,,,,,,,,,,,,,,746.9519,748.2462,748.2462,748.5637,return,0.094,,74.609375,,,,,,FBP-YG-71.png,0.43,1.2,19,0.5,,,,,,,,,,,,,,,,,,0,25,25,18,1,,,,,,,,,,,,,,,,,,,,,,,
,,,,,SPR24_090,20,female,2024-04-24_17h00.38.742,jersey_experiment_5_v0,2023.2.2,Win32,85.47008547,,,,,,,,,,,,,,,,748.5638,749.6108,749.6108,750.0461,return,0.0264,,74.609375,,,,,,FBP-RB-81.png,0.45,1.2,40,0.25,,,,,,,,,,,,,,,,,,0,26,26,39,1,,,,,,,,,,,,,,,,,,,,,,,
,,,,,SPR24_090,20,female,2024-04-24_17h00.38.742,jersey_experiment_5_v0,2023.2.2,Win32,85.47008547,,,,,,,,,,,,,,,,750.0462,751.0933,751.0933,752.1874,return,0.0289,,38.15104167,,,,,,FBP-RB-81.png,0.35,1.2,36,0.25,,,,,,,,,,,,,,,,,,0,27,27,35,1,,,,,,,,,,,,,,,,,,,,,,,
,,,,,SPR24_090,20,female,2024-04-24_17h00.38.742,jersey_experiment_5_v0,2023.2.2,Win32,85.47008547,,,,,,,,,,,,,,,,752.1876,753.4816,753.4816,754.2816,return,0.2052,,60.67708333,,,,,,FBP-PT-71.png,0.43,1.2,49,0.5,,,,,,,,,,,,,,,,,,0,28,28,48,1,,,,,,,,,,,,,,,,,,,,,,,
,,,,,SPR24_090,20,female,2024-04-24_17h00.38.742,jersey_experiment_5_v0,2023.2.2,Win32,85.47008547,,,,,,,,,,,,,,,,754.2818,755.5756,755.5756,756.3051,return,0.0707,,38.54166667,,,,,,FBP-PT-91.png,0.35,1.2,56,0.5,,,,,,,,,,,,,,,,,,0,29,29,55,1,,,,,,,,,,,,,,,,,,,,,,,
,,,,,SPR24_090,20,female,2024-04-24_17h00.38.742,jersey_experiment_5_v0,2023.2.2,Win32,85.47008547,,,,,,,,,,,,,,,,756.3054,757.5995,757.5995,758.4464,return,0.0824,,35.9375,,,,,,FBP-PT-71.png,0.4,1.2,48,0.5,,,,,,,,,,,,,,,,,,0,30,30,47,1,,,,,,,,,,,,,,,,,,,,,,,
,,,,,SPR24_090,20,female,2024-04-24_17h00.38.742,jersey_experiment_5_v0,2023.2.2,Win32,85.47008547,,,,,,,,,,,,,,,,758.4466,759.4935,759.4935,760.6701,return,0.6122,,60.80729167,,,,,,FBP-RB-91.png,0.4,1.2,43,0.25,,,,,,,,,,,,,,,,,,0,31,31,42,1,,,,,,,,,,,,,,,,,,,,,,,
,,,,,SPR24_090,20,female,2024-04-24_17h00.38.742,jersey_experiment_5_v0,2023.2.2,Win32,85.47008547,,,,,,,,,,,,,,,,760.6703,761.7172,761.7172,762.6819,return,0.0541,,37.76041667,,,,,,FBP-RB-71.png,0.35,1.2,31,0.25,,,,,,,,,,,,,,,,,,0,32,32,30,1,,,,,,,,,,,,,,,,,,,,,,,
,,,,,SPR24_090,20,female,2024-04-24_17h00.38.742,jersey_experiment_5_v0,2023.2.2,Win32,85.47008547,,,,,,,,,,,,,,,,762.6821,763.9761,763.9761,764.7995,return,0.0347,,39.453125,,,,,,FBP-PT-91.png,0.37,1.2,57,0.5,,,,,,,,,,,,,,,,,,0,33,33,56,1,,,,,,,,,,,,,,,,,,,,,,,
,,,,,SPR24_090,20,female,2024-04-24_17h00.38.742,jersey_experiment_5_v0,2023.2.2,Win32,85.47008547,,,,,,,,,,,,,,,,764.7997,766.0938,766.0939,767.1055,return,0.6118,,37.5,,,,,,FBP-YG-91.png,0.35,1.2,26,0.5,,,,,,,,,,,,,,,,,,0,34,34,25,1,,,,,,,,,,,,,,,,,,,,,,,
,,,,,SPR24_090,20,female,2024-04-24_17h00.38.742,jersey_experiment_5_v0,2023.2.2,Win32,85.47008547,,,,,,,,,,,,,,,,767.1058,768.3997,768.3997,768.7528,return,0.1648,,37.5,,,,,,FBP-PT-71.png,0.35,1.2,46,0.5,,,,,,,,,,,,,,,,,,0,35,35,45,1,,,,,,,,,,,,,,,,,,,,,,,
,,,,,SPR24_090,20,female,2024-04-24_17h00.38.742,jersey_experiment_5_v0,2023.2.2,Win32,85.47008547,,,,,,,,,,,,,,,,768.753,769.7997,769.7998,771.1527,return,0.057,,74.86979167,,,,,,FBP-OG-18.png,0.45,1.2,10,0.25,,,,,,,,,,,,,,,,,,0,36,36,9,1,,,,,,,,,,,,,,,,,,,,,,,
,,,,,SPR24_090,20,female,2024-04-24_17h00.38.742,jersey_experiment_5_v0,2023.2.2,Win32,85.47008547,,,,,,,,,,,,,,,,771.1529,772.1998,772.1998,773.1998,return,0.0248,,37.109375,,,,,,FBP-OG-19.png,0.35,1.2,11,0.25,,,,,,,,,,,,,,,,,,0,37,37,10,1,,,,,,,,,,,,,,,,,,,,,,,
,,,,,SPR24_090,20,female,2024-04-24_17h00.38.742,jersey_experiment_5_v0,2023.2.2,Win32,85.47008547,,,,,,,,,,,,,,,,773.2,774.4941,774.4941,775.6823,return,0.0952,,74.609375,,,,,,FBP-YG-91.png,0.43,1.2,29,0.5,,,,,,,,,,,,,,,,,,0,38,38,28,1,,,,,,,,,,,,,,,,,,,,,,,
,,,,,SPR24_090,20,female,2024-04-24_17h00.38.742,jersey_experiment_5_v0,2023.2.2,Win32,85.47008547,,,,,,,,,,,,,,,,775.6825,776.7294,776.7294,777.7766,return,0.2828,,74.08854167,,,,,,FBP-OG-19.png,0.43,1.2,14,0.25,,,,,,,,,,,,,,,,,,0,39,39,13,1,,,,,,,,,,,,,,,,,,,,,,,
,,,,,SPR24_090,20,female,2024-04-24_17h00.38.742,jersey_experiment_5_v0,2023.2.2,Win32,85.47008547,,,,,,,,,,,,,,,,777.7769,779.071,779.071,779.6941,return,0.1539,,75.390625,,,,,,FBP-PT-81.png,0.43,1.2,54,0.5,,,,,,,,,,,,,,,,,,0,40,40,53,1,,,,,,,,,,,,,,,,,,,,,,,
,,,,,SPR24_090,20,female,2024-04-24_17h00.38.742,jersey_experiment_5_v0,2023.2.2,Win32,85.47008547,,,,,,,,,,,,,,,,779.6943,780.7414,780.7415,782.8472,return,0.1762,,99.73958333,,,,,,FBP-RB-91.png,0.45,1.2,45,0.25,,,,,,,,,,,,,,,,,,0,41,41,44,1,,,,,,,,,,,,,,,,,,,,,,,
,,,,,SPR24_090,20,female,2024-04-24_17h00.38.742,jersey_experiment_5_v0,2023.2.2,Win32,85.47008547,,,,,,,,,,,,,,,,782.8474,783.8944,783.8945,785.6474,return,0.1287,,37.5,,,,,,FBP-RB-71.png,0.37,1.2,32,0.25,,,,,,,,,,,,,,,,,,0,42,42,31,1,,,,,,,,,,,,,,,,,,,,,,,
,,,,,SPR24_090,20,female,2024-04-24_17h00.38.742,jersey_experiment_5_v0,2023.2.2,Win32,85.47008547,,,,,,,,,,,,,,,,785.6477,786.6944,786.6944,788.7532,return,0.9513,,74.86979167,,,,,,FBP-OG-18.png,0.43,1.2,9,0.25,,,,,,,,,,,,,,,,,,0,43,43,8,1,,,,,,,,,,,,,,,,,,,,,,,
,,,,,SPR24_090,20,female,2024-04-24_17h00.38.742,jersey_experiment_5_v0,2023.2.2,Win32,85.47008547,,,,,,,,,,,,,,,,788.7534,789.8004,789.8004,790.8946,return,0.0831,,39.97395833,,,,,,FBP-OG-18.png,0.35,1.2,6,0.25,,,,,,,,,,,,,,,,,,0,44,44,5,1,,,,,,,,,,,,,,,,,,,,,,,
,,,,,SPR24_090,20,female,2024-04-24_17h00.38.742,jersey_experiment_5_v0,2023.2.2,Win32,85.47008547,,,,,,,,,,,,,,,,790.8947,791.9419,791.9419,792.9535,return,0.0285,,75.13020833,,,,,,FBP-RB-91.png,0.43,1.2,44,0.25,,,,,,,,,,,,,,,,,,0,45,45,43,1,,,,,,,,,,,,,,,,,,,,,,,
,,,,,SPR24_090,20,female,2024-04-24_17h00.38.742,jersey_experiment_5_v0,2023.2.2,Win32,85.47008547,,,,,,,,,,,,,,,,792.9537,794.0006,794.0006,795.0831,return,0.0999,,38.28125,,,,,,FBP-OG-17.png,0.37,1.2,2,0.25,,,,,,,,,,,,,,,,,,0,46,46,1,1,,,,,,,,,,,,,,,,,,,,,,,
,,,,,SPR24_090,20,female,2024-04-24_17h00.38.742,jersey_experiment_5_v0,2023.2.2,Win32,85.47008547,,,,,,,,,,,,,,,,795.0832,796.3772,796.3772,797.4244,return,0.037,,65.234375,,,,,,FBP-PT-91.png,0.45,1.2,60,0.5,,,,,,,,,,,,,,,,,,0,47,47,59,1,,,,,,,,,,,,,,,,,,,,,,,
,,,,,SPR24_090,20,female,2024-04-24_17h00.38.742,jersey_experiment_5_v0,2023.2.2,Win32,85.47008547,,,,,,,,,,,,,,,,797.4245,798.4714,798.4714,799.0832,return,0.1,,64.0625,,,,,,FBP-RB-71.png,0.43,1.2,34,0.25,,,,,,,,,,,,,,,,,,0,48,48,33,1,,,,,,,,,,,,,,,,,,,,,,,
,,,,,SPR24_090,20,female,2024-04-24_17h00.38.742,jersey_experiment_5_v0,2023.2.2,Win32,85.47008547,,,,,,,,,,,,,,,,799.0833,800.1302,800.1302,800.7187,return,0.0707,,63.93229167,,,,,,FBP-RB-81.png,0.4,1.2,38,0.25,,,,,,,,,,,,,,,,,,0,49,49,37,1,,,,,,,,,,,,,,,,,,,,,,,
,,,,,SPR24_090,20,female,2024-04-24_17h00.38.742,jersey_experiment_5_v0,2023.2.2,Win32,85.47008547,,,,,,,,,,,,,,,,800.7188,802.0126,802.0127,802.5068,return,0.0748,,63.93229167,,,,,,FBP-PT-91.png,0.43,1.2,59,0.5,,,,,,,,,,,,,,,,,,0,50,50,58,1,,,,,,,,,,,,,,,,,,,,,,,
,,,,,SPR24_090,20,female,2024-04-24_17h00.38.742,jersey_experiment_5_v0,2023.2.2,Win32,85.47008547,,,,,,,,,,,,,,,,802.507,803.801,803.8011,805.2951,return,0.1757,,74.34895833,,,,,,FBP-YG-71.png,0.45,1.2,20,0.5,,,,,,,,,,,,,,,,,,0,51,51,19,1,,,,,,,,,,,,,,,,,,,,,,,
,,,,,SPR24_090,20,female,2024-04-24_17h00.38.742,jersey_experiment_5_v0,2023.2.2,Win32,85.47008547,,,,,,,,,,,,,,,,805.2954,806.3423,806.3423,806.9542,return,0.1832,,74.34895833,,,,,,FBP-OG-17.png,0.43,1.2,4,0.25,,,,,,,,,,,,,,,,,,0,52,52,3,1,,,,,,,,,,,,,,,,,,,,,,,
,,,,,SPR24_090,20,female,2024-04-24_17h00.38.742,jersey_experiment_5_v0,2023.2.2,Win32,85.47008547,,,,,,,,,,,,,,,,806.9543,808.2484,808.2485,809.1187,return,0.1083,,36.84895833,,,,,,FBP-YG-71.png,0.35,1.2,16,0.5,,,,,,,,,,,,,,,,,,0,53,53,15,1,,,,,,,,,,,,,,,,,,,,,,,
,,,,,SPR24_090,20,female,2024-04-24_17h00.38.742,jersey_experiment_5_v0,2023.2.2,Win32,85.47008547,,,,,,,,,,,,,,,,809.1189,810.1659,810.1659,810.7306,return,0.0388,,36.97916667,,,,,,FBP-OG-18.png,0.4,1.2,8,0.25,,,,,,,,,,,,,,,,,,0,54,54,7,1,,,,,,,,,,,,,,,,,,,,,,,
,,,,,SPR24_090,20,female,2024-04-24_17h00.38.742,jersey_experiment_5_v0,2023.2.2,Win32,85.47008547,,,,,,,,,,,,,,,,810.7307,811.7778,811.7778,812.8483,return,0.1752,,23.828125,,,,,,FBP-OG-19.png,0.37,1.2,12,0.25,,,,,,,,,,,,,,,,,,0,55,55,11,1,,,,,,,,,,,,,,,,,,,,,,,
,,,,,SPR24_090,20,female,2024-04-24_17h00.38.742,jersey_experiment_5_v0,2023.2.2,Win32,85.47008547,,,,,,,,,,,,,,,,812.8484,814.1423,814.1424,815.4836,return,0.227,,64.58333333,,,,,,FBP-YG-81.png,0.43,1.2,24,0.5,,,,,,,,,,,,,,,,,,0,56,56,23,1,,,,,,,,,,,,,,,,,,,,,,,
,,,,,SPR24_090,20,female,2024-04-24_17h00.38.742,jersey_experiment_5_v0,2023.2.2,Win32,85.47008547,,,,,,,,,,,,,,,,815.4838,816.778,816.778,817.8015,return,0.1703,,26.171875,,,,,,FBP-YG-81.png,0.35,1.2,21,0.5,,,,,,,,,,,,,,,,,,0,57,57,20,1,,,,,,,,,,,,,,,,,,,,,,,
,,,,,SPR24_090,20,female,2024-04-24_17h00.38.742,jersey_experiment_5_v0,2023.2.2,Win32,85.47008547,,,,,,,,,,,,,,,,817.8016,818.8485,818.8485,819.9074,return,0.0469,,39.453125,,,,,,FBP-OG-17.png,0.4,1.2,3,0.25,,,,,,,,,,,,,,,,,,0,58,58,2,1,,,,,,,,,,,,,,,,,,,,,,,
,,,,,SPR24_090,20,female,2024-04-24_17h00.38.742,jersey_experiment_5_v0,2023.2.2,Win32,85.47008547,,,,,,,,,,,,,,,,819.9075,821.2016,821.2016,822.8017,return,0.1287,,63.28125,,,,,,FBP-PT-91.png,0.4,1.2,58,0.5,,,,,,,,,,,,,,,,,,0,59,59,57,1,,,,,,,,,,,,,,,,,,,,,,,
,,,,,SPR24_090,20,female,2024-04-24_17h00.38.742,jersey_experiment_5_v0,2023.2.2,Win32,85.47008547,,,,,,,,,,,,,,,,,,,,,,,,,,,,,,,,,,,,,,,,,,,,,,,,,,,,,,,,822.802,827.7315,return,4.9178,,,,,,,,,,,,,,,,,,,
,,,,,SPR24_090,20,female,2024-04-24_17h00.38.742,jersey_experiment_5_v0,2023.2.2,Win32,85.47008547,,,,,,,,,,,,,,,,,,,,,,,,,,,,,,,,,,,,,,,,,,,,,,,,,,,,,,,,,,,,,827.7316,831.1786,1,2.1771,return,1.2528,,,,,,,,,,,,
,,,,,SPR24_090,20,female,2024-04-24_17h00.38.742,jersey_experiment_5_v0,2023.2.2,Win32,85.47008547,,,,,,,,,,,,,,,,,,,,,,,,,,,,,,,,,,,,,,,,,,,,,,,,,,,,,,,,,,,,,,,,,,,,831.1786,881.3619,racial bias/discrimination- the football players of different color would be the same size back to back ,right,39.7438,,,,,,
,,,,,SPR24_090,20,female,2024-04-24_17h00.38.742,jersey_experiment_5_v0,2023.2.2,Win32,85.47008547,,,,,,,,,,,,,,,,,,,,,,,,,,,,,,,,,,,,,,,,,,,,,,,,,,,,,,,,,,,,,,,,,,,,,,,,,,881.3619,884.3333,return,2.9621,