requirements.started,requirements.stopped,key_resp_3.keys,key_resp_3.rt,key_resp_3.duration,Subject ID,Age,Gender,date,expName,psychopyVersion,OS,frameRate,instructions1.started,instructions1.stopped,key_resp.keys,key_resp.rt,key_resp.duration,example.started,example.stopped,enter_2.keys,enter_2.rt,enter_2.duration,instructions2.started,instructions2.stopped,enter_3.keys,enter_3.rt,enter_3.duration,image.started,image.stopped,slider_2.started,slider_2.stopped,next.keys,next.rt,next.duration,slider.response,trial_block_1.thisRepN,trial_block_1.thisTrialN,trial_block_1.thisN,trial_block_1.thisIndex,trial_block_1.ran,Path,Width,Height,Index,Duration,trial_block_2.thisRepN,trial_block_2.thisTrialN,trial_block_2.thisN,trial_block_2.thisIndex,trial_block_2.ran,rest_break.started,rest_break.stopped,end_break.started,end_break.stopped,key_resp_5.keys,key_resp_5.rt,key_resp_5.duration,trial_block_3.thisRepN,trial_block_3.thisTrialN,trial_block_3.thisN,trial_block_3.thisIndex,trial_block_3.ran,trial_block_4.thisRepN,trial_block_4.thisTrialN,trial_block_4.thisN,trial_block_4.thisIndex,trial_block_4.ran,questions_intro.started,questions_intro.stopped,enter_12.keys,enter_12.rt,enter_12.duration,question2.started,question2.stopped,question_doingbest.response,question_doingbest.rt,enter_15.keys,enter_15.rt,enter_15.duration,pattern.started,pattern.stopped,pattern_2.text,enter_17.keys,enter_17.rt,enter_17.duration,thankyou.started,thankyou.stopped,enter_14.keys,enter_14.rt,enter_14.duration
1E-04,11.0707,return,11.061,,SPR24_099,19,female,2024-04-26_10h06.44.853,jersey_experiment_5_v0,2023.2.2,Win32,84.74576271,,,,,,,,,,,,,,,,,,,,,,,,,,,,,,,,,,,,,,,,,,,,,,,,,,,,,,,,,,,,,,,,,,,,,,,,,,,,,,
,,,,,SPR24_099,19,female,2024-04-26_10h06.44.853,jersey_experiment_5_v0,2023.2.2,Win32,84.74576271,11.0708,28.1065,return,17.0186,,,,,,,,,,,,,,,,,,,,,,,,,,,,,,,,,,,,,,,,,,,,,,,,,,,,,,,,,,,,,,,,,,,,,,,,,,
,,,,,SPR24_099,19,female,2024-04-26_10h06.44.853,jersey_experiment_5_v0,2023.2.2,Win32,84.74576271,,,,,,28.1065,32.5334,return,4.3928,,,,,,,,,,,,,,,,,,,,,,,,,,,,,,,,,,,,,,,,,,,,,,,,,,,,,,,,,,,,,,,,,,,,,
,,,,,SPR24_099,19,female,2024-04-26_10h06.44.853,jersey_experiment_5_v0,2023.2.2,Win32,84.74576271,,,,,,,,,,,32.5334,50.2836,return,17.7347,,,,,,,,,,,,,,,,,,,,,,,,,,,,,,,,,,,,,,,,,,,,,,,,,,,,,,,,,,,,,,,,
,,,,,SPR24_099,19,female,2024-04-26_10h06.44.853,jersey_experiment_5_v0,2023.2.2,Win32,84.74576271,,,,,,,,,,,,,,,,50.2899,51.347,51.347,64.6651,return,2.5884,,24.609375,0,0,0,15,1,FBP-YG-17.png,0.35,1.2,16,0.25,,,,,,,,,,,,,,,,,,,,,,,,,,,,,,,,,,,,,,,,,,,,,
,,,,,SPR24_099,19,female,2024-04-26_10h06.44.853,jersey_experiment_5_v0,2023.2.2,Win32,84.74576271,,,,,,,,,,,,,,,,64.6653,65.9663,65.9664,69.4183,return,0.7771,,73.56770833,0,1,1,12,1,FBP-OG-91.png,0.4,1.2,13,0.5,,,,,,,,,,,,,,,,,,,,,,,,,,,,,,,,,,,,,,,,,,,,,
,,,,,SPR24_099,19,female,2024-04-26_10h06.44.853,jersey_experiment_5_v0,2023.2.2,Win32,84.74576271,,,,,,,,,,,,,,,,69.4184,70.4643,70.4643,73.536,return,1.0827,,88.02083333,0,2,2,24,1,FBP-YG-18.png,0.45,1.2,25,0.25,,,,,,,,,,,,,,,,,,,,,,,,,,,,,,,,,,,,,,,,,,,,,
,,,,,SPR24_099,19,female,2024-04-26_10h06.44.853,jersey_experiment_5_v0,2023.2.2,Win32,84.74576271,,,,,,,,,,,,,,,,73.5361,74.5785,74.5785,76.955,return,0.7589,,26.04166667,0,3,3,25,1,FBP-YG-19.png,0.35,1.2,26,0.25,,,,,,,,,,,,,,,,,,,,,,,,,,,,,,,,,,,,,,,,,,,,,
,,,,,SPR24_099,19,female,2024-04-26_10h06.44.853,jersey_experiment_5_v0,2023.2.2,Win32,84.74576271,,,,,,,,,,,,,,,,76.9552,78.2493,78.2493,82.148,return,1.2943,,49.08854167,0,4,4,5,1,FBP-OG-81.png,0.35,1.2,6,0.5,,,,,,,,,,,,,,,,,,,,,,,,,,,,,,,,,,,,,,,,,,,,,
,,,,,SPR24_099,19,female,2024-04-26_10h06.44.853,jersey_experiment_5_v0,2023.2.2,Win32,84.74576271,,,,,,,,,,,,,,,,82.1482,83.1904,83.1904,85.7723,return,0.9657,,32.55208333,0,5,5,45,1,FBP-PT-17.png,0.35,1.2,46,0.25,,,,,,,,,,,,,,,,,,,,,,,,,,,,,,,,,,,,,,,,,,,,,
,,,,,SPR24_099,19,female,2024-04-26_10h06.44.853,jersey_experiment_5_v0,2023.2.2,Win32,84.74576271,,,,,,,,,,,,,,,,85.7724,86.8142,86.8142,88.4612,return,0.7091,,32.55208333,0,6,6,46,1,FBP-PT-17.png,0.37,1.2,47,0.25,,,,,,,,,,,,,,,,,,,,,,,,,,,,,,,,,,,,,,,,,,,,,
,,,,,SPR24_099,19,female,2024-04-26_10h06.44.853,jersey_experiment_5_v0,2023.2.2,Win32,84.74576271,,,,,,,,,,,,,,,,88.4615,89.7586,89.7587,94.2026,return,2.3955,,74.21875,0,7,7,2,1,FBP-OG-71.png,0.4,1.2,3,0.5,,,,,,,,,,,,,,,,,,,,,,,,,,,,,,,,,,,,,,,,,,,,,
,,,,,SPR24_099,19,female,2024-04-26_10h06.44.853,jersey_experiment_5_v0,2023.2.2,Win32,84.74576271,,,,,,,,,,,,,,,,94.2029,95.4969,95.4969,97.8427,return,0.7664,,61.84895833,0,8,8,7,1,FBP-OG-81.png,0.4,1.2,8,0.5,,,,,,,,,,,,,,,,,,,,,,,,,,,,,,,,,,,,,,,,,,,,,
,,,,,SPR24_099,19,female,2024-04-26_10h06.44.853,jersey_experiment_5_v0,2023.2.2,Win32,84.74576271,,,,,,,,,,,,,,,,97.8428,99.144,99.1441,101.3016,return,0.8707,,90.10416667,0,9,9,44,1,FBP-RB-19.png,0.45,1.2,45,0.5,,,,,,,,,,,,,,,,,,,,,,,,,,,,,,,,,,,,,,,,,,,,,
,,,,,SPR24_099,19,female,2024-04-26_10h06.44.853,jersey_experiment_5_v0,2023.2.2,Win32,84.74576271,,,,,,,,,,,,,,,,101.3017,102.5956,102.5956,105.0031,return,0.8662,,55.33854167,0,10,10,35,1,FBP-RB-18.png,0.35,1.2,36,0.5,,,,,,,,,,,,,,,,,,,,,,,,,,,,,,,,,,,,,,,,,,,,,
,,,,,SPR24_099,19,female,2024-04-26_10h06.44.853,jersey_experiment_5_v0,2023.2.2,Win32,84.74576271,,,,,,,,,,,,,,,,105.0033,106.0501,106.0502,107.8032,return,0.6778,,55.33854167,0,11,11,22,1,FBP-YG-18.png,0.4,1.2,23,0.25,,,,,,,,,,,,,,,,,,,,,,,,,,,,,,,,,,,,,,,,,,,,,
,,,,,SPR24_099,19,female,2024-04-26_10h06.44.853,jersey_experiment_5_v0,2023.2.2,Win32,84.74576271,,,,,,,,,,,,,,,,107.8034,109.0973,109.0974,110.7845,return,0.7299,,55.20833333,0,12,12,32,1,FBP-RB-17.png,0.4,1.2,33,0.5,,,,,,,,,,,,,,,,,,,,,,,,,,,,,,,,,,,,,,,,,,,,,
,,,,,SPR24_099,19,female,2024-04-26_10h06.44.853,jersey_experiment_5_v0,2023.2.2,Win32,84.74576271,,,,,,,,,,,,,,,,110.7846,112.0856,112.0856,114.4623,return,0.9911,,61.71875,0,13,13,37,1,FBP-RB-18.png,0.4,1.2,38,0.5,,,,,,,,,,,,,,,,,,,,,,,,,,,,,,,,,,,,,,,,,,,,,
,,,,,SPR24_099,19,female,2024-04-26_10h06.44.853,jersey_experiment_5_v0,2023.2.2,Win32,84.74576271,,,,,,,,,,,,,,,,114.4624,115.7564,115.7565,118.5095,return,0.8629,,71.61458333,0,14,14,38,1,FBP-RB-18.png,0.43,1.2,39,0.5,,,,,,,,,,,,,,,,,,,,,,,,,,,,,,,,,,,,,,,,,,,,,
,,,,,SPR24_099,19,female,2024-04-26_10h06.44.853,jersey_experiment_5_v0,2023.2.2,Win32,84.74576271,,,,,,,,,,,,,,,,118.5097,119.5608,119.5608,122.0625,return,0.7551,,30.59895833,0,15,15,16,1,FBP-YG-17.png,0.37,1.2,17,0.25,,,,,,,,,,,,,,,,,,,,,,,,,,,,,,,,,,,,,,,,,,,,,
,,,,,SPR24_099,19,female,2024-04-26_10h06.44.853,jersey_experiment_5_v0,2023.2.2,Win32,84.74576271,,,,,,,,,,,,,,,,122.0626,123.1095,123.1095,125.439,return,0.7321,,78.90625,0,16,16,49,1,FBP-PT-17.png,0.45,1.2,50,0.25,,,,,,,,,,,,,,,,,,,,,,,,,,,,,,,,,,,,,,,,,,,,,
,,,,,SPR24_099,19,female,2024-04-26_10h06.44.853,jersey_experiment_5_v0,2023.2.2,Win32,84.74576271,,,,,,,,,,,,,,,,125.4393,126.4862,126.4863,128.8555,return,0.753,,82.421875,0,17,17,54,1,FBP-PT-18.png,0.45,1.2,55,0.25,,,,,,,,,,,,,,,,,,,,,,,,,,,,,,,,,,,,,,,,,,,,,
,,,,,SPR24_099,19,female,2024-04-26_10h06.44.853,jersey_experiment_5_v0,2023.2.2,Win32,84.74576271,,,,,,,,,,,,,,,,128.8557,130.1602,130.1602,133.4675,return,1.2932,,86.45833333,0,18,18,9,1,FBP-OG-81.png,0.45,1.2,10,0.5,,,,,,,,,,,,,,,,,,,,,,,,,,,,,,,,,,,,,,,,,,,,,
,,,,,SPR24_099,19,female,2024-04-26_10h06.44.853,jersey_experiment_5_v0,2023.2.2,Win32,84.74576271,,,,,,,,,,,,,,,,133.4676,134.7688,134.7688,137.2195,return,0.7403,,60.546875,0,19,19,36,1,FBP-RB-18.png,0.37,1.2,37,0.5,,,,,,,,,,,,,,,,,,,,,,,,,,,,,,,,,,,,,,,,,,,,,
,,,,,SPR24_099,19,female,2024-04-26_10h06.44.853,jersey_experiment_5_v0,2023.2.2,Win32,84.74576271,,,,,,,,,,,,,,,,137.2196,138.5218,138.5219,141.0206,return,1.0015,,70.703125,0,20,20,33,1,FBP-RB-17.png,0.43,1.2,34,0.5,,,,,,,,,,,,,,,,,,,,,,,,,,,,,,,,,,,,,,,,,,,,,
,,,,,SPR24_099,19,female,2024-04-26_10h06.44.853,jersey_experiment_5_v0,2023.2.2,Win32,84.74576271,,,,,,,,,,,,,,,,141.0207,142.0631,142.0632,144.9221,return,1.0301,,11.71875,0,21,21,55,1,FBP-PT-19.png,0.35,1.2,56,0.25,,,,,,,,,,,,,,,,,,,,,,,,,,,,,,,,,,,,,,,,,,,,,
,,,,,SPR24_099,19,female,2024-04-26_10h06.44.853,jersey_experiment_5_v0,2023.2.2,Win32,84.74576271,,,,,,,,,,,,,,,,144.9222,145.9692,145.9693,148.5928,return,0.9057,,34.24479167,0,22,22,58,1,FBP-PT-19.png,0.43,1.2,59,0.25,,,,,,,,,,,,,,,,,,,,,,,,,,,,,,,,,,,,,,,,,,,,,
,,,,,SPR24_099,19,female,2024-04-26_10h06.44.853,jersey_experiment_5_v0,2023.2.2,Win32,84.74576271,,,,,,,,,,,,,,,,148.5929,149.8915,149.8916,151.6798,return,0.7768,,21.22395833,0,23,23,31,1,FBP-RB-17.png,0.37,1.2,32,0.5,,,,,,,,,,,,,,,,,,,,,,,,,,,,,,,,,,,,,,,,,,,,,
,,,,,SPR24_099,19,female,2024-04-26_10h06.44.853,jersey_experiment_5_v0,2023.2.2,Win32,84.74576271,,,,,,,,,,,,,,,,151.6799,152.9813,152.9813,155.6198,return,0.9415,,75.26041667,0,24,24,39,1,FBP-RB-18.png,0.45,1.2,40,0.5,,,,,,,,,,,,,,,,,,,,,,,,,,,,,,,,,,,,,,,,,,,,,
,,,,,SPR24_099,19,female,2024-04-26_10h06.44.853,jersey_experiment_5_v0,2023.2.2,Win32,84.74576271,,,,,,,,,,,,,,,,155.62,156.9225,156.9225,160.0991,return,1.5294,,90.234375,0,25,25,4,1,FBP-OG-71.png,0.45,1.2,5,0.5,,,,,,,,,,,,,,,,,,,,,,,,,,,,,,,,,,,,,,,,,,,,,
,,,,,SPR24_099,19,female,2024-04-26_10h06.44.853,jersey_experiment_5_v0,2023.2.2,Win32,84.74576271,,,,,,,,,,,,,,,,160.0992,161.3932,161.3933,164.1697,return,1.0069,,78.125,0,26,26,3,1,FBP-OG-71.png,0.43,1.2,4,0.5,,,,,,,,,,,,,,,,,,,,,,,,,,,,,,,,,,,,,,,,,,,,,
,,,,,SPR24_099,19,female,2024-04-26_10h06.44.853,jersey_experiment_5_v0,2023.2.2,Win32,84.74576271,,,,,,,,,,,,,,,,164.1699,165.464,165.464,168.128,return,1.0595,,26.953125,0,27,27,40,1,FBP-RB-19.png,0.35,1.2,41,0.5,,,,,,,,,,,,,,,,,,,,,,,,,,,,,,,,,,,,,,,,,,,,,
,,,,,SPR24_099,19,female,2024-04-26_10h06.44.853,jersey_experiment_5_v0,2023.2.2,Win32,84.74576271,,,,,,,,,,,,,,,,168.1282,169.17,169.17,172.0913,return,0.8477,,85.546875,0,28,28,59,1,FBP-PT-19.png,0.45,1.2,60,0.25,,,,,,,,,,,,,,,,,,,,,,,,,,,,,,,,,,,,,,,,,,,,,
,,,,,SPR24_099,19,female,2024-04-26_10h06.44.853,jersey_experiment_5_v0,2023.2.2,Win32,84.74576271,,,,,,,,,,,,,,,,172.0915,173.1349,173.135,175.7467,return,0.8472,,73.56770833,0,29,29,53,1,FBP-PT-18.png,0.43,1.2,54,0.25,,,,,,,,,,,,,,,,,,,,,,,,,,,,,,,,,,,,,,,,,,,,,
,,,,,SPR24_099,19,female,2024-04-26_10h06.44.853,jersey_experiment_5_v0,2023.2.2,Win32,84.74576271,,,,,,,,,,,,,,,,175.7469,176.7938,176.7939,179.1741,return,0.7871,,82.29166667,0,30,30,19,1,FBP-YG-17.png,0.45,1.2,20,0.25,,,,,,,,,,,,,,,,,,,,,,,,,,,,,,,,,,,,,,,,,,,,,
,,,,,SPR24_099,19,female,2024-04-26_10h06.44.853,jersey_experiment_5_v0,2023.2.2,Win32,84.74576271,,,,,,,,,,,,,,,,179.1743,180.2175,180.2176,182.288,return,0.7647,,86.45833333,0,31,31,18,1,FBP-YG-17.png,0.43,1.2,19,0.25,,,,,,,,,,,,,,,,,,,,,,,,,,,,,,,,,,,,,,,,,,,,,
,,,,,SPR24_099,19,female,2024-04-26_10h06.44.853,jersey_experiment_5_v0,2023.2.2,Win32,84.74576271,,,,,,,,,,,,,,,,182.2882,183.5823,183.5824,185.0175,return,0.7143,,83.46354167,0,32,32,14,1,FBP-OG-91.png,0.45,1.2,15,0.5,,,,,,,,,,,,,,,,,,,,,,,,,,,,,,,,,,,,,,,,,,,,,
,,,,,SPR24_099,19,female,2024-04-26_10h06.44.853,jersey_experiment_5_v0,2023.2.2,Win32,84.74576271,,,,,,,,,,,,,,,,185.0177,186.0648,186.0648,188.7398,return,0.8942,,24.609375,0,33,33,51,1,FBP-PT-18.png,0.37,1.2,52,0.25,,,,,,,,,,,,,,,,,,,,,,,,,,,,,,,,,,,,,,,,,,,,,
,,,,,SPR24_099,19,female,2024-04-26_10h06.44.853,jersey_experiment_5_v0,2023.2.2,Win32,84.74576271,,,,,,,,,,,,,,,,188.7399,189.7826,189.7826,191.5745,return,0.7874,,24.609375,0,34,34,27,1,FBP-YG-19.png,0.4,1.2,28,0.25,,,,,,,,,,,,,,,,,,,,,,,,,,,,,,,,,,,,,,,,,,,,,
,,,,,SPR24_099,19,female,2024-04-26_10h06.44.853,jersey_experiment_5_v0,2023.2.2,Win32,84.74576271,,,,,,,,,,,,,,,,191.5746,192.8812,192.8812,195.0533,return,0.8976,,24.609375,0,35,35,1,1,FBP-OG-71.png,0.37,1.2,2,0.5,,,,,,,,,,,,,,,,,,,,,,,,,,,,,,,,,,,,,,,,,,,,,
,,,,,SPR24_099,19,female,2024-04-26_10h06.44.853,jersey_experiment_5_v0,2023.2.2,Win32,84.74576271,,,,,,,,,,,,,,,,195.0534,196.1003,196.1003,198.7946,return,0.8296,,24.08854167,0,36,36,26,1,FBP-YG-19.png,0.37,1.2,27,0.25,,,,,,,,,,,,,,,,,,,,,,,,,,,,,,,,,,,,,,,,,,,,,
,,,,,SPR24_099,19,female,2024-04-26_10h06.44.853,jersey_experiment_5_v0,2023.2.2,Win32,84.74576271,,,,,,,,,,,,,,,,198.7948,200.0889,200.0889,202.383,return,0.7428,,78.38541667,0,37,37,34,1,FBP-RB-17.png,0.45,1.2,35,0.5,,,,,,,,,,,,,,,,,,,,,,,,,,,,,,,,,,,,,,,,,,,,,
,,,,,SPR24_099,19,female,2024-04-26_10h06.44.853,jersey_experiment_5_v0,2023.2.2,Win32,84.74576271,,,,,,,,,,,,,,,,202.3832,203.43,203.4301,205.2583,return,0.7527,,66.92708333,0,38,38,23,1,FBP-YG-18.png,0.43,1.2,24,0.25,,,,,,,,,,,,,,,,,,,,,,,,,,,,,,,,,,,,,,,,,,,,,
,,,,,SPR24_099,19,female,2024-04-26_10h06.44.853,jersey_experiment_5_v0,2023.2.2,Win32,84.74576271,,,,,,,,,,,,,,,,205.2584,206.3008,206.3009,208.3514,return,0.8711,,40.36458333,0,39,39,47,1,FBP-PT-17.png,0.4,1.2,48,0.25,,,,,,,,,,,,,,,,,,,,,,,,,,,,,,,,,,,,,,,,,,,,,
,,,,,SPR24_099,19,female,2024-04-26_10h06.44.853,jersey_experiment_5_v0,2023.2.2,Win32,84.74576271,,,,,,,,,,,,,,,,208.3517,209.6457,209.6457,212.6656,return,1.2551,,83.33333333,0,40,40,43,1,FBP-RB-19.png,0.43,1.2,44,0.5,,,,,,,,,,,,,,,,,,,,,,,,,,,,,,,,,,,,,,,,,,,,,
,,,,,SPR24_099,19,female,2024-04-26_10h06.44.853,jersey_experiment_5_v0,2023.2.2,Win32,84.74576271,,,,,,,,,,,,,,,,212.6658,213.9599,213.96,216.56,return,1.6382,,35.546875,0,41,41,0,1,FBP-OG-71.png,0.35,1.2,1,0.5,,,,,,,,,,,,,,,,,,,,,,,,,,,,,,,,,,,,,,,,,,,,,
,,,,,SPR24_099,19,female,2024-04-26_10h06.44.853,jersey_experiment_5_v0,2023.2.2,Win32,84.74576271,,,,,,,,,,,,,,,,216.5601,217.8573,217.8573,222.3411,return,3.307,,47.78645833,0,42,42,11,1,FBP-OG-91.png,0.37,1.2,12,0.5,,,,,,,,,,,,,,,,,,,,,,,,,,,,,,,,,,,,,,,,,,,,,
,,,,,SPR24_099,19,female,2024-04-26_10h06.44.853,jersey_experiment_5_v0,2023.2.2,Win32,84.74576271,,,,,,,,,,,,,,,,222.3412,223.3838,223.3838,225.4544,return,0.8022,,84.63541667,0,43,43,29,1,FBP-YG-19.png,0.45,1.2,30,0.25,,,,,,,,,,,,,,,,,,,,,,,,,,,,,,,,,,,,,,,,,,,,,
,,,,,SPR24_099,19,female,2024-04-26_10h06.44.853,jersey_experiment_5_v0,2023.2.2,Win32,84.74576271,,,,,,,,,,,,,,,,225.4546,226.5016,226.5016,228.8355,return,1.1288,,70.3125,0,44,44,50,1,FBP-PT-18.png,0.35,1.2,51,0.25,,,,,,,,,,,,,,,,,,,,,,,,,,,,,,,,,,,,,,,,,,,,,
,,,,,SPR24_099,19,female,2024-04-26_10h06.44.853,jersey_experiment_5_v0,2023.2.2,Win32,84.74576271,,,,,,,,,,,,,,,,228.8357,230.1369,230.137,231.9991,return,0.6689,,84.375,0,45,45,42,1,FBP-RB-19.png,0.4,1.2,43,0.5,,,,,,,,,,,,,,,,,,,,,,,,,,,,,,,,,,,,,,,,,,,,,
,,,,,SPR24_099,19,female,2024-04-26_10h06.44.853,jersey_experiment_5_v0,2023.2.2,Win32,84.74576271,,,,,,,,,,,,,,,,231.9992,233.0428,233.0428,235.243,return,0.734,,67.70833333,0,46,46,56,1,FBP-PT-19.png,0.37,1.2,57,0.25,,,,,,,,,,,,,,,,,,,,,,,,,,,,,,,,,,,,,,,,,,,,,
,,,,,SPR24_099,19,female,2024-04-26_10h06.44.853,jersey_experiment_5_v0,2023.2.2,Win32,84.74576271,,,,,,,,,,,,,,,,235.2432,236.2945,236.2945,239.0713,return,1.2941,,51.5625,0,47,47,20,1,FBP-YG-18.png,0.35,1.2,21,0.25,,,,,,,,,,,,,,,,,,,,,,,,,,,,,,,,,,,,,,,,,,,,,
,,,,,SPR24_099,19,female,2024-04-26_10h06.44.853,jersey_experiment_5_v0,2023.2.2,Win32,84.74576271,,,,,,,,,,,,,,,,239.0716,240.3727,240.3727,242.7138,return,0.761,,49.73958333,0,48,48,6,1,FBP-OG-81.png,0.37,1.2,7,0.5,,,,,,,,,,,,,,,,,,,,,,,,,,,,,,,,,,,,,,,,,,,,,
,,,,,SPR24_099,19,female,2024-04-26_10h06.44.853,jersey_experiment_5_v0,2023.2.2,Win32,84.74576271,,,,,,,,,,,,,,,,242.7141,243.7609,243.7609,246.5139,return,0.7896,,72.65625,0,49,49,17,1,FBP-YG-17.png,0.4,1.2,18,0.25,,,,,,,,,,,,,,,,,,,,,,,,,,,,,,,,,,,,,,,,,,,,,
,,,,,SPR24_099,19,female,2024-04-26_10h06.44.853,jersey_experiment_5_v0,2023.2.2,Win32,84.74576271,,,,,,,,,,,,,,,,246.5141,247.8081,247.8081,250.1142,return,0.7534,,82.16145833,0,50,50,8,1,FBP-OG-81.png,0.43,1.2,9,0.5,,,,,,,,,,,,,,,,,,,,,,,,,,,,,,,,,,,,,,,,,,,,,
,,,,,SPR24_099,19,female,2024-04-26_10h06.44.853,jersey_experiment_5_v0,2023.2.2,Win32,84.74576271,,,,,,,,,,,,,,,,250.1144,251.4116,251.4116,253.3612,return,0.7768,,74.73958333,0,51,51,13,1,FBP-OG-91.png,0.43,1.2,14,0.5,,,,,,,,,,,,,,,,,,,,,,,,,,,,,,,,,,,,,,,,,,,,,
,,,,,SPR24_099,19,female,2024-04-26_10h06.44.853,jersey_experiment_5_v0,2023.2.2,Win32,84.74576271,,,,,,,,,,,,,,,,253.3615,254.6554,254.6555,256.526,return,0.7671,,47.91666667,0,52,52,30,1,FBP-RB-17.png,0.35,1.2,31,0.5,,,,,,,,,,,,,,,,,,,,,,,,,,,,,,,,,,,,,,,,,,,,,
,,,,,SPR24_099,19,female,2024-04-26_10h06.44.853,jersey_experiment_5_v0,2023.2.2,Win32,84.74576271,,,,,,,,,,,,,,,,256.5263,257.5731,257.5732,260.3144,return,0.878,,64.58333333,0,53,53,57,1,FBP-PT-19.png,0.4,1.2,58,0.25,,,,,,,,,,,,,,,,,,,,,,,,,,,,,,,,,,,,,,,,,,,,,
,,,,,SPR24_099,19,female,2024-04-26_10h06.44.853,jersey_experiment_5_v0,2023.2.2,Win32,84.74576271,,,,,,,,,,,,,,,,260.3146,261.3616,261.3616,263.4487,return,0.9887,,67.96875,0,54,54,48,1,FBP-PT-17.png,0.43,1.2,49,0.25,,,,,,,,,,,,,,,,,,,,,,,,,,,,,,,,,,,,,,,,,,,,,
,,,,,SPR24_099,19,female,2024-04-26_10h06.44.853,jersey_experiment_5_v0,2023.2.2,Win32,84.74576271,,,,,,,,,,,,,,,,263.4489,264.7499,264.75,266.33,return,0.8006,,44.79166667,0,55,55,10,1,FBP-OG-91.png,0.35,1.2,11,0.5,,,,,,,,,,,,,,,,,,,,,,,,,,,,,,,,,,,,,,,,,,,,,
,,,,,SPR24_099,19,female,2024-04-26_10h06.44.853,jersey_experiment_5_v0,2023.2.2,Win32,84.74576271,,,,,,,,,,,,,,,,266.3301,267.3735,267.3736,269.4253,return,0.847,,37.76041667,0,56,56,21,1,FBP-YG-18.png,0.37,1.2,22,0.25,,,,,,,,,,,,,,,,,,,,,,,,,,,,,,,,,,,,,,,,,,,,,
,,,,,SPR24_099,19,female,2024-04-26_10h06.44.853,jersey_experiment_5_v0,2023.2.2,Win32,84.74576271,,,,,,,,,,,,,,,,269.4254,270.4678,270.4679,273.2444,return,1.3924,,56.51041667,0,57,57,52,1,FBP-PT-18.png,0.4,1.2,53,0.25,,,,,,,,,,,,,,,,,,,,,,,,,,,,,,,,,,,,,,,,,,,,,
,,,,,SPR24_099,19,female,2024-04-26_10h06.44.853,jersey_experiment_5_v0,2023.2.2,Win32,84.74576271,,,,,,,,,,,,,,,,273.2446,274.2957,274.2957,276.9387,return,0.9469,,74.86979167,0,58,58,28,1,FBP-YG-19.png,0.43,1.2,29,0.25,,,,,,,,,,,,,,,,,,,,,,,,,,,,,,,,,,,,,,,,,,,,,
,,,,,SPR24_099,19,female,2024-04-26_10h06.44.853,jersey_experiment_5_v0,2023.2.2,Win32,84.74576271,,,,,,,,,,,,,,,,276.9388,278.2327,278.2327,283.1388,return,2.9048,,58.72395833,0,59,59,41,1,FBP-RB-19.png,0.37,1.2,42,0.5,,,,,,,,,,,,,,,,,,,,,,,,,,,,,,,,,,,,,,,,,,,,,
,,,,,SPR24_099,19,female,2024-04-26_10h06.44.853,jersey_experiment_5_v0,2023.2.2,Win32,84.74576271,,,,,,,,,,,,,,,,283.1407,284.433,284.433,288.4483,return,0.8005,,42.05729167,,,,,,FBP-RB-81.png,0.37,1.2,37,0.5,0,0,0,36,1,,,,,,,,,,,,,,,,,,,,,,,,,,,,,,,,,,,,,,,,
,,,,,SPR24_099,19,female,2024-04-26_10h06.44.853,jersey_experiment_5_v0,2023.2.2,Win32,84.74576271,,,,,,,,,,,,,,,,288.4485,289.7508,289.7508,291.7392,return,0.6538,,67.96875,,,,,,FBP-OG-18.png,0.43,1.2,9,0.5,0,1,1,8,1,,,,,,,,,,,,,,,,,,,,,,,,,,,,,,,,,,,,,,,,
,,,,,SPR24_099,19,female,2024-04-26_10h06.44.853,jersey_experiment_5_v0,2023.2.2,Win32,84.74576271,,,,,,,,,,,,,,,,291.7394,292.7861,292.7862,294.378,return,0.7641,,81.38020833,,,,,,FBP-PT-81.png,0.45,1.2,55,0.25,0,2,2,54,1,,,,,,,,,,,,,,,,,,,,,,,,,,,,,,,,,,,,,,,,
,,,,,SPR24_099,19,female,2024-04-26_10h06.44.853,jersey_experiment_5_v0,2023.2.2,Win32,84.74576271,,,,,,,,,,,,,,,,294.3782,295.6851,295.6851,297.332,return,0.7997,,48.56770833,,,,,,FBP-RB-91.png,0.35,1.2,41,0.5,0,3,3,40,1,,,,,,,,,,,,,,,,,,,,,,,,,,,,,,,,,,,,,,,,
,,,,,SPR24_099,19,female,2024-04-26_10h06.44.853,jersey_experiment_5_v0,2023.2.2,Win32,84.74576271,,,,,,,,,,,,,,,,297.3322,298.6335,298.6335,299.8688,return,0.7343,,49.21875,,,,,,FBP-OG-17.png,0.35,1.2,1,0.5,0,4,4,0,1,,,,,,,,,,,,,,,,,,,,,,,,,,,,,,,,,,,,,,,,
,,,,,SPR24_099,19,female,2024-04-26_10h06.44.853,jersey_experiment_5_v0,2023.2.2,Win32,84.74576271,,,,,,,,,,,,,,,,299.869,300.9159,300.916,305.2148,return,2.5076,,85.28645833,,,,,,FBP-YG-81.png,0.45,1.2,25,0.25,0,5,5,24,1,,,,,,,,,,,,,,,,,,,,,,,,,,,,,,,,,,,,,,,,
,,,,,SPR24_099,19,female,2024-04-26_10h06.44.853,jersey_experiment_5_v0,2023.2.2,Win32,84.74576271,,,,,,,,,,,,,,,,305.2149,306.2573,306.2573,308.7312,return,1.5296,,52.08333333,,,,,,FBP-PT-81.png,0.4,1.2,53,0.25,0,6,6,52,1,,,,,,,,,,,,,,,,,,,,,,,,,,,,,,,,,,,,,,,,
,,,,,SPR24_099,19,female,2024-04-26_10h06.44.853,jersey_experiment_5_v0,2023.2.2,Win32,84.74576271,,,,,,,,,,,,,,,,308.7313,310.0339,310.034,311.6927,return,0.6989,,70.57291667,,,,,,FBP-RB-81.png,0.4,1.2,38,0.5,0,7,7,37,1,,,,,,,,,,,,,,,,,,,,,,,,,,,,,,,,,,,,,,,,
,,,,,SPR24_099,19,female,2024-04-26_10h06.44.853,jersey_experiment_5_v0,2023.2.2,Win32,84.74576271,,,,,,,,,,,,,,,,311.6928,312.7398,312.7398,314.2975,return,0.8233,,70.18229167,,,,,,FBP-YG-81.png,0.4,1.2,23,0.25,0,8,8,22,1,,,,,,,,,,,,,,,,,,,,,,,,,,,,,,,,,,,,,,,,
,,,,,SPR24_099,19,female,2024-04-26_10h06.44.853,jersey_experiment_5_v0,2023.2.2,Win32,84.74576271,,,,,,,,,,,,,,,,314.2976,315.5989,315.5989,317.6491,return,0.7528,,23.30729167,,,,,,FBP-OG-18.png,0.35,1.2,6,0.5,0,9,9,5,1,,,,,,,,,,,,,,,,,,,,,,,,,,,,,,,,,,,,,,,,
,,,,,SPR24_099,19,female,2024-04-26_10h06.44.853,jersey_experiment_5_v0,2023.2.2,Win32,84.74576271,,,,,,,,,,,,,,,,317.6493,318.9518,318.9518,320.8965,return,0.8003,,46.484375,,,,,,FBP-RB-91.png,0.37,1.2,42,0.5,0,10,10,41,1,,,,,,,,,,,,,,,,,,,,,,,,,,,,,,,,,,,,,,,,
,,,,,SPR24_099,19,female,2024-04-26_10h06.44.853,jersey_experiment_5_v0,2023.2.2,Win32,84.74576271,,,,,,,,,,,,,,,,320.8968,321.9402,321.9402,324.3449,return,1.059,,87.36979167,,,,,,FBP-YG-71.png,0.43,1.2,19,0.25,0,11,11,18,1,,,,,,,,,,,,,,,,,,,,,,,,,,,,,,,,,,,,,,,,
,,,,,SPR24_099,19,female,2024-04-26_10h06.44.853,jersey_experiment_5_v0,2023.2.2,Win32,84.74576271,,,,,,,,,,,,,,,,324.3451,325.3874,325.3875,327.6934,return,0.816,,86.19791667,,,,,,FBP-PT-81.png,0.43,1.2,54,0.25,0,12,12,53,1,,,,,,,,,,,,,,,,,,,,,,,,,,,,,,,,,,,,,,,,
,,,,,SPR24_099,19,female,2024-04-26_10h06.44.853,jersey_experiment_5_v0,2023.2.2,Win32,84.74576271,,,,,,,,,,,,,,,,327.6936,328.9875,328.9875,330.9567,return,1.129,,93.61979167,,,,,,FBP-RB-91.png,0.45,1.2,45,0.5,0,13,13,44,1,,,,,,,,,,,,,,,,,,,,,,,,,,,,,,,,,,,,,,,,
,,,,,SPR24_099,19,female,2024-04-26_10h06.44.853,jersey_experiment_5_v0,2023.2.2,Win32,84.74576271,,,,,,,,,,,,,,,,330.957,332.0029,332.0029,337.0702,return,0.686,,30.859375,,,,,,FBP-PT-91.png,0.35,1.2,56,0.25,0,14,14,55,1,,,,,,,,,,,,,,,,,,,,,,,,,,,,,,,,,,,,,,,,
,,,,,SPR24_099,19,female,2024-04-26_10h06.44.853,jersey_experiment_5_v0,2023.2.2,Win32,84.74576271,,,,,,,,,,,,,,,,337.0705,338.1172,338.1172,340.282,return,1.0312,,27.21354167,,,,,,FBP-PT-91.png,0.4,1.2,58,0.25,0,15,15,57,1,,,,,,,,,,,,,,,,,,,,,,,,,,,,,,,,,,,,,,,,
,,,,,SPR24_099,19,female,2024-04-26_10h06.44.853,jersey_experiment_5_v0,2023.2.2,Win32,84.74576271,,,,,,,,,,,,,,,,340.2823,341.5762,341.5763,344.0396,return,0.8364,,88.41145833,,,,,,FBP-RB-71.png,0.4,1.2,33,0.5,0,16,16,32,1,,,,,,,,,,,,,,,,,,,,,,,,,,,,,,,,,,,,,,,,
,,,,,SPR24_099,19,female,2024-04-26_10h06.44.853,jersey_experiment_5_v0,2023.2.2,Win32,84.74576271,,,,,,,,,,,,,,,,344.0398,345.3444,345.3445,347.2869,return,0.8474,,59.11458333,,,,,,FBP-OG-19.png,0.4,1.2,13,0.5,0,17,17,12,1,,,,,,,,,,,,,,,,,,,,,,,,,,,,,,,,,,,,,,,,
,,,,,SPR24_099,19,female,2024-04-26_10h06.44.853,jersey_experiment_5_v0,2023.2.2,Win32,84.74576271,,,,,,,,,,,,,,,,347.287,348.5809,348.5809,350.7088,return,0.9879,,82.94270833,,,,,,FBP-RB-81.png,0.43,1.2,39,0.5,0,18,18,38,1,,,,,,,,,,,,,,,,,,,,,,,,,,,,,,,,,,,,,,,,
,,,,,SPR24_099,19,female,2024-04-26_10h06.44.853,jersey_experiment_5_v0,2023.2.2,Win32,84.74576271,,,,,,,,,,,,,,,,350.709,352.0118,352.0118,353.4707,return,0.8498,,88.54166667,,,,,,FBP-RB-81.png,0.45,1.2,40,0.5,0,19,19,39,1,,,,,,,,,,,,,,,,,,,,,,,,,,,,,,,,,,,,,,,,
,,,,,SPR24_099,19,female,2024-04-26_10h06.44.853,jersey_experiment_5_v0,2023.2.2,Win32,84.74576271,,,,,,,,,,,,,,,,353.4709,354.7694,354.7694,356.6826,return,0.9367,,41.66666667,,,,,,FBP-OG-17.png,0.37,1.2,2,0.5,0,20,20,1,1,,,,,,,,,,,,,,,,,,,,,,,,,,,,,,,,,,,,,,,,
,,,,,SPR24_099,19,female,2024-04-26_10h06.44.853,jersey_experiment_5_v0,2023.2.2,Win32,84.74576271,,,,,,,,,,,,,,,,356.6829,357.7296,357.7297,359.7531,return,0.7955,,20.83333333,,,,,,FBP-PT-81.png,0.35,1.2,51,0.25,0,21,21,50,1,,,,,,,,,,,,,,,,,,,,,,,,,,,,,,,,,,,,,,,,
,,,,,SPR24_099,19,female,2024-04-26_10h06.44.853,jersey_experiment_5_v0,2023.2.2,Win32,84.74576271,,,,,,,,,,,,,,,,359.7533,361.0518,361.0518,363.1181,return,0.8977,,48.046875,,,,,,FBP-RB-91.png,0.4,1.2,43,0.5,0,22,22,42,1,,,,,,,,,,,,,,,,,,,,,,,,,,,,,,,,,,,,,,,,
,,,,,SPR24_099,19,female,2024-04-26_10h06.44.853,jersey_experiment_5_v0,2023.2.2,Win32,84.74576271,,,,,,,,,,,,,,,,363.1184,364.1653,364.1653,367.7066,return,1.6306,,78.77604167,,,,,,FBP-PT-91.png,0.43,1.2,59,0.25,0,23,23,58,1,,,,,,,,,,,,,,,,,,,,,,,,,,,,,,,,,,,,,,,,
,,,,,SPR24_099,19,female,2024-04-26_10h06.44.853,jersey_experiment_5_v0,2023.2.2,Win32,84.74576271,,,,,,,,,,,,,,,,367.7068,368.7536,368.7537,371.3066,return,0.7701,,46.09375,,,,,,FBP-YG-71.png,0.35,1.2,16,0.25,0,24,24,15,1,,,,,,,,,,,,,,,,,,,,,,,,,,,,,,,,,,,,,,,,
,,,,,SPR24_099,19,female,2024-04-26_10h06.44.853,jersey_experiment_5_v0,2023.2.2,Win32,84.74576271,,,,,,,,,,,,,,,,371.3068,372.6008,372.6009,374.7773,return,1.3848,,75.26041667,,,,,,FBP-RB-91.png,0.43,1.2,44,0.5,0,25,25,43,1,,,,,,,,,,,,,,,,,,,,,,,,,,,,,,,,,,,,,,,,
,,,,,SPR24_099,19,female,2024-04-26_10h06.44.853,jersey_experiment_5_v0,2023.2.2,Win32,84.74576271,,,,,,,,,,,,,,,,374.7776,376.0748,376.0748,377.6043,return,0.8239,,80.72916667,,,,,,FBP-RB-71.png,0.43,1.2,34,0.5,0,26,26,33,1,,,,,,,,,,,,,,,,,,,,,,,,,,,,,,,,,,,,,,,,
,,,,,SPR24_099,19,female,2024-04-26_10h06.44.853,jersey_experiment_5_v0,2023.2.2,Win32,84.74576271,,,,,,,,,,,,,,,,377.6045,378.648,378.6482,380.6527,return,0.7898,,45.3125,,,,,,FBP-YG-71.png,0.37,1.2,17,0.25,0,27,27,16,1,,,,,,,,,,,,,,,,,,,,,,,,,,,,,,,,,,,,,,,,
,,,,,SPR24_099,19,female,2024-04-26_10h06.44.853,jersey_experiment_5_v0,2023.2.2,Win32,84.74576271,,,,,,,,,,,,,,,,380.6529,381.6953,381.6953,383.5659,return,0.7433,,72.65625,,,,,,FBP-YG-91.png,0.43,1.2,29,0.25,0,28,28,28,1,,,,,,,,,,,,,,,,,,,,,,,,,,,,,,,,,,,,,,,,
,,,,,SPR24_099,19,female,2024-04-26_10h06.44.853,jersey_experiment_5_v0,2023.2.2,Win32,84.74576271,,,,,,,,,,,,,,,,383.5662,384.8645,384.8646,386.3811,return,0.6591,,48.69791667,,,,,,FBP-RB-71.png,0.35,1.2,31,0.5,0,29,29,30,1,,,,,,,,,,,,,,,,,,,,,,,,,,,,,,,,,,,,,,,,
,,,,,SPR24_099,19,female,2024-04-26_10h06.44.853,jersey_experiment_5_v0,2023.2.2,Win32,84.74576271,,,,,,,,,,,,,,,,386.3812,387.4248,387.4249,389.2048,return,0.8706,,80.98958333,,,,,,FBP-PT-71.png,0.45,1.2,50,0.25,0,30,30,49,1,,,,,,,,,,,,,,,,,,,,,,,,,,,,,,,,,,,,,,,,
,,,,,SPR24_099,19,female,2024-04-26_10h06.44.853,jersey_experiment_5_v0,2023.2.2,Win32,84.74576271,,,,,,,,,,,,,,,,389.205,390.2484,390.2485,392.206,return,0.7427,,79.03645833,,,,,,FBP-YG-71.png,0.45,1.2,20,0.25,0,31,31,19,1,,,,,,,,,,,,,,,,,,,,,,,,,,,,,,,,,,,,,,,,
,,,,,SPR24_099,19,female,2024-04-26_10h06.44.853,jersey_experiment_5_v0,2023.2.2,Win32,84.74576271,,,,,,,,,,,,,,,,392.2061,393.5108,393.5109,395.3826,return,0.9781,,79.16666667,,,,,,FBP-OG-19.png,0.43,1.2,14,0.5,0,32,32,13,1,,,,,,,,,,,,,,,,,,,,,,,,,,,,,,,,,,,,,,,,
,,,,,SPR24_099,19,female,2024-04-26_10h06.44.853,jersey_experiment_5_v0,2023.2.2,Win32,84.74576271,,,,,,,,,,,,,,,,395.3828,396.6874,396.6874,398.7012,return,1.2245,,44.01041667,,,,,,FBP-RB-81.png,0.35,1.2,36,0.5,0,33,33,35,1,,,,,,,,,,,,,,,,,,,,,,,,,,,,,,,,,,,,,,,,
,,,,,SPR24_099,19,female,2024-04-26_10h06.44.853,jersey_experiment_5_v0,2023.2.2,Win32,84.74576271,,,,,,,,,,,,,,,,398.7014,399.994,399.9941,401.4405,return,0.7402,,39.32291667,,,,,,FBP-OG-17.png,0.4,1.2,3,0.5,0,34,34,2,1,,,,,,,,,,,,,,,,,,,,,,,,,,,,,,,,,,,,,,,,
,,,,,SPR24_099,19,female,2024-04-26_10h06.44.853,jersey_experiment_5_v0,2023.2.2,Win32,84.74576271,,,,,,,,,,,,,,,,401.4406,402.4841,402.4842,410.0999,return,0.7533,,37.890625,,,,,,FBP-PT-91.png,0.45,1.2,60,0.25,0,35,35,59,1,,,,,,,,,,,,,,,,,,,,,,,,,,,,,,,,,,,,,,,,
,,,,,SPR24_099,19,female,2024-04-26_10h06.44.853,jersey_experiment_5_v0,2023.2.2,Win32,84.74576271,,,,,,,,,,,,,,,,410.1,411.4022,411.4023,412.688,return,0.7169,,37.890625,,,,,,FBP-OG-18.png,0.4,1.2,8,0.5,0,36,36,7,1,,,,,,,,,,,,,,,,,,,,,,,,,,,,,,,,,,,,,,,,
,,,,,SPR24_099,19,female,2024-04-26_10h06.44.853,jersey_experiment_5_v0,2023.2.2,Win32,84.74576271,,,,,,,,,,,,,,,,412.6881,413.7318,413.7318,415.7232,return,0.8002,,16.53645833,,,,,,FBP-YG-91.png,0.35,1.2,26,0.25,0,37,37,25,1,,,,,,,,,,,,,,,,,,,,,,,,,,,,,,,,,,,,,,,,
,,,,,SPR24_099,19,female,2024-04-26_10h06.44.853,jersey_experiment_5_v0,2023.2.2,Win32,84.74576271,,,,,,,,,,,,,,,,415.7234,417.0174,417.0174,419.5823,return,1.2475,,45.18229167,,,,,,FBP-OG-17.png,0.43,1.2,4,0.5,0,38,38,3,1,,,,,,,,,,,,,,,,,,,,,,,,,,,,,,,,,,,,,,,,
,,,,,SPR24_099,19,female,2024-04-26_10h06.44.853,jersey_experiment_5_v0,2023.2.2,Win32,84.74576271,,,,,,,,,,,,,,,,419.5824,420.8764,420.8764,422.8665,return,0.837,,32.68229167,,,,,,FBP-OG-18.png,0.37,1.2,7,0.5,0,39,39,6,1,,,,,,,,,,,,,,,,,,,,,,,,,,,,,,,,,,,,,,,,
,,,,,SPR24_099,19,female,2024-04-26_10h06.44.853,jersey_experiment_5_v0,2023.2.2,Win32,84.74576271,,,,,,,,,,,,,,,,422.8666,423.9086,423.9086,425.7369,return,0.7899,,20.18229167,,,,,,FBP-YG-81.png,0.35,1.2,21,0.25,0,40,40,20,1,,,,,,,,,,,,,,,,,,,,,,,,,,,,,,,,,,,,,,,,
,,,,,SPR24_099,19,female,2024-04-26_10h06.44.853,jersey_experiment_5_v0,2023.2.2,Win32,84.74576271,,,,,,,,,,,,,,,,425.737,427.0414,427.0414,428.4733,return,0.7724,,14.453125,,,,,,FBP-OG-19.png,0.35,1.2,11,0.5,0,41,41,10,1,,,,,,,,,,,,,,,,,,,,,,,,,,,,,,,,,,,,,,,,
,,,,,SPR24_099,19,female,2024-04-26_10h06.44.853,jersey_experiment_5_v0,2023.2.2,Win32,84.74576271,,,,,,,,,,,,,,,,428.4736,429.5248,429.5248,431.7474,return,0.7167,,69.79166667,,,,,,FBP-PT-71.png,0.43,1.2,49,0.25,0,42,42,48,1,,,,,,,,,,,,,,,,,,,,,,,,,,,,,,,,,,,,,,,,
,,,,,SPR24_099,19,female,2024-04-26_10h06.44.853,jersey_experiment_5_v0,2023.2.2,Win32,84.74576271,,,,,,,,,,,,,,,,431.7476,433.0412,433.0413,434.4064,return,0.7061,,70.18229167,,,,,,FBP-RB-71.png,0.37,1.2,32,0.5,0,43,43,31,1,,,,,,,,,,,,,,,,,,,,,,,,,,,,,,,,,,,,,,,,
,,,,,SPR24_099,19,female,2024-04-26_10h06.44.853,jersey_experiment_5_v0,2023.2.2,Win32,84.74576271,,,,,,,,,,,,,,,,434.4065,435.7007,435.7007,438.1135,return,0.8369,,48.30729167,,,,,,FBP-OG-19.png,0.37,1.2,12,0.5,0,44,44,11,1,,,,,,,,,,,,,,,,,,,,,,,,,,,,,,,,,,,,,,,,
,,,,,SPR24_099,19,female,2024-04-26_10h06.44.853,jersey_experiment_5_v0,2023.2.2,Win32,84.74576271,,,,,,,,,,,,,,,,438.1138,439.1594,439.1594,441.6304,return,0.7768,,29.296875,,,,,,FBP-PT-71.png,0.35,1.2,46,0.25,0,45,45,45,1,,,,,,,,,,,,,,,,,,,,,,,,,,,,,,,,,,,,,,,,
,,,,,SPR24_099,19,female,2024-04-26_10h06.44.853,jersey_experiment_5_v0,2023.2.2,Win32,84.74576271,,,,,,,,,,,,,,,,441.6305,442.6783,442.6783,443.9562,return,0.6252,,27.99479167,,,,,,FBP-PT-81.png,0.37,1.2,52,0.25,0,46,46,51,1,,,,,,,,,,,,,,,,,,,,,,,,,,,,,,,,,,,,,,,,
,,,,,SPR24_099,19,female,2024-04-26_10h06.44.853,jersey_experiment_5_v0,2023.2.2,Win32,84.74576271,,,,,,,,,,,,,,,,443.9565,445.0084,445.0084,446.4199,return,0.6252,,27.99479167,,,,,,FBP-PT-91.png,0.37,1.2,57,0.25,0,47,47,56,1,,,,,,,,,,,,,,,,,,,,,,,,,,,,,,,,,,,,,,,,
,,,,,SPR24_099,19,female,2024-04-26_10h06.44.853,jersey_experiment_5_v0,2023.2.2,Win32,84.74576271,,,,,,,,,,,,,,,,446.42,447.4623,447.4624,448.7597,return,0.6689,,28.90625,,,,,,FBP-YG-91.png,0.37,1.2,27,0.25,0,48,48,26,1,,,,,,,,,,,,,,,,,,,,,,,,,,,,,,,,,,,,,,,,
,,,,,SPR24_099,19,female,2024-04-26_10h06.44.853,jersey_experiment_5_v0,2023.2.2,Win32,84.74576271,,,,,,,,,,,,,,,,448.7598,449.8036,449.8036,451.748,return,0.6356,,68.359375,,,,,,FBP-YG-81.png,0.43,1.2,24,0.25,0,49,49,23,1,,,,,,,,,,,,,,,,,,,,,,,,,,,,,,,,,,,,,,,,
,,,,,SPR24_099,19,female,2024-04-26_10h06.44.853,jersey_experiment_5_v0,2023.2.2,Win32,84.74576271,,,,,,,,,,,,,,,,451.7482,453.0507,453.0507,454.5617,return,0.6958,,82.55208333,,,,,,FBP-RB-71.png,0.45,1.2,35,0.5,0,50,50,34,1,,,,,,,,,,,,,,,,,,,,,,,,,,,,,,,,,,,,,,,,
,,,,,SPR24_099,19,female,2024-04-26_10h06.44.853,jersey_experiment_5_v0,2023.2.2,Win32,84.74576271,,,,,,,,,,,,,,,,454.5619,455.855,455.8551,457.9501,return,0.7903,,92.578125,,,,,,FBP-OG-18.png,0.45,1.2,10,0.5,0,51,51,9,1,,,,,,,,,,,,,,,,,,,,,,,,,,,,,,,,,,,,,,,,
,,,,,SPR24_099,19,female,2024-04-26_10h06.44.853,jersey_experiment_5_v0,2023.2.2,Win32,84.74576271,,,,,,,,,,,,,,,,457.9503,458.9921,458.9922,461.3853,return,0.8477,,26.30208333,,,,,,FBP-PT-71.png,0.37,1.2,47,0.25,0,52,52,46,1,,,,,,,,,,,,,,,,,,,,,,,,,,,,,,,,,,,,,,,,
,,,,,SPR24_099,19,female,2024-04-26_10h06.44.853,jersey_experiment_5_v0,2023.2.2,Win32,84.74576271,,,,,,,,,,,,,,,,461.3856,462.4276,462.4276,464.1218,return,0.783,,42.44791667,,,,,,FBP-YG-71.png,0.4,1.2,18,0.25,0,53,53,17,1,,,,,,,,,,,,,,,,,,,,,,,,,,,,,,,,,,,,,,,,
,,,,,SPR24_099,19,female,2024-04-26_10h06.44.853,jersey_experiment_5_v0,2023.2.2,Win32,84.74576271,,,,,,,,,,,,,,,,464.1219,465.4158,465.4158,469.0432,return,1.2007,,73.30729167,,,,,,FBP-OG-17.png,0.45,1.2,5,0.5,0,54,54,4,1,,,,,,,,,,,,,,,,,,,,,,,,,,,,,,,,,,,,,,,,
,,,,,SPR24_099,19,female,2024-04-26_10h06.44.853,jersey_experiment_5_v0,2023.2.2,Win32,84.74576271,,,,,,,,,,,,,,,,469.0434,470.0866,470.0866,473.9844,return,2.377,,55.98958333,,,,,,FBP-YG-91.png,0.45,1.2,30,0.25,0,55,55,29,1,,,,,,,,,,,,,,,,,,,,,,,,,,,,,,,,,,,,,,,,
,,,,,SPR24_099,19,female,2024-04-26_10h06.44.853,jersey_experiment_5_v0,2023.2.2,Win32,84.74576271,,,,,,,,,,,,,,,,473.9845,475.0281,475.0281,477.5503,return,1.3782,,28.38541667,,,,,,FBP-YG-81.png,0.37,1.2,22,0.25,0,56,56,21,1,,,,,,,,,,,,,,,,,,,,,,,,,,,,,,,,,,,,,,,,
,,,,,SPR24_099,19,female,2024-04-26_10h06.44.853,jersey_experiment_5_v0,2023.2.2,Win32,84.74576271,,,,,,,,,,,,,,,,477.5505,478.5929,478.593,481.6682,return,0.918,,44.140625,,,,,,FBP-YG-91.png,0.4,1.2,28,0.25,0,57,57,27,1,,,,,,,,,,,,,,,,,,,,,,,,,,,,,,,,,,,,,,,,
,,,,,SPR24_099,19,female,2024-04-26_10h06.44.853,jersey_experiment_5_v0,2023.2.2,Win32,84.74576271,,,,,,,,,,,,,,,,481.6684,482.7137,482.7137,484.8755,return,0.8049,,31.77083333,,,,,,FBP-PT-71.png,0.4,1.2,48,0.25,0,58,58,47,1,,,,,,,,,,,,,,,,,,,,,,,,,,,,,,,,,,,,,,,,
,,,,,SPR24_099,19,female,2024-04-26_10h06.44.853,jersey_experiment_5_v0,2023.2.2,Win32,84.74576271,,,,,,,,,,,,,,,,484.8756,486.1727,486.1727,487.8672,return,0.9888,,29.81770833,,,,,,FBP-OG-19.png,0.45,1.2,15,0.5,0,59,59,14,1,,,,,,,,,,,,,,,,,,,,,,,,,,,,,,,,,,,,,,,,
,,,,,SPR24_099,19,female,2024-04-26_10h06.44.853,jersey_experiment_5_v0,2023.2.2,Win32,84.74576271,,,,,,,,,,,,,,,,,,,,,,,,,,,,,,,,,,,,,,,487.8674,607.8684,,,,,,,,,,,,,,,,,,,,,,,,,,,,,,,,,,,,,,
,,,,,SPR24_099,19,female,2024-04-26_10h06.44.853,jersey_experiment_5_v0,2023.2.2,Win32,84.74576271,,,,,,,,,,,,,,,,,,,,,,,,,,,,,,,,,,,,,,,,,607.8685,609.7741,return,1.8837,,,,,,,,,,,,,,,,,,,,,,,,,,,,,,,,,,
,,,,,SPR24_099,19,female,2024-04-26_10h06.44.853,jersey_experiment_5_v0,2023.2.2,Win32,84.74576271,,,,,,,,,,,,,,,,609.7805,611.0843,611.0844,613.3742,return,0.7313,,62.36979167,,,,,,FBP-YG-18.png,0.43,1.2,24,0.5,,,,,,,,,,,,,0,0,0,23,1,,,,,,,,,,,,,,,,,,,,,,,,,,,,
,,,,,SPR24_099,19,female,2024-04-26_10h06.44.853,jersey_experiment_5_v0,2023.2.2,Win32,84.74576271,,,,,,,,,,,,,,,,613.3744,614.6713,614.6713,615.8246,return,0.6462,,66.796875,,,,,,FBP-PT-17.png,0.43,1.2,49,0.5,,,,,,,,,,,,,0,1,1,48,1,,,,,,,,,,,,,,,,,,,,,,,,,,,,
,,,,,SPR24_099,19,female,2024-04-26_10h06.44.853,jersey_experiment_5_v0,2023.2.2,Win32,84.74576271,,,,,,,,,,,,,,,,615.8248,616.8683,616.8684,618.6215,return,0.7211,,47.65625,,,,,,FBP-RB-19.png,0.37,1.2,42,0.25,,,,,,,,,,,,,0,2,2,41,1,,,,,,,,,,,,,,,,,,,,,,,,,,,,
,,,,,SPR24_099,19,female,2024-04-26_10h06.44.853,jersey_experiment_5_v0,2023.2.2,Win32,84.74576271,,,,,,,,,,,,,,,,618.6217,619.6684,619.6685,621.5425,return,0.8816,,32.94270833,,,,,,FBP-RB-18.png,0.37,1.2,37,0.25,,,,,,,,,,,,,0,3,3,36,1,,,,,,,,,,,,,,,,,,,,,,,,,,,,
,,,,,SPR24_099,19,female,2024-04-26_10h06.44.853,jersey_experiment_5_v0,2023.2.2,Win32,84.74576271,,,,,,,,,,,,,,,,621.5427,622.8364,622.8364,624.7424,return,0.693,,67.83854167,,,,,,FBP-PT-19.png,0.43,1.2,59,0.5,,,,,,,,,,,,,0,4,4,58,1,,,,,,,,,,,,,,,,,,,,,,,,,,,,
,,,,,SPR24_099,19,female,2024-04-26_10h06.44.853,jersey_experiment_5_v0,2023.2.2,Win32,84.74576271,,,,,,,,,,,,,,,,624.7425,625.7906,625.7907,627.4688,return,0.6749,,18.359375,,,,,,FBP-OG-71.png,0.35,1.2,1,0.25,,,,,,,,,,,,,0,5,5,0,1,,,,,,,,,,,,,,,,,,,,,,,,,,,,
,,,,,SPR24_099,19,female,2024-04-26_10h06.44.853,jersey_experiment_5_v0,2023.2.2,Win32,84.74576271,,,,,,,,,,,,,,,,627.469,628.7661,628.7661,630.5782,return,0.7769,,30.98958333,,,,,,FBP-PT-18.png,0.37,1.2,52,0.5,,,,,,,,,,,,,0,6,6,51,1,,,,,,,,,,,,,,,,,,,,,,,,,,,,
,,,,,SPR24_099,19,female,2024-04-26_10h06.44.853,jersey_experiment_5_v0,2023.2.2,Win32,84.74576271,,,,,,,,,,,,,,,,630.5784,631.8845,631.8845,633.6969,return,0.6957,,72.265625,,,,,,FBP-YG-18.png,0.4,1.2,23,0.5,,,,,,,,,,,,,0,7,7,22,1,,,,,,,,,,,,,,,,,,,,,,,,,,,,
,,,,,SPR24_099,19,female,2024-04-26_10h06.44.853,jersey_experiment_5_v0,2023.2.2,Win32,84.74576271,,,,,,,,,,,,,,,,633.6971,634.9912,634.9912,637.6731,return,2.1775,,78.64583333,,,,,,FBP-YG-17.png,0.45,1.2,20,0.5,,,,,,,,,,,,,0,8,8,19,1,,,,,,,,,,,,,,,,,,,,,,,,,,,,
,,,,,SPR24_099,19,female,2024-04-26_10h06.44.853,jersey_experiment_5_v0,2023.2.2,Win32,84.74576271,,,,,,,,,,,,,,,,637.6732,638.978,638.978,640.6017,return,0.7999,,40.88541667,,,,,,FBP-PT-17.png,0.4,1.2,48,0.5,,,,,,,,,,,,,0,9,9,47,1,,,,,,,,,,,,,,,,,,,,,,,,,,,,
,,,,,SPR24_099,19,female,2024-04-26_10h06.44.853,jersey_experiment_5_v0,2023.2.2,Win32,84.74576271,,,,,,,,,,,,,,,,640.6018,641.6505,641.6505,643.3869,return,0.699,,69.79166667,,,,,,FBP-OG-81.png,0.45,1.2,10,0.25,,,,,,,,,,,,,0,10,10,9,1,,,,,,,,,,,,,,,,,,,,,,,,,,,,
,,,,,SPR24_099,19,female,2024-04-26_10h06.44.853,jersey_experiment_5_v0,2023.2.2,Win32,84.74576271,,,,,,,,,,,,,,,,643.3871,644.4341,644.4341,650.1402,return,3.111,,66.66666667,,,,,,FBP-OG-91.png,0.4,1.2,13,0.25,,,,,,,,,,,,,0,11,11,12,1,,,,,,,,,,,,,,,,,,,,,,,,,,,,
,,,,,SPR24_099,19,female,2024-04-26_10h06.44.853,jersey_experiment_5_v0,2023.2.2,Win32,84.74576271,,,,,,,,,,,,,,,,650.1445,651.4386,651.4386,652.752,return,0.6709,,77.08333333,,,,,,FBP-PT-19.png,0.45,1.2,60,0.5,,,,,,,,,,,,,0,12,12,59,1,,,,,,,,,,,,,,,,,,,,,,,,,,,,
,,,,,SPR24_099,19,female,2024-04-26_10h06.44.853,jersey_experiment_5_v0,2023.2.2,Win32,84.74576271,,,,,,,,,,,,,,,,652.7522,653.799,653.7991,655.6614,return,0.6463,,70.703125,,,,,,FBP-RB-17.png,0.43,1.2,34,0.25,,,,,,,,,,,,,0,13,13,33,1,,,,,,,,,,,,,,,,,,,,,,,,,,,,
,,,,,SPR24_099,19,female,2024-04-26_10h06.44.853,jersey_experiment_5_v0,2023.2.2,Win32,84.74576271,,,,,,,,,,,,,,,,655.6617,656.705,656.705,659.1332,return,1.2604,,78.515625,,,,,,FBP-RB-19.png,0.43,1.2,44,0.25,,,,,,,,,,,,,0,14,14,43,1,,,,,,,,,,,,,,,,,,,,,,,,,,,,
,,,,,SPR24_099,19,female,2024-04-26_10h06.44.853,jersey_experiment_5_v0,2023.2.2,Win32,84.74576271,,,,,,,,,,,,,,,,659.1333,660.4271,660.4271,663.5055,return,2.4233,,66.14583333,,,,,,FBP-PT-18.png,0.43,1.2,54,0.5,,,,,,,,,,,,,0,15,15,53,1,,,,,,,,,,,,,,,,,,,,,,,,,,,,
,,,,,SPR24_099,19,female,2024-04-26_10h06.44.853,jersey_experiment_5_v0,2023.2.2,Win32,84.74576271,,,,,,,,,,,,,,,,663.5057,664.5552,664.5552,667.2465,return,1.2128,,77.60416667,,,,,,FBP-OG-91.png,0.45,1.2,15,0.25,,,,,,,,,,,,,0,16,16,14,1,,,,,,,,,,,,,,,,,,,,,,,,,,,,
,,,,,SPR24_099,19,female,2024-04-26_10h06.44.853,jersey_experiment_5_v0,2023.2.2,Win32,84.74576271,,,,,,,,,,,,,,,,667.2466,668.2937,668.2938,671.3292,return,2.3188,,80.59895833,,,,,,FBP-RB-19.png,0.45,1.2,45,0.25,,,,,,,,,,,,,0,17,17,44,1,,,,,,,,,,,,,,,,,,,,,,,,,,,,
,,,,,SPR24_099,19,female,2024-04-26_10h06.44.853,jersey_experiment_5_v0,2023.2.2,Win32,84.74576271,,,,,,,,,,,,,,,,671.3293,672.6264,672.6265,674.0983,return,0.719,,17.578125,,,,,,FBP-YG-18.png,0.35,1.2,21,0.5,,,,,,,,,,,,,0,18,18,20,1,,,,,,,,,,,,,,,,,,,,,,,,,,,,
,,,,,SPR24_099,19,female,2024-04-26_10h06.44.853,jersey_experiment_5_v0,2023.2.2,Win32,84.74576271,,,,,,,,,,,,,,,,674.0984,675.3926,675.3926,677.1444,return,0.6696,,46.74479167,,,,,,FBP-YG-19.png,0.4,1.2,28,0.5,,,,,,,,,,,,,0,19,19,27,1,,,,,,,,,,,,,,,,,,,,,,,,,,,,
,,,,,SPR24_099,19,female,2024-04-26_10h06.44.853,jersey_experiment_5_v0,2023.2.2,Win32,84.74576271,,,,,,,,,,,,,,,,677.1446,678.1882,678.1882,680,return,0.6934,,70.703125,,,,,,FBP-RB-18.png,0.43,1.2,39,0.25,,,,,,,,,,,,,0,20,20,38,1,,,,,,,,,,,,,,,,,,,,,,,,,,,,
,,,,,SPR24_099,19,female,2024-04-26_10h06.44.853,jersey_experiment_5_v0,2023.2.2,Win32,84.74576271,,,,,,,,,,,,,,,,680.0002,681.2943,681.2943,688.3215,return,5.5405,,69.921875,,,,,,FBP-YG-19.png,0.43,1.2,29,0.5,,,,,,,,,,,,,0,21,21,28,1,,,,,,,,,,,,,,,,,,,,,,,,,,,,
,,,,,SPR24_099,19,female,2024-04-26_10h06.44.853,jersey_experiment_5_v0,2023.2.2,Win32,84.74576271,,,,,,,,,,,,,,,,688.3257,689.3698,689.3699,691.9818,return,0.8477,,20.83333333,,,,,,FBP-OG-81.png,0.37,1.2,7,0.25,,,,,,,,,,,,,0,22,22,6,1,,,,,,,,,,,,,,,,,,,,,,,,,,,,
,,,,,SPR24_099,19,female,2024-04-26_10h06.44.853,jersey_experiment_5_v0,2023.2.2,Win32,84.74576271,,,,,,,,,,,,,,,,691.9821,693.2762,693.2762,695.3333,return,0.7769,,70.3125,,,,,,FBP-PT-18.png,0.45,1.2,55,0.5,,,,,,,,,,,,,0,23,23,54,1,,,,,,,,,,,,,,,,,,,,,,,,,,,,
,,,,,SPR24_099,19,female,2024-04-26_10h06.44.853,jersey_experiment_5_v0,2023.2.2,Win32,84.74576271,,,,,,,,,,,,,,,,695.3337,696.6403,696.6403,699.0875,return,0.7296,,34.11458333,,,,,,FBP-YG-18.png,0.37,1.2,22,0.5,,,,,,,,,,,,,0,24,24,21,1,,,,,,,,,,,,,,,,,,,,,,,,,,,,
,,,,,SPR24_099,19,female,2024-04-26_10h06.44.853,jersey_experiment_5_v0,2023.2.2,Win32,84.74576271,,,,,,,,,,,,,,,,699.0877,700.1301,700.1302,702.0126,return,0.7093,,80.72916667,,,,,,FBP-RB-17.png,0.45,1.2,35,0.25,,,,,,,,,,,,,0,25,25,34,1,,,,,,,,,,,,,,,,,,,,,,,,,,,,
,,,,,SPR24_099,19,female,2024-04-26_10h06.44.853,jersey_experiment_5_v0,2023.2.2,Win32,84.74576271,,,,,,,,,,,,,,,,702.0129,703.0641,703.0641,704.7185,return,0.6737,,51.953125,,,,,,FBP-RB-17.png,0.37,1.2,32,0.25,,,,,,,,,,,,,0,26,26,31,1,,,,,,,,,,,,,,,,,,,,,,,,,,,,
,,,,,SPR24_099,19,female,2024-04-26_10h06.44.853,jersey_experiment_5_v0,2023.2.2,Win32,84.74576271,,,,,,,,,,,,,,,,704.7188,705.7656,705.7657,707.6127,return,0.6748,,51.953125,,,,,,FBP-OG-81.png,0.4,1.2,8,0.25,,,,,,,,,,,,,0,27,27,7,1,,,,,,,,,,,,,,,,,,,,,,,,,,,,
,,,,,SPR24_099,19,female,2024-04-26_10h06.44.853,jersey_experiment_5_v0,2023.2.2,Win32,84.74576271,,,,,,,,,,,,,,,,707.613,708.6642,708.6642,710.4951,return,0.6844,,52.60416667,,,,,,FBP-RB-17.png,0.4,1.2,33,0.25,,,,,,,,,,,,,0,28,28,32,1,,,,,,,,,,,,,,,,,,,,,,,,,,,,
,,,,,SPR24_099,19,female,2024-04-26_10h06.44.853,jersey_experiment_5_v0,2023.2.2,Win32,84.74576271,,,,,,,,,,,,,,,,710.4953,711.7894,711.7894,713.6632,return,0.8106,,39.84375,,,,,,FBP-YG-17.png,0.37,1.2,17,0.5,,,,,,,,,,,,,0,29,29,16,1,,,,,,,,,,,,,,,,,,,,,,,,,,,,
,,,,,SPR24_099,19,female,2024-04-26_10h06.44.853,jersey_experiment_5_v0,2023.2.2,Win32,84.74576271,,,,,,,,,,,,,,,,713.6633,714.7115,714.7116,717.3425,return,0.7793,,60.9375,,,,,,FBP-RB-18.png,0.4,1.2,38,0.25,,,,,,,,,,,,,0,30,30,37,1,,,,,,,,,,,,,,,,,,,,,,,,,,,,
,,,,,SPR24_099,19,female,2024-04-26_10h06.44.853,jersey_experiment_5_v0,2023.2.2,Win32,84.74576271,,,,,,,,,,,,,,,,717.3426,718.6415,718.6415,721.6839,return,1.6367,,78.125,,,,,,FBP-YG-18.png,0.45,1.2,25,0.5,,,,,,,,,,,,,0,31,31,24,1,,,,,,,,,,,,,,,,,,,,,,,,,,,,
,,,,,SPR24_099,19,female,2024-04-26_10h06.44.853,jersey_experiment_5_v0,2023.2.2,Win32,84.74576271,,,,,,,,,,,,,,,,721.6841,722.978,722.978,724.853,return,0.6825,,78.25520833,,,,,,FBP-YG-17.png,0.4,1.2,18,0.5,,,,,,,,,,,,,0,32,32,17,1,,,,,,,,,,,,,,,,,,,,,,,,,,,,
,,,,,SPR24_099,19,female,2024-04-26_10h06.44.853,jersey_experiment_5_v0,2023.2.2,Win32,84.74576271,,,,,,,,,,,,,,,,724.8532,726.1576,726.1576,728.053,return,0.9304,,49.86979167,,,,,,FBP-YG-19.png,0.37,1.2,27,0.5,,,,,,,,,,,,,0,33,33,26,1,,,,,,,,,,,,,,,,,,,,,,,,,,,,
,,,,,SPR24_099,19,female,2024-04-26_10h06.44.853,jersey_experiment_5_v0,2023.2.2,Win32,84.74576271,,,,,,,,,,,,,,,,728.0532,729.0991,729.0992,730.9547,return,0.7237,,22.13541667,,,,,,FBP-RB-17.png,0.35,1.2,31,0.25,,,,,,,,,,,,,0,34,34,30,1,,,,,,,,,,,,,,,,,,,,,,,,,,,,
,,,,,SPR24_099,19,female,2024-04-26_10h06.44.853,jersey_experiment_5_v0,2023.2.2,Win32,84.74576271,,,,,,,,,,,,,,,,730.9549,732.0019,732.0019,733.6534,return,0.7427,,57.55208333,,,,,,FBP-RB-19.png,0.4,1.2,43,0.25,,,,,,,,,,,,,0,35,35,42,1,,,,,,,,,,,,,,,,,,,,,,,,,,,,
,,,,,SPR24_099,19,female,2024-04-26_10h06.44.853,jersey_experiment_5_v0,2023.2.2,Win32,84.74576271,,,,,,,,,,,,,,,,733.6536,734.9475,734.9475,736.4961,return,0.6229,,47.65625,,,,,,FBP-PT-17.png,0.35,1.2,46,0.5,,,,,,,,,,,,,0,36,36,45,1,,,,,,,,,,,,,,,,,,,,,,,,,,,,
,,,,,SPR24_099,19,female,2024-04-26_10h06.44.853,jersey_experiment_5_v0,2023.2.2,Win32,84.74576271,,,,,,,,,,,,,,,,736.4963,737.7949,737.7949,739.2772,return,0.6589,,40.625,,,,,,FBP-YG-17.png,0.35,1.2,16,0.5,,,,,,,,,,,,,0,37,37,15,1,,,,,,,,,,,,,,,,,,,,,,,,,,,,
,,,,,SPR24_099,19,female,2024-04-26_10h06.44.853,jersey_experiment_5_v0,2023.2.2,Win32,84.74576271,,,,,,,,,,,,,,,,739.2774,740.5787,740.5787,742.229,return,0.6695,,48.17708333,,,,,,FBP-YG-19.png,0.35,1.2,26,0.5,,,,,,,,,,,,,0,38,38,25,1,,,,,,,,,,,,,,,,,,,,,,,,,,,,
,,,,,SPR24_099,19,female,2024-04-26_10h06.44.853,jersey_experiment_5_v0,2023.2.2,Win32,84.74576271,,,,,,,,,,,,,,,,742.2292,743.5316,743.5317,744.9435,return,0.7539,,48.4375,,,,,,FBP-PT-19.png,0.37,1.2,57,0.5,,,,,,,,,,,,,0,39,39,56,1,,,,,,,,,,,,,,,,,,,,,,,,,,,,
,,,,,SPR24_099,19,female,2024-04-26_10h06.44.853,jersey_experiment_5_v0,2023.2.2,Win32,84.74576271,,,,,,,,,,,,,,,,744.9437,745.9906,745.9906,748.4411,return,0.6121,,56.11979167,,,,,,FBP-OG-91.png,0.43,1.2,14,0.25,,,,,,,,,,,,,0,40,40,13,1,,,,,,,,,,,,,,,,,,,,,,,,,,,,
,,,,,SPR24_099,19,female,2024-04-26_10h06.44.853,jersey_experiment_5_v0,2023.2.2,Win32,84.74576271,,,,,,,,,,,,,,,,748.4413,749.4892,749.4892,750.779,return,0.6282,,56.25,,,,,,FBP-OG-71.png,0.43,1.2,4,0.25,,,,,,,,,,,,,0,41,41,3,1,,,,,,,,,,,,,,,,,,,,,,,,,,,,
,,,,,SPR24_099,19,female,2024-04-26_10h06.44.853,jersey_experiment_5_v0,2023.2.2,Win32,84.74576271,,,,,,,,,,,,,,,,750.7791,752.0775,752.0775,753.3438,return,0.6238,,33.203125,,,,,,FBP-PT-18.png,0.35,1.2,51,0.5,,,,,,,,,,,,,0,42,42,50,1,,,,,,,,,,,,,,,,,,,,,,,,,,,,
,,,,,SPR24_099,19,female,2024-04-26_10h06.44.853,jersey_experiment_5_v0,2023.2.2,Win32,84.74576271,,,,,,,,,,,,,,,,753.3441,754.638,754.638,756.7137,return,0.7303,,38.02083333,,,,,,FBP-PT-18.png,0.4,1.2,53,0.5,,,,,,,,,,,,,0,43,43,52,1,,,,,,,,,,,,,,,,,,,,,,,,,,,,
,,,,,SPR24_099,19,female,2024-04-26_10h06.44.853,jersey_experiment_5_v0,2023.2.2,Win32,84.74576271,,,,,,,,,,,,,,,,756.7139,757.7557,757.7557,759.6146,return,0.6834,,38.02083333,,,,,,FBP-OG-71.png,0.37,1.2,2,0.25,,,,,,,,,,,,,0,44,44,1,1,,,,,,,,,,,,,,,,,,,,,,,,,,,,
,,,,,SPR24_099,19,female,2024-04-26_10h06.44.853,jersey_experiment_5_v0,2023.2.2,Win32,84.74576271,,,,,,,,,,,,,,,,759.6149,760.6666,760.6666,764.7239,return,2.5044,,37.23958333,,,,,,FBP-RB-19.png,0.35,1.2,41,0.25,,,,,,,,,,,,,0,45,45,40,1,,,,,,,,,,,,,,,,,,,,,,,,,,,,
,,,,,SPR24_099,19,female,2024-04-26_10h06.44.853,jersey_experiment_5_v0,2023.2.2,Win32,84.74576271,,,,,,,,,,,,,,,,764.724,765.7677,765.7677,767.3958,return,0.6356,,79.81770833,,,,,,FBP-OG-71.png,0.45,1.2,5,0.25,,,,,,,,,,,,,0,46,46,4,1,,,,,,,,,,,,,,,,,,,,,,,,,,,,
,,,,,SPR24_099,19,female,2024-04-26_10h06.44.853,jersey_experiment_5_v0,2023.2.2,Win32,84.74576271,,,,,,,,,,,,,,,,767.396,768.4384,768.4384,770.0973,return,0.6458,,33.59375,,,,,,FBP-OG-91.png,0.35,1.2,11,0.25,,,,,,,,,,,,,0,47,47,10,1,,,,,,,,,,,,,,,,,,,,,,,,,,,,
,,,,,SPR24_099,19,female,2024-04-26_10h06.44.853,jersey_experiment_5_v0,2023.2.2,Win32,84.74576271,,,,,,,,,,,,,,,,770.0975,771.1444,771.1445,773.3209,return,0.6532,,84.11458333,,,,,,FBP-RB-18.png,0.45,1.2,40,0.25,,,,,,,,,,,,,0,48,48,39,1,,,,,,,,,,,,,,,,,,,,,,,,,,,,
,,,,,SPR24_099,19,female,2024-04-26_10h06.44.853,jersey_experiment_5_v0,2023.2.2,Win32,84.74576271,,,,,,,,,,,,,,,,773.321,774.6152,774.6152,776.2858,return,0.6149,,75.13020833,,,,,,FBP-YG-17.png,0.43,1.2,19,0.5,,,,,,,,,,,,,0,49,49,18,1,,,,,,,,,,,,,,,,,,,,,,,,,,,,
,,,,,SPR24_099,19,female,2024-04-26_10h06.44.853,jersey_experiment_5_v0,2023.2.2,Win32,84.74576271,,,,,,,,,,,,,,,,776.2859,777.3329,777.3329,779.5683,return,0.7061,,29.03645833,,,,,,FBP-RB-18.png,0.35,1.2,36,0.25,,,,,,,,,,,,,0,50,50,35,1,,,,,,,,,,,,,,,,,,,,,,,,,,,,
,,,,,SPR24_099,19,female,2024-04-26_10h06.44.853,jersey_experiment_5_v0,2023.2.2,Win32,84.74576271,,,,,,,,,,,,,,,,779.5684,780.8625,780.8625,782.6307,return,0.6934,,81.640625,,,,,,FBP-YG-19.png,0.45,1.2,30,0.5,,,,,,,,,,,,,0,51,51,29,1,,,,,,,,,,,,,,,,,,,,,,,,,,,,
,,,,,SPR24_099,19,female,2024-04-26_10h06.44.853,jersey_experiment_5_v0,2023.2.2,Win32,84.74576271,,,,,,,,,,,,,,,,782.631,783.6787,783.6787,785.5332,return,0.7672,,71.09375,,,,,,FBP-OG-81.png,0.43,1.2,9,0.25,,,,,,,,,,,,,0,52,52,8,1,,,,,,,,,,,,,,,,,,,,,,,,,,,,
,,,,,SPR24_099,19,female,2024-04-26_10h06.44.853,jersey_experiment_5_v0,2023.2.2,Win32,84.74576271,,,,,,,,,,,,,,,,785.5334,786.5802,786.5802,789.2896,return,0.6682,,60.15625,,,,,,FBP-OG-71.png,0.4,1.2,3,0.25,,,,,,,,,,,,,0,53,53,2,1,,,,,,,,,,,,,,,,,,,,,,,,,,,,
,,,,,SPR24_099,19,female,2024-04-26_10h06.44.853,jersey_experiment_5_v0,2023.2.2,Win32,84.74576271,,,,,,,,,,,,,,,,789.29,790.592,790.5921,793.0982,return,1.0539,,24.73958333,,,,,,FBP-PT-19.png,0.35,1.2,56,0.5,,,,,,,,,,,,,0,54,54,55,1,,,,,,,,,,,,,,,,,,,,,,,,,,,,
,,,,,SPR24_099,19,female,2024-04-26_10h06.44.853,jersey_experiment_5_v0,2023.2.2,Win32,84.74576271,,,,,,,,,,,,,,,,793.0984,794.3956,794.3957,796.1571,return,0.7789,,32.8125,,,,,,FBP-PT-19.png,0.4,1.2,58,0.5,,,,,,,,,,,,,0,55,55,57,1,,,,,,,,,,,,,,,,,,,,,,,,,,,,
,,,,,SPR24_099,19,female,2024-04-26_10h06.44.853,jersey_experiment_5_v0,2023.2.2,Win32,84.74576271,,,,,,,,,,,,,,,,796.1572,797.4547,797.4547,800.6985,return,2.418,,73.828125,,,,,,FBP-PT-17.png,0.45,1.2,50,0.5,,,,,,,,,,,,,0,56,56,49,1,,,,,,,,,,,,,,,,,,,,,,,,,,,,
,,,,,SPR24_099,19,female,2024-04-26_10h06.44.853,jersey_experiment_5_v0,2023.2.2,Win32,84.74576271,,,,,,,,,,,,,,,,800.6986,801.9925,801.9925,803.9018,return,0.81,,32.16145833,,,,,,FBP-PT-17.png,0.37,1.2,47,0.5,,,,,,,,,,,,,0,57,57,46,1,,,,,,,,,,,,,,,,,,,,,,,,,,,,
,,,,,SPR24_099,19,female,2024-04-26_10h06.44.853,jersey_experiment_5_v0,2023.2.2,Win32,84.74576271,,,,,,,,,,,,,,,,803.9019,804.9456,804.9456,807.0077,return,0.7062,,21.22395833,,,,,,FBP-OG-81.png,0.35,1.2,6,0.25,,,,,,,,,,,,,0,58,58,5,1,,,,,,,,,,,,,,,,,,,,,,,,,,,,
,,,,,SPR24_099,19,female,2024-04-26_10h06.44.853,jersey_experiment_5_v0,2023.2.2,Win32,84.74576271,,,,,,,,,,,,,,,,807.0079,808.0515,808.0515,810.7341,return,0.7192,,31.640625,,,,,,FBP-OG-91.png,0.37,1.2,12,0.25,,,,,,,,,,,,,0,59,59,11,1,,,,,,,,,,,,,,,,,,,,,,,,,,,,
,,,,,SPR24_099,19,female,2024-04-26_10h06.44.853,jersey_experiment_5_v0,2023.2.2,Win32,84.74576271,,,,,,,,,,,,,,,,810.7359,812.0327,812.0327,813.8552,return,0.74,,40.10416667,,,,,,FBP-YG-71.png,0.35,1.2,16,0.5,,,,,,,,,,,,,,,,,,0,0,0,15,1,,,,,,,,,,,,,,,,,,,,,,,
,,,,,SPR24_099,19,female,2024-04-26_10h06.44.853,jersey_experiment_5_v0,2023.2.2,Win32,84.74576271,,,,,,,,,,,,,,,,813.8553,814.8989,814.8989,817.1343,return,0.7323,,58.85416667,,,,,,FBP-RB-91.png,0.4,1.2,43,0.25,,,,,,,,,,,,,,,,,,0,1,1,42,1,,,,,,,,,,,,,,,,,,,,,,,
,,,,,SPR24_099,19,female,2024-04-26_10h06.44.853,jersey_experiment_5_v0,2023.2.2,Win32,84.74576271,,,,,,,,,,,,,,,,817.1344,818.1812,818.1813,820.6167,return,0.7607,,46.35416667,,,,,,FBP-RB-81.png,0.37,1.2,37,0.25,,,,,,,,,,,,,,,,,,0,2,2,36,1,,,,,,,,,,,,,,,,,,,,,,,
,,,,,SPR24_099,19,female,2024-04-26_10h06.44.853,jersey_experiment_5_v0,2023.2.2,Win32,84.74576271,,,,,,,,,,,,,,,,820.617,821.6638,821.6638,823.4521,return,0.8634,,29.42708333,,,,,,FBP-OG-17.png,0.35,1.2,1,0.25,,,,,,,,,,,,,,,,,,0,3,3,0,1,,,,,,,,,,,,,,,,,,,,,,,
,,,,,SPR24_099,19,female,2024-04-26_10h06.44.853,jersey_experiment_5_v0,2023.2.2,Win32,84.74576271,,,,,,,,,,,,,,,,823.4524,824.7494,824.7494,828.3347,return,2.4361,,58.72395833,,,,,,FBP-PT-91.png,0.4,1.2,58,0.5,,,,,,,,,,,,,,,,,,0,4,4,57,1,,,,,,,,,,,,,,,,,,,,,,,
,,,,,SPR24_099,19,female,2024-04-26_10h06.44.853,jersey_experiment_5_v0,2023.2.2,Win32,84.74576271,,,,,,,,,,,,,,,,828.3348,829.6338,829.6338,831.3464,return,0.8237,,71.35416667,,,,,,FBP-YG-81.png,0.4,1.2,23,0.5,,,,,,,,,,,,,,,,,,0,5,5,22,1,,,,,,,,,,,,,,,,,,,,,,,
,,,,,SPR24_099,19,female,2024-04-26_10h06.44.853,jersey_experiment_5_v0,2023.2.2,Win32,84.74576271,,,,,,,,,,,,,,,,831.3466,832.645,832.645,834.4996,return,0.7766,,78.125,,,,,,FBP-YG-71.png,0.45,1.2,20,0.5,,,,,,,,,,,,,,,,,,0,6,6,19,1,,,,,,,,,,,,,,,,,,,,,,,
,,,,,SPR24_099,19,female,2024-04-26_10h06.44.853,jersey_experiment_5_v0,2023.2.2,Win32,84.74576271,,,,,,,,,,,,,,,,834.4997,835.7982,835.7982,837.582,return,0.7192,,54.03645833,,,,,,FBP-PT-91.png,0.37,1.2,57,0.5,,,,,,,,,,,,,,,,,,0,7,7,56,1,,,,,,,,,,,,,,,,,,,,,,,
,,,,,SPR24_099,19,female,2024-04-26_10h06.44.853,jersey_experiment_5_v0,2023.2.2,Win32,84.74576271,,,,,,,,,,,,,,,,837.5822,838.6292,838.6292,840.1467,return,0.8108,,53.77604167,,,,,,FBP-OG-17.png,0.37,1.2,2,0.25,,,,,,,,,,,,,,,,,,0,8,8,1,1,,,,,,,,,,,,,,,,,,,,,,,
,,,,,SPR24_099,19,female,2024-04-26_10h06.44.853,jersey_experiment_5_v0,2023.2.2,Win32,84.74576271,,,,,,,,,,,,,,,,840.1469,841.194,841.194,842.7706,return,0.6828,,66.27604167,,,,,,FBP-OG-18.png,0.43,1.2,9,0.25,,,,,,,,,,,,,,,,,,0,9,9,8,1,,,,,,,,,,,,,,,,,,,,,,,
,,,,,SPR24_099,19,female,2024-04-26_10h06.44.853,jersey_experiment_5_v0,2023.2.2,Win32,84.74576271,,,,,,,,,,,,,,,,842.7708,843.8226,843.8226,845.347,return,0.7066,,70.703125,,,,,,FBP-RB-81.png,0.4,1.2,38,0.25,,,,,,,,,,,,,,,,,,0,10,10,37,1,,,,,,,,,,,,,,,,,,,,,,,
,,,,,SPR24_099,19,female,2024-04-26_10h06.44.853,jersey_experiment_5_v0,2023.2.2,Win32,84.74576271,,,,,,,,,,,,,,,,845.3472,846.6461,846.6461,848.41,return,0.8228,,77.60416667,,,,,,FBP-PT-71.png,0.45,1.2,50,0.5,,,,,,,,,,,,,,,,,,0,11,11,49,1,,,,,,,,,,,,,,,,,,,,,,,
,,,,,SPR24_099,19,female,2024-04-26_10h06.44.853,jersey_experiment_5_v0,2023.2.2,Win32,84.74576271,,,,,,,,,,,,,,,,848.4102,849.7047,849.7047,851.9709,return,0.6954,,58.46354167,,,,,,FBP-YG-71.png,0.37,1.2,17,0.5,,,,,,,,,,,,,,,,,,0,12,12,16,1,,,,,,,,,,,,,,,,,,,,,,,
,,,,,SPR24_099,19,female,2024-04-26_10h06.44.853,jersey_experiment_5_v0,2023.2.2,Win32,84.74576271,,,,,,,,,,,,,,,,851.9712,853.018,853.018,855.0533,return,0.6741,,79.6875,,,,,,FBP-RB-91.png,0.43,1.2,44,0.25,,,,,,,,,,,,,,,,,,0,13,13,43,1,,,,,,,,,,,,,,,,,,,,,,,
,,,,,SPR24_099,19,female,2024-04-26_10h06.44.853,jersey_experiment_5_v0,2023.2.2,Win32,84.74576271,,,,,,,,,,,,,,,,855.0535,856.3475,856.3475,857.6298,return,0.6961,,74.21875,,,,,,FBP-PT-81.png,0.45,1.2,55,0.5,,,,,,,,,,,,,,,,,,0,14,14,54,1,,,,,,,,,,,,,,,,,,,,,,,
,,,,,SPR24_099,19,female,2024-04-26_10h06.44.853,jersey_experiment_5_v0,2023.2.2,Win32,84.74576271,,,,,,,,,,,,,,,,857.63,858.9284,858.9284,860.43,return,0.638,,56.77083333,,,,,,FBP-PT-81.png,0.4,1.2,53,0.5,,,,,,,,,,,,,,,,,,0,15,15,52,1,,,,,,,,,,,,,,,,,,,,,,,
,,,,,SPR24_099,19,female,2024-04-26_10h06.44.853,jersey_experiment_5_v0,2023.2.2,Win32,84.74576271,,,,,,,,,,,,,,,,860.4301,861.4802,861.4803,863.1745,return,0.7162,,75.390625,,,,,,FBP-RB-81.png,0.45,1.2,40,0.25,,,,,,,,,,,,,,,,,,0,16,16,39,1,,,,,,,,,,,,,,,,,,,,,,,
,,,,,SPR24_099,19,female,2024-04-26_10h06.44.853,jersey_experiment_5_v0,2023.2.2,Win32,84.74576271,,,,,,,,,,,,,,,,863.1746,864.4771,864.4771,866.3831,return,1.131,,64.84375,,,,,,FBP-YG-71.png,0.4,1.2,18,0.5,,,,,,,,,,,,,,,,,,0,17,17,17,1,,,,,,,,,,,,,,,,,,,,,,,
,,,,,SPR24_099,19,female,2024-04-26_10h06.44.853,jersey_experiment_5_v0,2023.2.2,Win32,84.74576271,,,,,,,,,,,,,,,,866.3832,867.6818,867.6818,869.642,return,1.2761,,78.64583333,,,,,,FBP-YG-71.png,0.43,1.2,19,0.5,,,,,,,,,,,,,,,,,,0,18,18,18,1,,,,,,,,,,,,,,,,,,,,,,,
,,,,,SPR24_099,19,female,2024-04-26_10h06.44.853,jersey_experiment_5_v0,2023.2.2,Win32,84.74576271,,,,,,,,,,,,,,,,869.6421,870.6892,870.6893,872.4927,return,0.7875,,88.41145833,,,,,,FBP-OG-19.png,0.45,1.2,15,0.25,,,,,,,,,,,,,,,,,,0,19,19,14,1,,,,,,,,,,,,,,,,,,,,,,,
,,,,,SPR24_099,19,female,2024-04-26_10h06.44.853,jersey_experiment_5_v0,2023.2.2,Win32,84.74576271,,,,,,,,,,,,,,,,872.4928,873.7951,873.7952,875.175,return,0.8346,,89.0625,,,,,,FBP-YG-81.png,0.45,1.2,25,0.5,,,,,,,,,,,,,,,,,,0,20,20,24,1,,,,,,,,,,,,,,,,,,,,,,,
,,,,,SPR24_099,19,female,2024-04-26_10h06.44.853,jersey_experiment_5_v0,2023.2.2,Win32,84.74576271,,,,,,,,,,,,,,,,875.1751,876.2187,876.2187,877.8423,return,0.7766,,89.0625,,,,,,FBP-RB-91.png,0.45,1.2,45,0.25,,,,,,,,,,,,,,,,,,0,21,21,44,1,,,,,,,,,,,,,,,,,,,,,,,
,,,,,SPR24_099,19,female,2024-04-26_10h06.44.853,jersey_experiment_5_v0,2023.2.2,Win32,84.74576271,,,,,,,,,,,,,,,,877.8424,879.1407,879.1407,881.0542,return,0.919,,51.82291667,,,,,,FBP-YG-81.png,0.37,1.2,22,0.5,,,,,,,,,,,,,,,,,,0,22,22,21,1,,,,,,,,,,,,,,,,,,,,,,,
,,,,,SPR24_099,19,female,2024-04-26_10h06.44.853,jersey_experiment_5_v0,2023.2.2,Win32,84.74576271,,,,,,,,,,,,,,,,881.0545,882.3517,882.3517,884.5367,return,1.136,,60.67708333,,,,,,FBP-PT-81.png,0.43,1.2,54,0.5,,,,,,,,,,,,,,,,,,0,23,23,53,1,,,,,,,,,,,,,,,,,,,,,,,
,,,,,SPR24_099,19,female,2024-04-26_10h06.44.853,jersey_experiment_5_v0,2023.2.2,Win32,84.74576271,,,,,,,,,,,,,,,,884.537,885.5837,885.5839,893.5135,return,6.7946,,24.47916667,,,,,,FBP-OG-19.png,0.35,1.2,11,0.25,,,,,,,,,,,,,,,,,,0,24,24,10,1,,,,,,,,,,,,,,,,,,,,,,,
,,,,,SPR24_099,19,female,2024-04-26_10h06.44.853,jersey_experiment_5_v0,2023.2.2,Win32,84.74576271,,,,,,,,,,,,,,,,893.5176,894.813,894.813,896.5606,return,0.7539,,35.02604167,,,,,,FBP-PT-71.png,0.35,1.2,46,0.5,,,,,,,,,,,,,,,,,,0,25,25,45,1,,,,,,,,,,,,,,,,,,,,,,,
,,,,,SPR24_099,19,female,2024-04-26_10h06.44.853,jersey_experiment_5_v0,2023.2.2,Win32,84.74576271,,,,,,,,,,,,,,,,896.5609,897.8582,897.8582,900.749,return,2.0156,,46.875,,,,,,FBP-PT-71.png,0.4,1.2,48,0.5,,,,,,,,,,,,,,,,,,0,26,26,47,1,,,,,,,,,,,,,,,,,,,,,,,
,,,,,SPR24_099,19,female,2024-04-26_10h06.44.853,jersey_experiment_5_v0,2023.2.2,Win32,84.74576271,,,,,,,,,,,,,,,,900.7492,901.796,901.796,903.5891,return,0.9549,,48.69791667,,,,,,FBP-OG-17.png,0.43,1.2,4,0.25,,,,,,,,,,,,,,,,,,0,27,27,3,1,,,,,,,,,,,,,,,,,,,,,,,
,,,,,SPR24_099,19,female,2024-04-26_10h06.44.853,jersey_experiment_5_v0,2023.2.2,Win32,84.74576271,,,,,,,,,,,,,,,,903.5893,904.6315,904.6316,906.2669,return,0.7349,,47.265625,,,,,,FBP-RB-91.png,0.37,1.2,42,0.25,,,,,,,,,,,,,,,,,,0,28,28,41,1,,,,,,,,,,,,,,,,,,,,,,,
,,,,,SPR24_099,19,female,2024-04-26_10h06.44.853,jersey_experiment_5_v0,2023.2.2,Win32,84.74576271,,,,,,,,,,,,,,,,906.267,907.314,907.314,909.7258,return,1.2263,,74.08854167,,,,,,FBP-RB-71.png,0.43,1.2,34,0.25,,,,,,,,,,,,,,,,,,0,29,29,33,1,,,,,,,,,,,,,,,,,,,,,,,
,,,,,SPR24_099,19,female,2024-04-26_10h06.44.853,jersey_experiment_5_v0,2023.2.2,Win32,84.74576271,,,,,,,,,,,,,,,,909.726,911.0239,911.0239,912.3652,return,0.6352,,42.96875,,,,,,FBP-PT-81.png,0.35,1.2,51,0.5,,,,,,,,,,,,,,,,,,0,30,30,50,1,,,,,,,,,,,,,,,,,,,,,,,
,,,,,SPR24_099,19,female,2024-04-26_10h06.44.853,jersey_experiment_5_v0,2023.2.2,Win32,84.74576271,,,,,,,,,,,,,,,,912.3655,913.6673,913.6673,915.4482,return,0.7664,,68.88020833,,,,,,FBP-YG-91.png,0.4,1.2,28,0.5,,,,,,,,,,,,,,,,,,0,31,31,27,1,,,,,,,,,,,,,,,,,,,,,,,
,,,,,SPR24_099,19,female,2024-04-26_10h06.44.853,jersey_experiment_5_v0,2023.2.2,Win32,84.74576271,,,,,,,,,,,,,,,,915.4484,916.7428,916.7428,918.2248,return,0.7189,,47.91666667,,,,,,FBP-PT-71.png,0.37,1.2,47,0.5,,,,,,,,,,,,,,,,,,0,32,32,46,1,,,,,,,,,,,,,,,,,,,,,,,
,,,,,SPR24_099,19,female,2024-04-26_10h06.44.853,jersey_experiment_5_v0,2023.2.2,Win32,84.74576271,,,,,,,,,,,,,,,,918.2249,919.5306,919.5306,921.1763,return,0.8576,,81.25,,,,,,FBP-YG-91.png,0.45,1.2,30,0.5,,,,,,,,,,,,,,,,,,0,33,33,29,1,,,,,,,,,,,,,,,,,,,,,,,
,,,,,SPR24_099,19,female,2024-04-26_10h06.44.853,jersey_experiment_5_v0,2023.2.2,Win32,84.74576271,,,,,,,,,,,,,,,,921.1764,922.2245,922.2245,925.0558,return,0.7067,,81.25,,,,,,FBP-OG-18.png,0.45,1.2,10,0.25,,,,,,,,,,,,,,,,,,0,34,34,9,1,,,,,,,,,,,,,,,,,,,,,,,
,,,,,SPR24_099,19,female,2024-04-26_10h06.44.853,jersey_experiment_5_v0,2023.2.2,Win32,84.74576271,,,,,,,,,,,,,,,,925.056,926.1029,926.1029,927.5661,return,0.6589,,69.53125,,,,,,FBP-OG-17.png,0.4,1.2,3,0.25,,,,,,,,,,,,,,,,,,0,35,35,2,1,,,,,,,,,,,,,,,,,,,,,,,
,,,,,SPR24_099,19,female,2024-04-26_10h06.44.853,jersey_experiment_5_v0,2023.2.2,Win32,84.74576271,,,,,,,,,,,,,,,,927.5664,928.6089,928.6089,930.2723,return,0.5651,,38.80208333,,,,,,FBP-RB-91.png,0.35,1.2,41,0.25,,,,,,,,,,,,,,,,,,0,36,36,40,1,,,,,,,,,,,,,,,,,,,,,,,
,,,,,SPR24_099,19,female,2024-04-26_10h06.44.853,jersey_experiment_5_v0,2023.2.2,Win32,84.74576271,,,,,,,,,,,,,,,,930.2724,931.315,931.315,932.9312,return,0.6355,,22.39583333,,,,,,FBP-OG-18.png,0.35,1.2,6,0.25,,,,,,,,,,,,,,,,,,0,37,37,5,1,,,,,,,,,,,,,,,,,,,,,,,
,,,,,SPR24_099,19,female,2024-04-26_10h06.44.853,jersey_experiment_5_v0,2023.2.2,Win32,84.74576271,,,,,,,,,,,,,,,,932.9313,933.9737,933.9738,935.4325,return,0.6423,,42.96875,,,,,,FBP-OG-19.png,0.4,1.2,13,0.25,,,,,,,,,,,,,,,,,,0,38,38,12,1,,,,,,,,,,,,,,,,,,,,,,,
,,,,,SPR24_099,19,female,2024-04-26_10h06.44.853,jersey_experiment_5_v0,2023.2.2,Win32,84.74576271,,,,,,,,,,,,,,,,935.4328,936.7267,936.7267,938.2727,return,0.6828,,73.828125,,,,,,FBP-PT-71.png,0.43,1.2,49,0.5,,,,,,,,,,,,,,,,,,0,39,39,48,1,,,,,,,,,,,,,,,,,,,,,,,
,,,,,SPR24_099,19,female,2024-04-26_10h06.44.853,jersey_experiment_5_v0,2023.2.2,Win32,84.74576271,,,,,,,,,,,,,,,,938.2729,939.5665,939.5665,942.0093,return,1.0291,,54.16666667,,,,,,FBP-YG-91.png,0.37,1.2,27,0.5,,,,,,,,,,,,,,,,,,0,40,40,26,1,,,,,,,,,,,,,,,,,,,,,,,
,,,,,SPR24_099,19,female,2024-04-26_10h06.44.853,jersey_experiment_5_v0,2023.2.2,Win32,84.74576271,,,,,,,,,,,,,,,,942.0095,943.3079,943.3079,944.5741,return,0.6949,,82.421875,,,,,,FBP-YG-81.png,0.43,1.2,24,0.5,,,,,,,,,,,,,,,,,,0,41,41,23,1,,,,,,,,,,,,,,,,,,,,,,,
,,,,,SPR24_099,19,female,2024-04-26_10h06.44.853,jersey_experiment_5_v0,2023.2.2,Win32,84.74576271,,,,,,,,,,,,,,,,944.5743,945.6211,945.6211,947.2447,return,0.6144,,70.05208333,,,,,,FBP-OG-19.png,0.37,1.2,12,0.25,,,,,,,,,,,,,,,,,,0,42,42,11,1,,,,,,,,,,,,,,,,,,,,,,,
,,,,,SPR24_099,19,female,2024-04-26_10h06.44.853,jersey_experiment_5_v0,2023.2.2,Win32,84.74576271,,,,,,,,,,,,,,,,947.2448,948.5389,948.539,950.0566,return,0.6302,,57.16145833,,,,,,FBP-PT-81.png,0.37,1.2,52,0.5,,,,,,,,,,,,,,,,,,0,43,43,51,1,,,,,,,,,,,,,,,,,,,,,,,
,,,,,SPR24_099,19,female,2024-04-26_10h06.44.853,jersey_experiment_5_v0,2023.2.2,Win32,84.74576271,,,,,,,,,,,,,,,,950.0568,951.107,951.107,953.6619,return,1.4962,,67.70833333,,,,,,FBP-RB-71.png,0.4,1.2,33,0.25,,,,,,,,,,,,,,,,,,0,44,44,32,1,,,,,,,,,,,,,,,,,,,,,,,
,,,,,SPR24_099,19,female,2024-04-26_10h06.44.853,jersey_experiment_5_v0,2023.2.2,Win32,84.74576271,,,,,,,,,,,,,,,,953.662,954.9627,954.9627,956.2269,return,0.6128,,81.77083333,,,,,,FBP-PT-91.png,0.45,1.2,60,0.5,,,,,,,,,,,,,,,,,,0,45,45,59,1,,,,,,,,,,,,,,,,,,,,,,,
,,,,,SPR24_099,19,female,2024-04-26_10h06.44.853,jersey_experiment_5_v0,2023.2.2,Win32,84.74576271,,,,,,,,,,,,,,,,956.2271,957.5276,957.5276,959.6015,return,0.6828,,48.17708333,,,,,,FBP-YG-81.png,0.35,1.2,21,0.5,,,,,,,,,,,,,,,,,,0,46,46,20,1,,,,,,,,,,,,,,,,,,,,,,,
,,,,,SPR24_099,19,female,2024-04-26_10h06.44.853,jersey_experiment_5_v0,2023.2.2,Win32,84.74576271,,,,,,,,,,,,,,,,959.6017,960.6496,960.6496,963.85,return,1.4254,,49.86979167,,,,,,FBP-OG-18.png,0.37,1.2,7,0.25,,,,,,,,,,,,,,,,,,0,47,47,6,1,,,,,,,,,,,,,,,,,,,,,,,
,,,,,SPR24_099,19,female,2024-04-26_10h06.44.853,jersey_experiment_5_v0,2023.2.2,Win32,84.74576271,,,,,,,,,,,,,,,,963.8502,965.144,965.144,966.6102,return,0.6961,,74.21875,,,,,,FBP-PT-91.png,0.43,1.2,59,0.5,,,,,,,,,,,,,,,,,,0,48,48,58,1,,,,,,,,,,,,,,,,,,,,,,,
,,,,,SPR24_099,19,female,2024-04-26_10h06.44.853,jersey_experiment_5_v0,2023.2.2,Win32,84.74576271,,,,,,,,,,,,,,,,966.6104,967.6573,967.6573,968.9668,return,0.6829,,79.81770833,,,,,,FBP-OG-19.png,0.43,1.2,14,0.25,,,,,,,,,,,,,,,,,,0,49,49,13,1,,,,,,,,,,,,,,,,,,,,,,,
,,,,,SPR24_099,19,female,2024-04-26_10h06.44.853,jersey_experiment_5_v0,2023.2.2,Win32,84.74576271,,,,,,,,,,,,,,,,968.967,970.0102,970.0103,971.6389,return,0.7535,,57.03125,,,,,,FBP-RB-71.png,0.35,1.2,31,0.25,,,,,,,,,,,,,,,,,,0,50,50,30,1,,,,,,,,,,,,,,,,,,,,,,,
,,,,,SPR24_099,19,female,2024-04-26_10h06.44.853,jersey_experiment_5_v0,2023.2.2,Win32,84.74576271,,,,,,,,,,,,,,,,971.639,972.6811,972.6811,974.9869,return,0.9349,,76.43229167,,,,,,FBP-RB-71.png,0.45,1.2,35,0.25,,,,,,,,,,,,,,,,,,0,51,51,34,1,,,,,,,,,,,,,,,,,,,,,,,
,,,,,SPR24_099,19,female,2024-04-26_10h06.44.853,jersey_experiment_5_v0,2023.2.2,Win32,84.74576271,,,,,,,,,,,,,,,,974.9872,976.034,976.0341,977.2459,return,0.6731,,82.94270833,,,,,,FBP-RB-81.png,0.43,1.2,39,0.25,,,,,,,,,,,,,,,,,,0,52,52,38,1,,,,,,,,,,,,,,,,,,,,,,,
,,,,,SPR24_099,19,female,2024-04-26_10h06.44.853,jersey_experiment_5_v0,2023.2.2,Win32,84.74576271,,,,,,,,,,,,,,,,977.246,978.5401,978.5401,980.8863,return,1.7786,,79.42708333,,,,,,FBP-YG-91.png,0.43,1.2,29,0.5,,,,,,,,,,,,,,,,,,0,53,53,28,1,,,,,,,,,,,,,,,,,,,,,,,
,,,,,SPR24_099,19,female,2024-04-26_10h06.44.853,jersey_experiment_5_v0,2023.2.2,Win32,84.74576271,,,,,,,,,,,,,,,,980.8864,982.1798,982.1798,983.5167,return,0.6861,,45.83333333,,,,,,FBP-PT-91.png,0.35,1.2,56,0.5,,,,,,,,,,,,,,,,,,0,54,54,55,1,,,,,,,,,,,,,,,,,,,,,,,
,,,,,SPR24_099,19,female,2024-04-26_10h06.44.853,jersey_experiment_5_v0,2023.2.2,Win32,84.74576271,,,,,,,,,,,,,,,,983.5168,984.5638,984.5638,987.8345,return,2.475,,51.69270833,,,,,,FBP-OG-18.png,0.4,1.2,8,0.25,,,,,,,,,,,,,,,,,,0,55,55,7,1,,,,,,,,,,,,,,,,,,,,,,,
,,,,,SPR24_099,19,female,2024-04-26_10h06.44.853,jersey_experiment_5_v0,2023.2.2,Win32,84.74576271,,,,,,,,,,,,,,,,987.8348,989.1287,989.1287,991.0228,return,0.5769,,49.47916667,,,,,,FBP-YG-91.png,0.35,1.2,26,0.5,,,,,,,,,,,,,,,,,,0,56,56,25,1,,,,,,,,,,,,,,,,,,,,,,,
,,,,,SPR24_099,19,female,2024-04-26_10h06.44.853,jersey_experiment_5_v0,2023.2.2,Win32,84.74576271,,,,,,,,,,,,,,,,991.023,992.0734,992.0734,993.6934,return,0.6262,,75.13020833,,,,,,FBP-OG-17.png,0.45,1.2,5,0.25,,,,,,,,,,,,,,,,,,0,57,57,4,1,,,,,,,,,,,,,,,,,,,,,,,
,,,,,SPR24_099,19,female,2024-04-26_10h06.44.853,jersey_experiment_5_v0,2023.2.2,Win32,84.74576271,,,,,,,,,,,,,,,,993.6937,994.7406,994.7406,996.2747,return,0.6488,,61.45833333,,,,,,FBP-RB-81.png,0.35,1.2,36,0.25,,,,,,,,,,,,,,,,,,0,58,58,35,1,,,,,,,,,,,,,,,,,,,,,,,
,,,,,SPR24_099,19,female,2024-04-26_10h06.44.853,jersey_experiment_5_v0,2023.2.2,Win32,84.74576271,,,,,,,,,,,,,,,,996.2748,997.3171,997.3171,998.7088,return,0.6931,,64.84375,,,,,,FBP-RB-71.png,0.37,1.2,32,0.25,,,,,,,,,,,,,,,,,,0,59,59,31,1,,,,,,,,,,,,,,,,,,,,,,,
,,,,,SPR24_099,19,female,2024-04-26_10h06.44.853,jersey_experiment_5_v0,2023.2.2,Win32,84.74576271,,,,,,,,,,,,,,,,,,,,,,,,,,,,,,,,,,,,,,,,,,,,,,,,,,,,,,,,998.709,1003.8045,return,5.0825,,,,,,,,,,,,,,,,,,,
,,,,,SPR24_099,19,female,2024-04-26_10h06.44.853,jersey_experiment_5_v0,2023.2.2,Win32,84.74576271,,,,,,,,,,,,,,,,,,,,,,,,,,,,,,,,,,,,,,,,,,,,,,,,,,,,,,,,,,,,,1003.8045,1010.6706,1,3.9823,return,2.8587,,,,,,,,,,,,
,,,,,SPR24_099,19,female,2024-04-26_10h06.44.853,jersey_experiment_5_v0,2023.2.2,Win32,84.74576271,,,,,,,,,,,,,,,,,,,,,,,,,,,,,,,,,,,,,,,,,,,,,,,,,,,,,,,,,,,,,,,,,,,,1010.6707,1058.7767,Its about perception and I think the color of the player's skin is something that is being tested.,right,43.4609,,,,,,
,,,,,SPR24_099,19,female,2024-04-26_10h06.44.853,jersey_experiment_5_v0,2023.2.2,Win32,84.74576271,,,,,,,,,,,,,,,,,,,,,,,,,,,,,,,,,,,,,,,,,,,,,,,,,,,,,,,,,,,,,,,,,,,,,,,,,,1058.7767,1062.8255,return,4.0416,