requirements.started,requirements.stopped,key_resp_3.keys,key_resp_3.rt,key_resp_3.duration,Subject ID,Age,Gender,date,expName,psychopyVersion,OS,frameRate,instructions1.started,instructions1.stopped,key_resp.keys,key_resp.rt,key_resp.duration,example.started,example.stopped,enter_2.keys,enter_2.rt,enter_2.duration,instructions2.started,instructions2.stopped,enter_3.keys,enter_3.rt,enter_3.duration,image.started,image.stopped,slider_2.started,slider_2.stopped,next.keys,next.rt,next.duration,slider.response,trial_block_1.thisRepN,trial_block_1.thisTrialN,trial_block_1.thisN,trial_block_1.thisIndex,trial_block_1.ran,Path,Width,Height,Index,Duration,trial_block_2.thisRepN,trial_block_2.thisTrialN,trial_block_2.thisN,trial_block_2.thisIndex,trial_block_2.ran,rest_break.started,rest_break.stopped,end_break.started,end_break.stopped,key_resp_5.keys,key_resp_5.rt,key_resp_5.duration,trial_block_3.thisRepN,trial_block_3.thisTrialN,trial_block_3.thisN,trial_block_3.thisIndex,trial_block_3.ran,trial_block_4.thisRepN,trial_block_4.thisTrialN,trial_block_4.thisN,trial_block_4.thisIndex,trial_block_4.ran,questions_intro.started,questions_intro.stopped,enter_12.keys,enter_12.rt,enter_12.duration,question2.started,question2.stopped,question_doingbest.response,question_doingbest.rt,enter_15.keys,enter_15.rt,enter_15.duration,pattern.started,pattern.stopped,pattern_2.text,enter_17.keys,enter_17.rt,enter_17.duration,thankyou.started,thankyou.stopped,enter_14.keys,enter_14.rt,enter_14.duration
0.0002,14.1238,return,14.1067,,SPR24_084,19,male,2024-04-24_09h01.02.681,jersey_experiment_5_v0,2023.2.2,Win32,84.03361345,,,,,,,,,,,,,,,,,,,,,,,,,,,,,,,,,,,,,,,,,,,,,,,,,,,,,,,,,,,,,,,,,,,,,,,,,,,,,,
,,,,,SPR24_084,19,male,2024-04-24_09h01.02.681,jersey_experiment_5_v0,2023.2.2,Win32,84.03361345,14.124,27.736,return,13.5932,,,,,,,,,,,,,,,,,,,,,,,,,,,,,,,,,,,,,,,,,,,,,,,,,,,,,,,,,,,,,,,,,,,,,,,,,,
,,,,,SPR24_084,19,male,2024-04-24_09h01.02.681,jersey_experiment_5_v0,2023.2.2,Win32,84.03361345,,,,,,27.736,37.007,return,9.2372,,,,,,,,,,,,,,,,,,,,,,,,,,,,,,,,,,,,,,,,,,,,,,,,,,,,,,,,,,,,,,,,,,,,,
,,,,,SPR24_084,19,male,2024-04-24_09h01.02.681,jersey_experiment_5_v0,2023.2.2,Win32,84.03361345,,,,,,,,,,,37.0071,57.8193,return,20.8005,,,,,,,,,,,,,,,,,,,,,,,,,,,,,,,,,,,,,,,,,,,,,,,,,,,,,,,,,,,,,,,,
,,,,,SPR24_084,19,male,2024-04-24_09h01.02.681,jersey_experiment_5_v0,2023.2.2,Win32,84.03361345,,,,,,,,,,,,,,,,57.8264,58.878,58.8781,67.9609,return,4.5687,,74.34895833,0,0,0,25,1,FBP-YG-19.png,0.35,1.2,26,0.25,,,,,,,,,,,,,,,,,,,,,,,,,,,,,,,,,,,,,,,,,,,,,
,,,,,SPR24_084,19,male,2024-04-24_09h01.02.681,jersey_experiment_5_v0,2023.2.2,Win32,84.03361345,,,,,,,,,,,,,,,,67.9654,69.0076,69.0076,73.7843,return,1.6019,,99.609375,0,1,1,54,1,FBP-PT-18.png,0.45,1.2,55,0.25,,,,,,,,,,,,,,,,,,,,,,,,,,,,,,,,,,,,,,,,,,,,,
,,,,,SPR24_084,19,male,2024-04-24_09h01.02.681,jersey_experiment_5_v0,2023.2.2,Win32,84.03361345,,,,,,,,,,,,,,,,73.7846,75.0785,75.0786,79.1728,return,0.8902,,99.609375,0,2,2,39,1,FBP-RB-18.png,0.45,1.2,40,0.5,,,,,,,,,,,,,,,,,,,,,,,,,,,,,,,,,,,,,,,,,,,,,
,,,,,SPR24_084,19,male,2024-04-24_09h01.02.681,jersey_experiment_5_v0,2023.2.2,Win32,84.03361345,,,,,,,,,,,,,,,,79.173,80.4668,80.4668,83.4787,return,1.3444,,74.86979167,0,3,3,12,1,FBP-OG-91.png,0.4,1.2,13,0.5,,,,,,,,,,,,,,,,,,,,,,,,,,,,,,,,,,,,,,,,,,,,,
,,,,,SPR24_084,19,male,2024-04-24_09h01.02.681,jersey_experiment_5_v0,2023.2.2,Win32,84.03361345,,,,,,,,,,,,,,,,83.479,84.7728,84.7728,89.5026,return,1.1675,,50.390625,0,4,4,0,1,FBP-OG-71.png,0.35,1.2,1,0.5,,,,,,,,,,,,,,,,,,,,,,,,,,,,,,,,,,,,,,,,,,,,,
,,,,,SPR24_084,19,male,2024-04-24_09h01.02.681,jersey_experiment_5_v0,2023.2.2,Win32,84.03361345,,,,,,,,,,,,,,,,89.5028,90.5496,90.5496,94.8557,return,0.9082,,99.609375,0,5,5,24,1,FBP-YG-18.png,0.45,1.2,25,0.25,,,,,,,,,,,,,,,,,,,,,,,,,,,,,,,,,,,,,,,,,,,,,
,,,,,SPR24_084,19,male,2024-04-24_09h01.02.681,jersey_experiment_5_v0,2023.2.2,Win32,84.03361345,,,,,,,,,,,,,,,,94.856,96.1498,96.1498,98.3617,return,1.1324,,99.609375,0,6,6,38,1,FBP-RB-18.png,0.43,1.2,39,0.5,,,,,,,,,,,,,,,,,,,,,,,,,,,,,,,,,,,,,,,,,,,,,
,,,,,SPR24_084,19,male,2024-04-24_09h01.02.681,jersey_experiment_5_v0,2023.2.2,Win32,84.03361345,,,,,,,,,,,,,,,,98.3619,99.4087,99.4087,102.0206,return,0.9844,,75,0,7,7,17,1,FBP-YG-17.png,0.4,1.2,18,0.25,,,,,,,,,,,,,,,,,,,,,,,,,,,,,,,,,,,,,,,,,,,,,
,,,,,SPR24_084,19,male,2024-04-24_09h01.02.681,jersey_experiment_5_v0,2023.2.2,Win32,84.03361345,,,,,,,,,,,,,,,,102.0208,103.3147,103.3148,111.0328,return,5.7572,,25.26041667,0,8,8,30,1,FBP-RB-17.png,0.35,1.2,31,0.5,,,,,,,,,,,,,,,,,,,,,,,,,,,,,,,,,,,,,,,,,,,,,
,,,,,SPR24_084,19,male,2024-04-24_09h01.02.681,jersey_experiment_5_v0,2023.2.2,Win32,84.03361345,,,,,,,,,,,,,,,,111.0372,112.0797,112.0798,115.7387,return,1.6854,,96.875,0,9,9,23,1,FBP-YG-18.png,0.43,1.2,24,0.25,,,,,,,,,,,,,,,,,,,,,,,,,,,,,,,,,,,,,,,,,,,,,
,,,,,SPR24_084,19,male,2024-04-24_09h01.02.681,jersey_experiment_5_v0,2023.2.2,Win32,84.03361345,,,,,,,,,,,,,,,,115.739,116.7857,116.7857,119.8917,return,0.8185,,24.73958333,0,10,10,45,1,FBP-PT-17.png,0.35,1.2,46,0.25,,,,,,,,,,,,,,,,,,,,,,,,,,,,,,,,,,,,,,,,,,,,,
,,,,,SPR24_084,19,male,2024-04-24_09h01.02.681,jersey_experiment_5_v0,2023.2.2,Win32,84.03361345,,,,,,,,,,,,,,,,119.8918,120.9388,120.9389,124.0214,return,0.9454,,83.33333333,0,11,11,27,1,FBP-YG-19.png,0.4,1.2,28,0.25,,,,,,,,,,,,,,,,,,,,,,,,,,,,,,,,,,,,,,,,,,,,,
,,,,,SPR24_084,19,male,2024-04-24_09h01.02.681,jersey_experiment_5_v0,2023.2.2,Win32,84.03361345,,,,,,,,,,,,,,,,124.0216,125.0686,125.0686,127.4215,return,0.8471,,96.74479167,0,12,12,47,1,FBP-PT-17.png,0.4,1.2,48,0.25,,,,,,,,,,,,,,,,,,,,,,,,,,,,,,,,,,,,,,,,,,,,,
,,,,,SPR24_084,19,male,2024-04-24_09h01.02.681,jersey_experiment_5_v0,2023.2.2,Win32,84.03361345,,,,,,,,,,,,,,,,127.4217,128.4687,128.4687,131.5746,return,0.8408,,99.86979167,0,13,13,28,1,FBP-YG-19.png,0.43,1.2,29,0.25,,,,,,,,,,,,,,,,,,,,,,,,,,,,,,,,,,,,,,,,,,,,,
,,,,,SPR24_084,19,male,2024-04-24_09h01.02.681,jersey_experiment_5_v0,2023.2.2,Win32,84.03361345,,,,,,,,,,,,,,,,131.5749,132.8688,132.8688,136.6336,return,0.6972,,99.609375,0,14,14,9,1,FBP-OG-81.png,0.45,1.2,10,0.5,,,,,,,,,,,,,,,,,,,,,,,,,,,,,,,,,,,,,,,,,,,,,
,,,,,SPR24_084,19,male,2024-04-24_09h01.02.681,jersey_experiment_5_v0,2023.2.2,Win32,84.03361345,,,,,,,,,,,,,,,,136.6338,137.9278,137.9278,140.6809,return,0.9568,,90.10416667,0,15,15,8,1,FBP-OG-81.png,0.43,1.2,9,0.5,,,,,,,,,,,,,,,,,,,,,,,,,,,,,,,,,,,,,,,,,,,,,
,,,,,SPR24_084,19,male,2024-04-24_09h01.02.681,jersey_experiment_5_v0,2023.2.2,Win32,84.03361345,,,,,,,,,,,,,,,,140.6811,141.9749,141.9749,144.4103,return,0.7316,,25.13020833,0,16,16,36,1,FBP-RB-18.png,0.37,1.2,37,0.5,,,,,,,,,,,,,,,,,,,,,,,,,,,,,,,,,,,,,,,,,,,,,
,,,,,SPR24_084,19,male,2024-04-24_09h01.02.681,jersey_experiment_5_v0,2023.2.2,Win32,84.03361345,,,,,,,,,,,,,,,,144.4105,145.4574,145.4574,148.9046,return,0.9448,,18.48958333,0,17,17,55,1,FBP-PT-19.png,0.35,1.2,56,0.25,,,,,,,,,,,,,,,,,,,,,,,,,,,,,,,,,,,,,,,,,,,,,
,,,,,SPR24_084,19,male,2024-04-24_09h01.02.681,jersey_experiment_5_v0,2023.2.2,Win32,84.03361345,,,,,,,,,,,,,,,,148.9049,149.9518,149.9518,152.8576,return,0.7557,,40.234375,0,18,18,46,1,FBP-PT-17.png,0.37,1.2,47,0.25,,,,,,,,,,,,,,,,,,,,,,,,,,,,,,,,,,,,,,,,,,,,,
,,,,,SPR24_084,19,male,2024-04-24_09h01.02.681,jersey_experiment_5_v0,2023.2.2,Win32,84.03361345,,,,,,,,,,,,,,,,152.8578,154.1517,154.1518,158.3402,return,1.4671,,90.36458333,0,19,19,33,1,FBP-RB-17.png,0.43,1.2,34,0.5,,,,,,,,,,,,,,,,,,,,,,,,,,,,,,,,,,,,,,,,,,,,,
,,,,,SPR24_084,19,male,2024-04-24_09h01.02.681,jersey_experiment_5_v0,2023.2.2,Win32,84.03361345,,,,,,,,,,,,,,,,158.3404,159.6342,159.6342,162.6815,return,0.6501,,83.203125,0,20,20,41,1,FBP-RB-19.png,0.37,1.2,42,0.5,,,,,,,,,,,,,,,,,,,,,,,,,,,,,,,,,,,,,,,,,,,,,
,,,,,SPR24_084,19,male,2024-04-24_09h01.02.681,jersey_experiment_5_v0,2023.2.2,Win32,84.03361345,,,,,,,,,,,,,,,,162.6817,163.9758,163.9758,166.5052,return,0.8594,,25.13020833,0,21,21,11,1,FBP-OG-91.png,0.37,1.2,12,0.5,,,,,,,,,,,,,,,,,,,,,,,,,,,,,,,,,,,,,,,,,,,,,
,,,,,SPR24_084,19,male,2024-04-24_09h01.02.681,jersey_experiment_5_v0,2023.2.2,Win32,84.03361345,,,,,,,,,,,,,,,,166.5054,167.7993,167.7994,173.0349,return,0.9324,,32.16145833,0,22,22,6,1,FBP-OG-81.png,0.37,1.2,7,0.5,,,,,,,,,,,,,,,,,,,,,,,,,,,,,,,,,,,,,,,,,,,,,
,,,,,SPR24_084,19,male,2024-04-24_09h01.02.681,jersey_experiment_5_v0,2023.2.2,Win32,84.03361345,,,,,,,,,,,,,,,,173.0351,174.0817,174.0819,177.1174,return,0.8095,,96.22395833,0,23,23,22,1,FBP-YG-18.png,0.4,1.2,23,0.25,,,,,,,,,,,,,,,,,,,,,,,,,,,,,,,,,,,,,,,,,,,,,
,,,,,SPR24_084,19,male,2024-04-24_09h01.02.681,jersey_experiment_5_v0,2023.2.2,Win32,84.03361345,,,,,,,,,,,,,,,,177.1176,178.4114,178.4114,183.6585,return,1.0605,,28.515625,0,24,24,1,1,FBP-OG-71.png,0.37,1.2,2,0.5,,,,,,,,,,,,,,,,,,,,,,,,,,,,,,,,,,,,,,,,,,,,,
,,,,,SPR24_084,19,male,2024-04-24_09h01.02.681,jersey_experiment_5_v0,2023.2.2,Win32,84.03361345,,,,,,,,,,,,,,,,183.6588,184.7058,184.7058,188.9648,return,2.0662,,99.86979167,0,25,25,53,1,FBP-PT-18.png,0.43,1.2,54,0.25,,,,,,,,,,,,,,,,,,,,,,,,,,,,,,,,,,,,,,,,,,,,,
,,,,,SPR24_084,19,male,2024-04-24_09h01.02.681,jersey_experiment_5_v0,2023.2.2,Win32,84.03361345,,,,,,,,,,,,,,,,188.9649,190.2588,190.2588,192.9886,return,0.7669,,81.38020833,0,26,26,37,1,FBP-RB-18.png,0.4,1.2,38,0.5,,,,,,,,,,,,,,,,,,,,,,,,,,,,,,,,,,,,,,,,,,,,,
,,,,,SPR24_084,19,male,2024-04-24_09h01.02.681,jersey_experiment_5_v0,2023.2.2,Win32,84.03361345,,,,,,,,,,,,,,,,192.9888,194.0355,194.0355,197.9651,return,0.9649,,21.09375,0,27,27,50,1,FBP-PT-18.png,0.35,1.2,51,0.25,,,,,,,,,,,,,,,,,,,,,,,,,,,,,,,,,,,,,,,,,,,,,
,,,,,SPR24_084,19,male,2024-04-24_09h01.02.681,jersey_experiment_5_v0,2023.2.2,Win32,84.03361345,,,,,,,,,,,,,,,,197.9654,199.2593,199.2593,203.0004,return,1.6276,,68.359375,0,28,28,2,1,FBP-OG-71.png,0.4,1.2,3,0.5,,,,,,,,,,,,,,,,,,,,,,,,,,,,,,,,,,,,,,,,,,,,,
,,,,,SPR24_084,19,male,2024-04-24_09h01.02.681,jersey_experiment_5_v0,2023.2.2,Win32,84.03361345,,,,,,,,,,,,,,,,203.0007,204.2946,204.2947,207.2361,return,0.667,,99.73958333,0,29,29,44,1,FBP-RB-19.png,0.45,1.2,45,0.5,,,,,,,,,,,,,,,,,,,,,,,,,,,,,,,,,,,,,,,,,,,,,
,,,,,SPR24_084,19,male,2024-04-24_09h01.02.681,jersey_experiment_5_v0,2023.2.2,Win32,84.03361345,,,,,,,,,,,,,,,,207.2363,208.5301,208.5301,212.1656,return,1.3361,,30.078125,0,30,30,5,1,FBP-OG-81.png,0.35,1.2,6,0.5,,,,,,,,,,,,,,,,,,,,,,,,,,,,,,,,,,,,,,,,,,,,,
,,,,,SPR24_084,19,male,2024-04-24_09h01.02.681,jersey_experiment_5_v0,2023.2.2,Win32,84.03361345,,,,,,,,,,,,,,,,212.1659,213.2126,213.2127,215.7893,return,0.8948,,99.47916667,0,31,31,48,1,FBP-PT-17.png,0.43,1.2,49,0.25,,,,,,,,,,,,,,,,,,,,,,,,,,,,,,,,,,,,,,,,,,,,,
,,,,,SPR24_084,19,male,2024-04-24_09h01.02.681,jersey_experiment_5_v0,2023.2.2,Win32,84.03361345,,,,,,,,,,,,,,,,215.7895,216.8363,216.8363,219.9658,return,0.9176,,99.73958333,0,32,32,58,1,FBP-PT-19.png,0.43,1.2,59,0.25,,,,,,,,,,,,,,,,,,,,,,,,,,,,,,,,,,,,,,,,,,,,,
,,,,,SPR24_084,19,male,2024-04-24_09h01.02.681,jersey_experiment_5_v0,2023.2.2,Win32,84.03361345,,,,,,,,,,,,,,,,219.966,221.0128,221.0129,226.1544,return,1.0703,,34.765625,0,33,33,16,1,FBP-YG-17.png,0.37,1.2,17,0.25,,,,,,,,,,,,,,,,,,,,,,,,,,,,,,,,,,,,,,,,,,,,,
,,,,,SPR24_084,19,male,2024-04-24_09h01.02.681,jersey_experiment_5_v0,2023.2.2,Win32,84.03361345,,,,,,,,,,,,,,,,226.1545,227.4484,227.4485,230.4722,return,0.2275,,70.18229167,0,34,34,3,1,FBP-OG-71.png,0.43,1.2,4,0.5,,,,,,,,,,,,,,,,,,,,,,,,,,,,,,,,,,,,,,,,,,,,,
,,,,,SPR24_084,19,male,2024-04-24_09h01.02.681,jersey_experiment_5_v0,2023.2.2,Win32,84.03361345,,,,,,,,,,,,,,,,230.4724,231.7663,231.7663,233.8488,return,0.2481,,72.13541667,0,35,35,7,1,FBP-OG-81.png,0.4,1.2,8,0.5,,,,,,,,,,,,,,,,,,,,,,,,,,,,,,,,,,,,,,,,,,,,,
,,,,,SPR24_084,19,male,2024-04-24_09h01.02.681,jersey_experiment_5_v0,2023.2.2,Win32,84.03361345,,,,,,,,,,,,,,,,233.849,234.8958,234.8958,236.7664,return,0.3393,,99.47916667,0,36,36,49,1,FBP-PT-17.png,0.45,1.2,50,0.25,,,,,,,,,,,,,,,,,,,,,,,,,,,,,,,,,,,,,,,,,,,,,
,,,,,SPR24_084,19,male,2024-04-24_09h01.02.681,jersey_experiment_5_v0,2023.2.2,Win32,84.03361345,,,,,,,,,,,,,,,,236.7667,238.0606,238.0607,240.7312,return,0.4619,,28.64583333,0,37,37,10,1,FBP-OG-91.png,0.35,1.2,11,0.5,,,,,,,,,,,,,,,,,,,,,,,,,,,,,,,,,,,,,,,,,,,,,
,,,,,SPR24_084,19,male,2024-04-24_09h01.02.681,jersey_experiment_5_v0,2023.2.2,Win32,84.03361345,,,,,,,,,,,,,,,,240.7315,241.7784,241.7784,243.4375,return,0.213,,16.14583333,0,38,38,15,1,FBP-YG-17.png,0.35,1.2,16,0.25,,,,,,,,,,,,,,,,,,,,,,,,,,,,,,,,,,,,,,,,,,,,,
,,,,,SPR24_084,19,male,2024-04-24_09h01.02.681,jersey_experiment_5_v0,2023.2.2,Win32,84.03361345,,,,,,,,,,,,,,,,243.4377,244.4843,244.4844,247.1904,return,0.6409,,99.21875,0,39,39,57,1,FBP-PT-19.png,0.4,1.2,58,0.25,,,,,,,,,,,,,,,,,,,,,,,,,,,,,,,,,,,,,,,,,,,,,
,,,,,SPR24_084,19,male,2024-04-24_09h01.02.681,jersey_experiment_5_v0,2023.2.2,Win32,84.03361345,,,,,,,,,,,,,,,,247.1905,248.2374,248.2375,250.4139,return,0.2211,,99.609375,0,40,40,29,1,FBP-YG-19.png,0.45,1.2,30,0.25,,,,,,,,,,,,,,,,,,,,,,,,,,,,,,,,,,,,,,,,,,,,,
,,,,,SPR24_084,19,male,2024-04-24_09h01.02.681,jersey_experiment_5_v0,2023.2.2,Win32,84.03361345,,,,,,,,,,,,,,,,250.4141,251.708,251.708,252.5082,return,0.1647,,99.609375,0,41,41,4,1,FBP-OG-71.png,0.45,1.2,5,0.5,,,,,,,,,,,,,,,,,,,,,,,,,,,,,,,,,,,,,,,,,,,,,
,,,,,SPR24_084,19,male,2024-04-24_09h01.02.681,jersey_experiment_5_v0,2023.2.2,Win32,84.03361345,,,,,,,,,,,,,,,,252.5084,253.8023,253.8024,254.6142,return,0.2766,,99.609375,0,42,42,34,1,FBP-RB-17.png,0.45,1.2,35,0.5,,,,,,,,,,,,,,,,,,,,,,,,,,,,,,,,,,,,,,,,,,,,,
,,,,,SPR24_084,19,male,2024-04-24_09h01.02.681,jersey_experiment_5_v0,2023.2.2,Win32,84.03361345,,,,,,,,,,,,,,,,254.6144,255.9083,255.9084,257.626,return,1.0492,,94.01041667,0,43,43,32,1,FBP-RB-17.png,0.4,1.2,33,0.5,,,,,,,,,,,,,,,,,,,,,,,,,,,,,,,,,,,,,,,,,,,,,
,,,,,SPR24_084,19,male,2024-04-24_09h01.02.681,jersey_experiment_5_v0,2023.2.2,Win32,84.03361345,,,,,,,,,,,,,,,,257.6262,258.9202,258.9202,261.5791,return,0.7665,,2.864583333,0,44,44,35,1,FBP-RB-18.png,0.35,1.2,36,0.5,,,,,,,,,,,,,,,,,,,,,,,,,,,,,,,,,,,,,,,,,,,,,
,,,,,SPR24_084,19,male,2024-04-24_09h01.02.681,jersey_experiment_5_v0,2023.2.2,Win32,84.03361345,,,,,,,,,,,,,,,,261.5793,262.6262,262.6262,265.5439,return,0.5219,,0.390625,0,45,45,56,1,FBP-PT-19.png,0.37,1.2,57,0.25,,,,,,,,,,,,,,,,,,,,,,,,,,,,,,,,,,,,,,,,,,,,,
,,,,,SPR24_084,19,male,2024-04-24_09h01.02.681,jersey_experiment_5_v0,2023.2.2,Win32,84.03361345,,,,,,,,,,,,,,,,265.5441,266.8383,266.8383,268.0734,return,0.1085,,94.921875,0,46,46,43,1,FBP-RB-19.png,0.43,1.2,44,0.5,,,,,,,,,,,,,,,,,,,,,,,,,,,,,,,,,,,,,,,,,,,,,
,,,,,SPR24_084,19,male,2024-04-24_09h01.02.681,jersey_experiment_5_v0,2023.2.2,Win32,84.03361345,,,,,,,,,,,,,,,,268.0735,269.1204,269.1204,270.8618,return,0.1649,,4.6875,0,47,47,26,1,FBP-YG-19.png,0.37,1.2,27,0.25,,,,,,,,,,,,,,,,,,,,,,,,,,,,,,,,,,,,,,,,,,,,,
,,,,,SPR24_084,19,male,2024-04-24_09h01.02.681,jersey_experiment_5_v0,2023.2.2,Win32,84.03361345,,,,,,,,,,,,,,,,270.862,272.1558,272.1559,273.1912,return,0.2969,,3.255208333,0,48,48,40,1,FBP-RB-19.png,0.35,1.2,41,0.5,,,,,,,,,,,,,,,,,,,,,,,,,,,,,,,,,,,,,,,,,,,,,
,,,,,SPR24_084,19,male,2024-04-24_09h01.02.681,jersey_experiment_5_v0,2023.2.2,Win32,84.03361345,,,,,,,,,,,,,,,,273.1915,274.4855,274.4856,276.309,return,0.3014,,98.69791667,0,49,49,14,1,FBP-OG-91.png,0.45,1.2,15,0.5,,,,,,,,,,,,,,,,,,,,,,,,,,,,,,,,,,,,,,,,,,,,,
,,,,,SPR24_084,19,male,2024-04-24_09h01.02.681,jersey_experiment_5_v0,2023.2.2,Win32,84.03361345,,,,,,,,,,,,,,,,276.3093,277.356,277.3561,278.0855,return,0.1242,,98.69791667,0,50,50,19,1,FBP-YG-17.png,0.45,1.2,20,0.25,,,,,,,,,,,,,,,,,,,,,,,,,,,,,,,,,,,,,,,,,,,,,
,,,,,SPR24_084,19,male,2024-04-24_09h01.02.681,jersey_experiment_5_v0,2023.2.2,Win32,84.03361345,,,,,,,,,,,,,,,,278.0858,279.1326,279.1327,281.1562,return,0.1474,,70.703125,0,51,51,52,1,FBP-PT-18.png,0.4,1.2,53,0.25,,,,,,,,,,,,,,,,,,,,,,,,,,,,,,,,,,,,,,,,,,,,,
,,,,,SPR24_084,19,male,2024-04-24_09h01.02.681,jersey_experiment_5_v0,2023.2.2,Win32,84.03361345,,,,,,,,,,,,,,,,281.1564,282.2033,282.2033,284.968,return,0.1803,,20.83333333,0,52,52,20,1,FBP-YG-18.png,0.35,1.2,21,0.25,,,,,,,,,,,,,,,,,,,,,,,,,,,,,,,,,,,,,,,,,,,,,
,,,,,SPR24_084,19,male,2024-04-24_09h01.02.681,jersey_experiment_5_v0,2023.2.2,Win32,84.03361345,,,,,,,,,,,,,,,,284.9683,286.0152,286.0152,294.4038,return,6.9944,,98.95833333,0,53,53,59,1,FBP-PT-19.png,0.45,1.2,60,0.25,,,,,,,,,,,,,,,,,,,,,,,,,,,,,,,,,,,,,,,,,,,,,
,,,,,SPR24_084,19,male,2024-04-24_09h01.02.681,jersey_experiment_5_v0,2023.2.2,Win32,84.03361345,,,,,,,,,,,,,,,,294.4082,295.4508,295.4508,297.5803,return,0.2344,,0.260416667,0,54,54,21,1,FBP-YG-18.png,0.37,1.2,22,0.25,,,,,,,,,,,,,,,,,,,,,,,,,,,,,,,,,,,,,,,,,,,,,
,,,,,SPR24_084,19,male,2024-04-24_09h01.02.681,jersey_experiment_5_v0,2023.2.2,Win32,84.03361345,,,,,,,,,,,,,,,,297.5805,298.6275,298.6276,301.1099,return,0.1449,,87.890625,0,55,55,18,1,FBP-YG-17.png,0.43,1.2,19,0.25,,,,,,,,,,,,,,,,,,,,,,,,,,,,,,,,,,,,,,,,,,,,,
,,,,,SPR24_084,19,male,2024-04-24_09h01.02.681,jersey_experiment_5_v0,2023.2.2,Win32,84.03361345,,,,,,,,,,,,,,,,301.1102,302.404,302.4042,303.7806,return,0.1252,,87.76041667,0,56,56,13,1,FBP-OG-91.png,0.43,1.2,14,0.5,,,,,,,,,,,,,,,,,,,,,,,,,,,,,,,,,,,,,,,,,,,,,
,,,,,SPR24_084,19,male,2024-04-24_09h01.02.681,jersey_experiment_5_v0,2023.2.2,Win32,84.03361345,,,,,,,,,,,,,,,,303.7808,305.0747,305.0747,308.2276,return,1.5142,,61.97916667,0,57,57,42,1,FBP-RB-19.png,0.4,1.2,43,0.5,,,,,,,,,,,,,,,,,,,,,,,,,,,,,,,,,,,,,,,,,,,,,
,,,,,SPR24_084,19,male,2024-04-24_09h01.02.681,jersey_experiment_5_v0,2023.2.2,Win32,84.03361345,,,,,,,,,,,,,,,,308.2278,309.2748,309.2749,311.8985,return,1.7194,,44.01041667,0,58,58,51,1,FBP-PT-18.png,0.37,1.2,52,0.25,,,,,,,,,,,,,,,,,,,,,,,,,,,,,,,,,,,,,,,,,,,,,
,,,,,SPR24_084,19,male,2024-04-24_09h01.02.681,jersey_experiment_5_v0,2023.2.2,Win32,84.03361345,,,,,,,,,,,,,,,,311.8986,313.1926,313.1926,314.5103,return,0.0705,,39.97395833,0,59,59,31,1,FBP-RB-17.png,0.37,1.2,32,0.5,,,,,,,,,,,,,,,,,,,,,,,,,,,,,,,,,,,,,,,,,,,,,
,,,,,SPR24_084,19,male,2024-04-24_09h01.02.681,jersey_experiment_5_v0,2023.2.2,Win32,84.03361345,,,,,,,,,,,,,,,,314.5126,315.8044,315.8045,317.028,return,0.0886,,75.65104167,,,,,,FBP-OG-18.png,0.43,1.2,9,0.5,0,0,0,8,1,,,,,,,,,,,,,,,,,,,,,,,,,,,,,,,,,,,,,,,,
,,,,,SPR24_084,19,male,2024-04-24_09h01.02.681,jersey_experiment_5_v0,2023.2.2,Win32,84.03361345,,,,,,,,,,,,,,,,317.0283,318.3222,318.3222,320.3811,return,0.1087,,38.80208333,,,,,,FBP-OG-19.png,0.37,1.2,12,0.5,0,1,1,11,1,,,,,,,,,,,,,,,,,,,,,,,,,,,,,,,,,,,,,,,,
,,,,,SPR24_084,19,male,2024-04-24_09h01.02.681,jersey_experiment_5_v0,2023.2.2,Win32,84.03361345,,,,,,,,,,,,,,,,320.3814,321.4282,321.4282,323.4165,return,0.1096,,83.72395833,,,,,,FBP-PT-91.png,0.43,1.2,59,0.25,0,2,2,58,1,,,,,,,,,,,,,,,,,,,,,,,,,,,,,,,,,,,,,,,,
,,,,,SPR24_084,19,male,2024-04-24_09h01.02.681,jersey_experiment_5_v0,2023.2.2,Win32,84.03361345,,,,,,,,,,,,,,,,323.4167,324.4635,324.4636,326.0754,return,0.636,,83.85416667,,,,,,FBP-PT-71.png,0.43,1.2,49,0.25,0,3,3,48,1,,,,,,,,,,,,,,,,,,,,,,,,,,,,,,,,,,,,,,,,
,,,,,SPR24_084,19,male,2024-04-24_09h01.02.681,jersey_experiment_5_v0,2023.2.2,Win32,84.03361345,,,,,,,,,,,,,,,,326.0756,327.1225,327.1226,329.1932,return,0.097,,25.26041667,,,,,,FBP-YG-81.png,0.35,1.2,21,0.25,0,4,4,20,1,,,,,,,,,,,,,,,,,,,,,,,,,,,,,,,,,,,,,,,,
,,,,,SPR24_084,19,male,2024-04-24_09h01.02.681,jersey_experiment_5_v0,2023.2.2,Win32,84.03361345,,,,,,,,,,,,,,,,329.1934,330.2404,330.2404,332.4286,return,0.4144,,100,,,,,,FBP-PT-71.png,0.45,1.2,50,0.25,0,5,5,49,1,,,,,,,,,,,,,,,,,,,,,,,,,,,,,,,,,,,,,,,,
,,,,,SPR24_084,19,male,2024-04-24_09h01.02.681,jersey_experiment_5_v0,2023.2.2,Win32,84.03361345,,,,,,,,,,,,,,,,332.4288,333.7228,333.7228,339.1935,return,3.5791,,24.86979167,,,,,,FBP-OG-17.png,0.35,1.2,1,0.5,0,6,6,0,1,,,,,,,,,,,,,,,,,,,,,,,,,,,,,,,,,,,,,,,,
,,,,,SPR24_084,19,male,2024-04-24_09h01.02.681,jersey_experiment_5_v0,2023.2.2,Win32,84.03361345,,,,,,,,,,,,,,,,339.199,340.2407,340.2407,348.2057,return,0.0475,,36.06770833,,,,,,FBP-PT-81.png,0.4,1.2,53,0.25,0,7,7,52,1,,,,,,,,,,,,,,,,,,,,,,,,,,,,,,,,,,,,,,,,
,,,,,SPR24_084,19,male,2024-04-24_09h01.02.681,jersey_experiment_5_v0,2023.2.2,Win32,84.03361345,,,,,,,,,,,,,,,,348.2059,349.2527,349.2528,352.2175,return,1.5762,,65.88541667,,,,,,FBP-YG-71.png,0.4,1.2,18,0.25,0,8,8,17,1,,,,,,,,,,,,,,,,,,,,,,,,,,,,,,,,,,,,,,,,
,,,,,SPR24_084,19,male,2024-04-24_09h01.02.681,jersey_experiment_5_v0,2023.2.2,Win32,84.03361345,,,,,,,,,,,,,,,,352.2178,353.2646,353.2647,356.2648,return,0.0241,,74.609375,,,,,,FBP-YG-81.png,0.43,1.2,24,0.25,0,9,9,23,1,,,,,,,,,,,,,,,,,,,,,,,,,,,,,,,,,,,,,,,,
,,,,,SPR24_084,19,male,2024-04-24_09h01.02.681,jersey_experiment_5_v0,2023.2.2,Win32,84.03361345,,,,,,,,,,,,,,,,356.2649,357.5589,357.559,359.912,return,0.0483,,25.26041667,,,,,,FBP-RB-81.png,0.37,1.2,37,0.5,0,10,10,36,1,,,,,,,,,,,,,,,,,,,,,,,,,,,,,,,,,,,,,,,,
,,,,,SPR24_084,19,male,2024-04-24_09h01.02.681,jersey_experiment_5_v0,2023.2.2,Win32,84.03361345,,,,,,,,,,,,,,,,359.9122,361.2062,361.2063,362.8767,return,0.3057,,74.47916667,,,,,,FBP-RB-71.png,0.43,1.2,34,0.5,0,11,11,33,1,,,,,,,,,,,,,,,,,,,,,,,,,,,,,,,,,,,,,,,,
,,,,,SPR24_084,19,male,2024-04-24_09h01.02.681,jersey_experiment_5_v0,2023.2.2,Win32,84.03361345,,,,,,,,,,,,,,,,362.8769,364.1709,364.171,366.1356,return,0.2485,,82.421875,,,,,,FBP-OG-19.png,0.45,1.2,15,0.5,0,12,12,14,1,,,,,,,,,,,,,,,,,,,,,,,,,,,,,,,,,,,,,,,,
,,,,,SPR24_084,19,male,2024-04-24_09h01.02.681,jersey_experiment_5_v0,2023.2.2,Win32,84.03361345,,,,,,,,,,,,,,,,366.1358,367.1828,367.1828,369.5123,return,0.3536,,24.73958333,,,,,,FBP-YG-81.png,0.4,1.2,23,0.25,0,13,13,22,1,,,,,,,,,,,,,,,,,,,,,,,,,,,,,,,,,,,,,,,,
,,,,,SPR24_084,19,male,2024-04-24_09h01.02.681,jersey_experiment_5_v0,2023.2.2,Win32,84.03361345,,,,,,,,,,,,,,,,369.5125,370.5594,370.5594,372.7005,return,0.894,,37.23958333,,,,,,FBP-PT-71.png,0.4,1.2,48,0.25,0,14,14,47,1,,,,,,,,,,,,,,,,,,,,,,,,,,,,,,,,,,,,,,,,
,,,,,SPR24_084,19,male,2024-04-24_09h01.02.681,jersey_experiment_5_v0,2023.2.2,Win32,84.03361345,,,,,,,,,,,,,,,,372.7008,373.7477,373.7478,375.1477,return,0.0333,,36.97916667,,,,,,FBP-PT-91.png,0.45,1.2,60,0.25,0,15,15,59,1,,,,,,,,,,,,,,,,,,,,,,,,,,,,,,,,,,,,,,,,
,,,,,SPR24_084,19,male,2024-04-24_09h01.02.681,jersey_experiment_5_v0,2023.2.2,Win32,84.03361345,,,,,,,,,,,,,,,,375.1479,376.1948,376.1949,378.0538,return,0.0512,,20.44270833,,,,,,FBP-PT-91.png,0.35,1.2,56,0.25,0,16,16,55,1,,,,,,,,,,,,,,,,,,,,,,,,,,,,,,,,,,,,,,,,
,,,,,SPR24_084,19,male,2024-04-24_09h01.02.681,jersey_experiment_5_v0,2023.2.2,Win32,84.03361345,,,,,,,,,,,,,,,,378.0541,379.3479,379.3479,380.7243,return,0.087,,1.302083333,,,,,,FBP-RB-91.png,0.37,1.2,42,0.5,0,17,17,41,1,,,,,,,,,,,,,,,,,,,,,,,,,,,,,,,,,,,,,,,,
,,,,,SPR24_084,19,male,2024-04-24_09h01.02.681,jersey_experiment_5_v0,2023.2.2,Win32,84.03361345,,,,,,,,,,,,,,,,380.7246,381.7715,381.7715,382.3949,return,0.0338,,1.302083333,,,,,,FBP-PT-71.png,0.37,1.2,47,0.25,0,18,18,46,1,,,,,,,,,,,,,,,,,,,,,,,,,,,,,,,,,,,,,,,,
,,,,,SPR24_084,19,male,2024-04-24_09h01.02.681,jersey_experiment_5_v0,2023.2.2,Win32,84.03361345,,,,,,,,,,,,,,,,382.3951,383.4422,383.4422,385.7481,return,0.8429,,99.86979167,,,,,,FBP-YG-91.png,0.45,1.2,30,0.25,0,19,19,29,1,,,,,,,,,,,,,,,,,,,,,,,,,,,,,,,,,,,,,,,,
,,,,,SPR24_084,19,male,2024-04-24_09h01.02.681,jersey_experiment_5_v0,2023.2.2,Win32,84.03361345,,,,,,,,,,,,,,,,385.7484,386.7952,386.7952,388.3011,return,0.0943,,76.82291667,,,,,,FBP-PT-81.png,0.43,1.2,54,0.25,0,20,20,53,1,,,,,,,,,,,,,,,,,,,,,,,,,,,,,,,,,,,,,,,,
,,,,,SPR24_084,19,male,2024-04-24_09h01.02.681,jersey_experiment_5_v0,2023.2.2,Win32,84.03361345,,,,,,,,,,,,,,,,388.3013,389.5952,389.5952,391.4307,return,0.4995,,24.47916667,,,,,,FBP-OG-19.png,0.35,1.2,11,0.5,0,21,21,10,1,,,,,,,,,,,,,,,,,,,,,,,,,,,,,,,,,,,,,,,,
,,,,,SPR24_084,19,male,2024-04-24_09h01.02.681,jersey_experiment_5_v0,2023.2.2,Win32,84.03361345,,,,,,,,,,,,,,,,391.4309,392.7249,392.725,394.3482,return,0.165,,99.86979167,,,,,,FBP-RB-71.png,0.45,1.2,35,0.5,0,22,22,34,1,,,,,,,,,,,,,,,,,,,,,,,,,,,,,,,,,,,,,,,,
,,,,,SPR24_084,19,male,2024-04-24_09h01.02.681,jersey_experiment_5_v0,2023.2.2,Win32,84.03361345,,,,,,,,,,,,,,,,394.3485,395.6425,395.6425,396.4189,return,0.0795,,99.86979167,,,,,,FBP-OG-17.png,0.45,1.2,5,0.5,0,23,23,4,1,,,,,,,,,,,,,,,,,,,,,,,,,,,,,,,,,,,,,,,,
,,,,,SPR24_084,19,male,2024-04-24_09h01.02.681,jersey_experiment_5_v0,2023.2.2,Win32,84.03361345,,,,,,,,,,,,,,,,396.4192,397.4662,397.4662,398.2309,return,0.1226,,99.86979167,,,,,,FBP-YG-81.png,0.45,1.2,25,0.25,0,24,24,24,1,,,,,,,,,,,,,,,,,,,,,,,,,,,,,,,,,,,,,,,,
,,,,,SPR24_084,19,male,2024-04-24_09h01.02.681,jersey_experiment_5_v0,2023.2.2,Win32,84.03361345,,,,,,,,,,,,,,,,398.2311,399.278,399.278,399.8427,return,0.1484,,99.86979167,,,,,,FBP-YG-91.png,0.43,1.2,29,0.25,0,25,25,28,1,,,,,,,,,,,,,,,,,,,,,,,,,,,,,,,,,,,,,,,,
,,,,,SPR24_084,19,male,2024-04-24_09h01.02.681,jersey_experiment_5_v0,2023.2.2,Win32,84.03361345,,,,,,,,,,,,,,,,399.8428,400.8899,400.8899,402.1368,return,0.107,,75.52083333,,,,,,FBP-YG-91.png,0.4,1.2,28,0.25,0,26,26,27,1,,,,,,,,,,,,,,,,,,,,,,,,,,,,,,,,,,,,,,,,
,,,,,SPR24_084,19,male,2024-04-24_09h01.02.681,jersey_experiment_5_v0,2023.2.2,Win32,84.03361345,,,,,,,,,,,,,,,,402.137,403.431,403.431,404.5253,return,0.0004,,68.61979167,,,,,,FBP-RB-91.png,0.4,1.2,43,0.5,0,27,27,42,1,,,,,,,,,,,,,,,,,,,,,,,,,,,,,,,,,,,,,,,,
,,,,,SPR24_084,19,male,2024-04-24_09h01.02.681,jersey_experiment_5_v0,2023.2.2,Win32,84.03361345,,,,,,,,,,,,,,,,404.5255,405.8194,405.8194,407.1607,return,0.0147,,64.97395833,,,,,,FBP-OG-18.png,0.37,1.2,7,0.5,0,28,28,6,1,,,,,,,,,,,,,,,,,,,,,,,,,,,,,,,,,,,,,,,,
,,,,,SPR24_084,19,male,2024-04-24_09h01.02.681,jersey_experiment_5_v0,2023.2.2,Win32,84.03361345,,,,,,,,,,,,,,,,407.1609,408.2076,408.2077,411.5491,return,1.6796,,12.890625,,,,,,FBP-PT-71.png,0.35,1.2,46,0.25,0,29,29,45,1,,,,,,,,,,,,,,,,,,,,,,,,,,,,,,,,,,,,,,,,
,,,,,SPR24_084,19,male,2024-04-24_09h01.02.681,jersey_experiment_5_v0,2023.2.2,Win32,84.03361345,,,,,,,,,,,,,,,,411.5493,412.8432,412.8432,415.8198,return,0.2819,,69.53125,,,,,,FBP-OG-19.png,0.43,1.2,14,0.5,0,30,30,13,1,,,,,,,,,,,,,,,,,,,,,,,,,,,,,,,,,,,,,,,,
,,,,,SPR24_084,19,male,2024-04-24_09h01.02.681,jersey_experiment_5_v0,2023.2.2,Win32,84.03361345,,,,,,,,,,,,,,,,415.82,417.1139,417.114,419.4434,return,1.1968,,21.22395833,,,,,,FBP-OG-18.png,0.35,1.2,6,0.5,0,31,31,5,1,,,,,,,,,,,,,,,,,,,,,,,,,,,,,,,,,,,,,,,,
,,,,,SPR24_084,19,male,2024-04-24_09h01.02.681,jersey_experiment_5_v0,2023.2.2,Win32,84.03361345,,,,,,,,,,,,,,,,419.4437,420.7376,420.7376,422.7613,return,0.2029,,92.05729167,,,,,,FBP-RB-81.png,0.45,1.2,40,0.5,0,32,32,39,1,,,,,,,,,,,,,,,,,,,,,,,,,,,,,,,,,,,,,,,,
,,,,,SPR24_084,19,male,2024-04-24_09h01.02.681,jersey_experiment_5_v0,2023.2.2,Win32,84.03361345,,,,,,,,,,,,,,,,422.7615,424.0553,424.0554,424.8436,return,0.1887,,91.92708333,,,,,,FBP-RB-91.png,0.43,1.2,44,0.5,0,33,33,43,1,,,,,,,,,,,,,,,,,,,,,,,,,,,,,,,,,,,,,,,,
,,,,,SPR24_084,19,male,2024-04-24_09h01.02.681,jersey_experiment_5_v0,2023.2.2,Win32,84.03361345,,,,,,,,,,,,,,,,424.8439,425.8909,425.8909,426.5967,return,0.0994,,91.92708333,,,,,,FBP-PT-81.png,0.45,1.2,55,0.25,0,34,34,54,1,,,,,,,,,,,,,,,,,,,,,,,,,,,,,,,,,,,,,,,,
,,,,,SPR24_084,19,male,2024-04-24_09h01.02.681,jersey_experiment_5_v0,2023.2.2,Win32,84.03361345,,,,,,,,,,,,,,,,426.5968,427.6437,427.6438,429.526,return,0.1705,,26.04166667,,,,,,FBP-YG-91.png,0.35,1.2,26,0.25,0,35,35,25,1,,,,,,,,,,,,,,,,,,,,,,,,,,,,,,,,,,,,,,,,
,,,,,SPR24_084,19,male,2024-04-24_09h01.02.681,jersey_experiment_5_v0,2023.2.2,Win32,84.03361345,,,,,,,,,,,,,,,,429.5263,430.5732,430.5732,432.6204,return,0.7199,,32.55208333,,,,,,FBP-PT-91.png,0.4,1.2,58,0.25,0,36,36,57,1,,,,,,,,,,,,,,,,,,,,,,,,,,,,,,,,,,,,,,,,
,,,,,SPR24_084,19,male,2024-04-24_09h01.02.681,jersey_experiment_5_v0,2023.2.2,Win32,84.03361345,,,,,,,,,,,,,,,,432.6207,433.9145,433.9145,435.444,return,0.1139,,21.74479167,,,,,,FBP-RB-91.png,0.35,1.2,41,0.5,0,37,37,40,1,,,,,,,,,,,,,,,,,,,,,,,,,,,,,,,,,,,,,,,,
,,,,,SPR24_084,19,male,2024-04-24_09h01.02.681,jersey_experiment_5_v0,2023.2.2,Win32,84.03361345,,,,,,,,,,,,,,,,435.4443,436.7382,436.7382,438.6207,return,0.0375,,76.43229167,,,,,,FBP-OG-18.png,0.45,1.2,10,0.5,0,38,38,9,1,,,,,,,,,,,,,,,,,,,,,,,,,,,,,,,,,,,,,,,,
,,,,,SPR24_084,19,male,2024-04-24_09h01.02.681,jersey_experiment_5_v0,2023.2.2,Win32,84.03361345,,,,,,,,,,,,,,,,438.6208,439.6676,439.6676,440.856,return,0.308,,76.43229167,,,,,,FBP-YG-71.png,0.43,1.2,19,0.25,0,39,39,18,1,,,,,,,,,,,,,,,,,,,,,,,,,,,,,,,,,,,,,,,,
,,,,,SPR24_084,19,male,2024-04-24_09h01.02.681,jersey_experiment_5_v0,2023.2.2,Win32,84.03361345,,,,,,,,,,,,,,,,440.8562,442.1501,442.1501,443.8678,return,0.7911,,20.05208333,,,,,,FBP-RB-71.png,0.35,1.2,31,0.5,0,40,40,30,1,,,,,,,,,,,,,,,,,,,,,,,,,,,,,,,,,,,,,,,,
,,,,,SPR24_084,19,male,2024-04-24_09h01.02.681,jersey_experiment_5_v0,2023.2.2,Win32,84.03361345,,,,,,,,,,,,,,,,443.8682,444.9148,444.9149,446.3738,return,0.1238,,19.27083333,,,,,,FBP-YG-91.png,0.37,1.2,27,0.25,0,41,41,26,1,,,,,,,,,,,,,,,,,,,,,,,,,,,,,,,,,,,,,,,,
,,,,,SPR24_084,19,male,2024-04-24_09h01.02.681,jersey_experiment_5_v0,2023.2.2,Win32,84.03361345,,,,,,,,,,,,,,,,446.3741,447.6681,447.6681,450.268,return,0.7297,,70.96354167,,,,,,FBP-RB-71.png,0.4,1.2,33,0.5,0,42,42,32,1,,,,,,,,,,,,,,,,,,,,,,,,,,,,,,,,,,,,,,,,
,,,,,SPR24_084,19,male,2024-04-24_09h01.02.681,jersey_experiment_5_v0,2023.2.2,Win32,84.03361345,,,,,,,,,,,,,,,,450.2683,451.3151,451.3151,452.8917,return,0.0809,,24.08854167,,,,,,FBP-PT-81.png,0.37,1.2,52,0.25,0,43,43,51,1,,,,,,,,,,,,,,,,,,,,,,,,,,,,,,,,,,,,,,,,
,,,,,SPR24_084,19,male,2024-04-24_09h01.02.681,jersey_experiment_5_v0,2023.2.2,Win32,84.03361345,,,,,,,,,,,,,,,,452.8918,454.1857,454.1857,455.4447,return,0.1217,,77.60416667,,,,,,FBP-RB-81.png,0.43,1.2,39,0.5,0,44,44,38,1,,,,,,,,,,,,,,,,,,,,,,,,,,,,,,,,,,,,,,,,
,,,,,SPR24_084,19,male,2024-04-24_09h01.02.681,jersey_experiment_5_v0,2023.2.2,Win32,84.03361345,,,,,,,,,,,,,,,,455.4449,456.7388,456.7389,458.4447,return,0.5499,,67.05729167,,,,,,FBP-OG-18.png,0.4,1.2,8,0.5,0,45,45,7,1,,,,,,,,,,,,,,,,,,,,,,,,,,,,,,,,,,,,,,,,
,,,,,SPR24_084,19,male,2024-04-24_09h01.02.681,jersey_experiment_5_v0,2023.2.2,Win32,84.03361345,,,,,,,,,,,,,,,,458.4449,459.7388,459.7388,462.0684,return,0.0168,,49.86979167,,,,,,FBP-RB-71.png,0.37,1.2,32,0.5,0,46,46,31,1,,,,,,,,,,,,,,,,,,,,,,,,,,,,,,,,,,,,,,,,
,,,,,SPR24_084,19,male,2024-04-24_09h01.02.681,jersey_experiment_5_v0,2023.2.2,Win32,84.03361345,,,,,,,,,,,,,,,,462.0686,463.1155,463.1155,463.8683,return,0.0611,,49.86979167,,,,,,FBP-YG-71.png,0.35,1.2,16,0.25,0,47,47,15,1,,,,,,,,,,,,,,,,,,,,,,,,,,,,,,,,,,,,,,,,
,,,,,SPR24_084,19,male,2024-04-24_09h01.02.681,jersey_experiment_5_v0,2023.2.2,Win32,84.03361345,,,,,,,,,,,,,,,,463.8686,465.1627,465.1628,466.4215,return,0.1945,,73.17708333,,,,,,FBP-OG-17.png,0.43,1.2,4,0.5,0,48,48,3,1,,,,,,,,,,,,,,,,,,,,,,,,,,,,,,,,,,,,,,,,
,,,,,SPR24_084,19,male,2024-04-24_09h01.02.681,jersey_experiment_5_v0,2023.2.2,Win32,84.03361345,,,,,,,,,,,,,,,,466.4218,467.7158,467.7158,470.2452,return,0.8421,,28.38541667,,,,,,FBP-RB-81.png,0.35,1.2,36,0.5,0,49,49,35,1,,,,,,,,,,,,,,,,,,,,,,,,,,,,,,,,,,,,,,,,
,,,,,SPR24_084,19,male,2024-04-24_09h01.02.681,jersey_experiment_5_v0,2023.2.2,Win32,84.03361345,,,,,,,,,,,,,,,,470.2455,471.5393,471.5393,472.5041,return,0.071,,23.828125,,,,,,FBP-OG-17.png,0.37,1.2,2,0.5,0,50,50,1,1,,,,,,,,,,,,,,,,,,,,,,,,,,,,,,,,,,,,,,,,
,,,,,SPR24_084,19,male,2024-04-24_09h01.02.681,jersey_experiment_5_v0,2023.2.2,Win32,84.03361345,,,,,,,,,,,,,,,,472.5043,473.7983,473.7983,475.8688,return,0.1417,,58.59375,,,,,,FBP-RB-81.png,0.4,1.2,38,0.5,0,51,51,37,1,,,,,,,,,,,,,,,,,,,,,,,,,,,,,,,,,,,,,,,,
,,,,,SPR24_084,19,male,2024-04-24_09h01.02.681,jersey_experiment_5_v0,2023.2.2,Win32,84.03361345,,,,,,,,,,,,,,,,475.8691,476.9159,476.9159,478.1161,return,0.2049,,20.57291667,,,,,,FBP-PT-91.png,0.37,1.2,57,0.25,0,52,52,56,1,,,,,,,,,,,,,,,,,,,,,,,,,,,,,,,,,,,,,,,,
,,,,,SPR24_084,19,male,2024-04-24_09h01.02.681,jersey_experiment_5_v0,2023.2.2,Win32,84.03361345,,,,,,,,,,,,,,,,478.1164,479.1632,479.1633,480.5515,return,0.1193,,19.27083333,,,,,,FBP-YG-71.png,0.37,1.2,17,0.25,0,53,53,16,1,,,,,,,,,,,,,,,,,,,,,,,,,,,,,,,,,,,,,,,,
,,,,,SPR24_084,19,male,2024-04-24_09h01.02.681,jersey_experiment_5_v0,2023.2.2,Win32,84.03361345,,,,,,,,,,,,,,,,480.5518,481.8457,481.8458,483.1398,return,0.0527,,49.609375,,,,,,FBP-OG-17.png,0.4,1.2,3,0.5,0,54,54,2,1,,,,,,,,,,,,,,,,,,,,,,,,,,,,,,,,,,,,,,,,
,,,,,SPR24_084,19,male,2024-04-24_09h01.02.681,jersey_experiment_5_v0,2023.2.2,Win32,84.03361345,,,,,,,,,,,,,,,,483.14,484.1868,484.1868,485.7399,return,0.2592,,23.95833333,,,,,,FBP-PT-81.png,0.35,1.2,51,0.25,0,55,55,50,1,,,,,,,,,,,,,,,,,,,,,,,,,,,,,,,,,,,,,,,,
,,,,,SPR24_084,19,male,2024-04-24_09h01.02.681,jersey_experiment_5_v0,2023.2.2,Win32,84.03361345,,,,,,,,,,,,,,,,485.7401,487.0341,487.0341,489.0811,return,0.5295,,49.86979167,,,,,,FBP-OG-19.png,0.4,1.2,13,0.5,0,56,56,12,1,,,,,,,,,,,,,,,,,,,,,,,,,,,,,,,,,,,,,,,,
,,,,,SPR24_084,19,male,2024-04-24_09h01.02.681,jersey_experiment_5_v0,2023.2.2,Win32,84.03361345,,,,,,,,,,,,,,,,489.0814,490.1284,490.1285,491.7872,return,0.2592,,99.86979167,,,,,,FBP-YG-71.png,0.45,1.2,20,0.25,0,57,57,19,1,,,,,,,,,,,,,,,,,,,,,,,,,,,,,,,,,,,,,,,,
,,,,,SPR24_084,19,male,2024-04-24_09h01.02.681,jersey_experiment_5_v0,2023.2.2,Win32,84.03361345,,,,,,,,,,,,,,,,491.7874,492.8343,492.8344,495.752,return,0.1196,,49.47916667,,,,,,FBP-YG-81.png,0.37,1.2,22,0.25,0,58,58,21,1,,,,,,,,,,,,,,,,,,,,,,,,,,,,,,,,,,,,,,,,
,,,,,SPR24_084,19,male,2024-04-24_09h01.02.681,jersey_experiment_5_v0,2023.2.2,Win32,84.03361345,,,,,,,,,,,,,,,,495.7523,497.0461,497.0461,498.2462,return,0.3323,,98.69791667,,,,,,FBP-RB-91.png,0.45,1.2,45,0.5,0,59,59,44,1,,,,,,,,,,,,,,,,,,,,,,,,,,,,,,,,,,,,,,,,
,,,,,SPR24_084,19,male,2024-04-24_09h01.02.681,jersey_experiment_5_v0,2023.2.2,Win32,84.03361345,,,,,,,,,,,,,,,,,,,,,,,,,,,,,,,,,,,,,,,498.2466,618.2389,,,,,,,,,,,,,,,,,,,,,,,,,,,,,,,,,,,,,,
,,,,,SPR24_084,19,male,2024-04-24_09h01.02.681,jersey_experiment_5_v0,2023.2.2,Win32,84.03361345,,,,,,,,,,,,,,,,,,,,,,,,,,,,,,,,,,,,,,,,,618.239,620.0506,return,1.8061,,,,,,,,,,,,,,,,,,,,,,,,,,,,,,,,,,
,,,,,SPR24_084,19,male,2024-04-24_09h01.02.681,jersey_experiment_5_v0,2023.2.2,Win32,84.03361345,,,,,,,,,,,,,,,,620.0579,621.1092,621.1093,623.7565,return,0.1879,,23.4375,,,,,,FBP-OG-71.png,0.37,1.2,2,0.25,,,,,,,,,,,,,0,0,0,1,1,,,,,,,,,,,,,,,,,,,,,,,,,,,,
,,,,,SPR24_084,19,male,2024-04-24_09h01.02.681,jersey_experiment_5_v0,2023.2.2,Win32,84.03361345,,,,,,,,,,,,,,,,623.757,625.0507,625.0508,625.8035,return,0.095,,21.74479167,,,,,,FBP-YG-17.png,0.35,1.2,16,0.5,,,,,,,,,,,,,0,1,1,15,1,,,,,,,,,,,,,,,,,,,,,,,,,,,,
,,,,,SPR24_084,19,male,2024-04-24_09h01.02.681,jersey_experiment_5_v0,2023.2.2,Win32,84.03361345,,,,,,,,,,,,,,,,625.8037,627.0977,627.0978,629.4154,return,0.804,,74.21875,,,,,,FBP-YG-17.png,0.4,1.2,18,0.5,,,,,,,,,,,,,0,2,2,17,1,,,,,,,,,,,,,,,,,,,,,,,,,,,,
,,,,,SPR24_084,19,male,2024-04-24_09h01.02.681,jersey_experiment_5_v0,2023.2.2,Win32,84.03361345,,,,,,,,,,,,,,,,629.4156,630.7097,630.7097,631.8273,return,0.0668,,50,,,,,,FBP-PT-18.png,0.37,1.2,52,0.5,,,,,,,,,,,,,0,3,3,51,1,,,,,,,,,,,,,,,,,,,,,,,,,,,,
,,,,,SPR24_084,19,male,2024-04-24_09h01.02.681,jersey_experiment_5_v0,2023.2.2,Win32,84.03361345,,,,,,,,,,,,,,,,631.8276,633.1214,633.1215,633.4509,return,0.0609,,50,,,,,,FBP-YG-18.png,0.37,1.2,22,0.5,,,,,,,,,,,,,0,4,4,21,1,,,,,,,,,,,,,,,,,,,,,,,,,,,,
,,,,,SPR24_084,19,male,2024-04-24_09h01.02.681,jersey_experiment_5_v0,2023.2.2,Win32,84.03361345,,,,,,,,,,,,,,,,633.4512,634.7452,634.7452,635.804,return,0.2363,,49.609375,,,,,,FBP-PT-19.png,0.35,1.2,56,0.5,,,,,,,,,,,,,0,5,5,55,1,,,,,,,,,,,,,,,,,,,,,,,,,,,,
,,,,,SPR24_084,19,male,2024-04-24_09h01.02.681,jersey_experiment_5_v0,2023.2.2,Win32,84.03361345,,,,,,,,,,,,,,,,635.8042,636.851,636.8511,638.2511,return,0.2963,,100,,,,,,FBP-RB-19.png,0.45,1.2,45,0.25,,,,,,,,,,,,,0,6,6,44,1,,,,,,,,,,,,,,,,,,,,,,,,,,,,
,,,,,SPR24_084,19,male,2024-04-24_09h01.02.681,jersey_experiment_5_v0,2023.2.2,Win32,84.03361345,,,,,,,,,,,,,,,,638.2513,639.5454,639.5454,640.6512,return,0.2119,,100,,,,,,FBP-PT-18.png,0.45,1.2,55,0.5,,,,,,,,,,,,,0,7,7,54,1,,,,,,,,,,,,,,,,,,,,,,,,,,,,
,,,,,SPR24_084,19,male,2024-04-24_09h01.02.681,jersey_experiment_5_v0,2023.2.2,Win32,84.03361345,,,,,,,,,,,,,,,,640.6515,641.9453,641.9453,642.7572,return,0.1105,,100,,,,,,FBP-PT-17.png,0.43,1.2,49,0.5,,,,,,,,,,,,,0,8,8,48,1,,,,,,,,,,,,,,,,,,,,,,,,,,,,
,,,,,SPR24_084,19,male,2024-04-24_09h01.02.681,jersey_experiment_5_v0,2023.2.2,Win32,84.03361345,,,,,,,,,,,,,,,,642.7574,644.0513,644.0513,645.7219,return,0.9761,,91.015625,,,,,,FBP-PT-19.png,0.43,1.2,59,0.5,,,,,,,,,,,,,0,9,9,58,1,,,,,,,,,,,,,,,,,,,,,,,,,,,,
,,,,,SPR24_084,19,male,2024-04-24_09h01.02.681,jersey_experiment_5_v0,2023.2.2,Win32,84.03361345,,,,,,,,,,,,,,,,645.7221,646.7689,646.769,647.6984,return,0.1124,,85.67708333,,,,,,FBP-RB-17.png,0.4,1.2,33,0.25,,,,,,,,,,,,,0,10,10,32,1,,,,,,,,,,,,,,,,,,,,,,,,,,,,
,,,,,SPR24_084,19,male,2024-04-24_09h01.02.681,jersey_experiment_5_v0,2023.2.2,Win32,84.03361345,,,,,,,,,,,,,,,,647.6986,648.7455,648.7456,649.7339,return,0.0881,,95.3125,,,,,,FBP-OG-91.png,0.43,1.2,14,0.25,,,,,,,,,,,,,0,11,11,13,1,,,,,,,,,,,,,,,,,,,,,,,,,,,,
,,,,,SPR24_084,19,male,2024-04-24_09h01.02.681,jersey_experiment_5_v0,2023.2.2,Win32,84.03361345,,,,,,,,,,,,,,,,649.7341,650.781,650.781,652.6163,return,0.2006,,100,,,,,,FBP-OG-91.png,0.45,1.2,15,0.25,,,,,,,,,,,,,0,12,12,14,1,,,,,,,,,,,,,,,,,,,,,,,,,,,,
,,,,,SPR24_084,19,male,2024-04-24_09h01.02.681,jersey_experiment_5_v0,2023.2.2,Win32,84.03361345,,,,,,,,,,,,,,,,652.6166,653.6636,653.6637,654.5811,return,0.0977,,100,,,,,,FBP-RB-19.png,0.43,1.2,44,0.25,,,,,,,,,,,,,0,13,13,43,1,,,,,,,,,,,,,,,,,,,,,,,,,,,,
,,,,,SPR24_084,19,male,2024-04-24_09h01.02.681,jersey_experiment_5_v0,2023.2.2,Win32,84.03361345,,,,,,,,,,,,,,,,654.5813,655.6283,655.6284,662.2755,return,1.0175,,0,,,,,,FBP-RB-18.png,0.35,1.2,36,0.25,,,,,,,,,,,,,0,14,14,35,1,,,,,,,,,,,,,,,,,,,,,,,,,,,,
,,,,,SPR24_084,19,male,2024-04-24_09h01.02.681,jersey_experiment_5_v0,2023.2.2,Win32,84.03361345,,,,,,,,,,,,,,,,662.2758,663.3223,663.3224,664.5816,return,0.2386,,100,,,,,,FBP-RB-18.png,0.43,1.2,39,0.25,,,,,,,,,,,,,0,15,15,38,1,,,,,,,,,,,,,,,,,,,,,,,,,,,,
,,,,,SPR24_084,19,male,2024-04-24_09h01.02.681,jersey_experiment_5_v0,2023.2.2,Win32,84.03361345,,,,,,,,,,,,,,,,664.5819,665.8755,665.8755,667.9816,return,0.1411,,72.00520833,,,,,,FBP-YG-19.png,0.37,1.2,27,0.5,,,,,,,,,,,,,0,16,16,26,1,,,,,,,,,,,,,,,,,,,,,,,,,,,,
,,,,,SPR24_084,19,male,2024-04-24_09h01.02.681,jersey_experiment_5_v0,2023.2.2,Win32,84.03361345,,,,,,,,,,,,,,,,667.9818,669.2757,669.2757,670.311,return,0.4375,,97.65625,,,,,,FBP-PT-17.png,0.45,1.2,50,0.5,,,,,,,,,,,,,0,17,17,49,1,,,,,,,,,,,,,,,,,,,,,,,,,,,,
,,,,,SPR24_084,19,male,2024-04-24_09h01.02.681,jersey_experiment_5_v0,2023.2.2,Win32,84.03361345,,,,,,,,,,,,,,,,670.3113,671.6052,671.6052,675.9818,return,0.127,,1.302083333,,,,,,FBP-YG-18.png,0.35,1.2,21,0.5,,,,,,,,,,,,,0,18,18,20,1,,,,,,,,,,,,,,,,,,,,,,,,,,,,
,,,,,SPR24_084,19,male,2024-04-24_09h01.02.681,jersey_experiment_5_v0,2023.2.2,Win32,84.03361345,,,,,,,,,,,,,,,,675.982,677.2761,677.2761,679.5584,return,1.1677,,73.30729167,,,,,,FBP-PT-19.png,0.4,1.2,58,0.5,,,,,,,,,,,,,0,19,19,57,1,,,,,,,,,,,,,,,,,,,,,,,,,,,,
,,,,,SPR24_084,19,male,2024-04-24_09h01.02.681,jersey_experiment_5_v0,2023.2.2,Win32,84.03361345,,,,,,,,,,,,,,,,679.5587,680.8528,680.8528,682.0291,return,0.0004,,65.625,,,,,,FBP-YG-18.png,0.4,1.2,23,0.5,,,,,,,,,,,,,0,20,20,22,1,,,,,,,,,,,,,,,,,,,,,,,,,,,,
,,,,,SPR24_084,19,male,2024-04-24_09h01.02.681,jersey_experiment_5_v0,2023.2.2,Win32,84.03361345,,,,,,,,,,,,,,,,682.0294,683.3233,683.3234,684.6644,return,0.7091,,68.61979167,,,,,,FBP-PT-17.png,0.4,1.2,48,0.5,,,,,,,,,,,,,0,21,21,47,1,,,,,,,,,,,,,,,,,,,,,,,,,,,,
,,,,,SPR24_084,19,male,2024-04-24_09h01.02.681,jersey_experiment_5_v0,2023.2.2,Win32,84.03361345,,,,,,,,,,,,,,,,684.6646,685.7116,685.7116,687.2527,return,0.1242,,24.86979167,,,,,,FBP-OG-91.png,0.35,1.2,11,0.25,,,,,,,,,,,,,0,22,22,10,1,,,,,,,,,,,,,,,,,,,,,,,,,,,,
,,,,,SPR24_084,19,male,2024-04-24_09h01.02.681,jersey_experiment_5_v0,2023.2.2,Win32,84.03361345,,,,,,,,,,,,,,,,687.2529,688.547,688.547,689.9589,return,0.579,,21.35416667,,,,,,FBP-PT-17.png,0.35,1.2,46,0.5,,,,,,,,,,,,,0,23,23,45,1,,,,,,,,,,,,,,,,,,,,,,,,,,,,
,,,,,SPR24_084,19,male,2024-04-24_09h01.02.681,jersey_experiment_5_v0,2023.2.2,Win32,84.03361345,,,,,,,,,,,,,,,,689.9591,691.0058,691.0059,692.2532,return,0.4481,,100,,,,,,FBP-RB-17.png,0.43,1.2,34,0.25,,,,,,,,,,,,,0,24,24,33,1,,,,,,,,,,,,,,,,,,,,,,,,,,,,
,,,,,SPR24_084,19,male,2024-04-24_09h01.02.681,jersey_experiment_5_v0,2023.2.2,Win32,84.03361345,,,,,,,,,,,,,,,,692.2534,693.3001,693.3001,695.3708,return,0.3164,,99.21875,,,,,,FBP-OG-81.png,0.45,1.2,10,0.25,,,,,,,,,,,,,0,25,25,9,1,,,,,,,,,,,,,,,,,,,,,,,,,,,,
,,,,,SPR24_084,19,male,2024-04-24_09h01.02.681,jersey_experiment_5_v0,2023.2.2,Win32,84.03361345,,,,,,,,,,,,,,,,695.371,696.6649,696.665,698.5472,return,0.1493,,26.30208333,,,,,,FBP-PT-19.png,0.37,1.2,57,0.5,,,,,,,,,,,,,0,26,26,56,1,,,,,,,,,,,,,,,,,,,,,,,,,,,,
,,,,,SPR24_084,19,male,2024-04-24_09h01.02.681,jersey_experiment_5_v0,2023.2.2,Win32,84.03361345,,,,,,,,,,,,,,,,698.5474,699.5944,699.5944,700.7709,return,0.2416,,23.4375,,,,,,FBP-RB-18.png,0.37,1.2,37,0.25,,,,,,,,,,,,,0,27,27,36,1,,,,,,,,,,,,,,,,,,,,,,,,,,,,
,,,,,SPR24_084,19,male,2024-04-24_09h01.02.681,jersey_experiment_5_v0,2023.2.2,Win32,84.03361345,,,,,,,,,,,,,,,,700.7711,702.0652,702.0654,703.2414,return,0.0237,,74.47916667,,,,,,FBP-PT-19.png,0.45,1.2,60,0.5,,,,,,,,,,,,,0,28,28,59,1,,,,,,,,,,,,,,,,,,,,,,,,,,,,
,,,,,SPR24_084,19,male,2024-04-24_09h01.02.681,jersey_experiment_5_v0,2023.2.2,Win32,84.03361345,,,,,,,,,,,,,,,,703.2417,704.2887,704.2888,705.7006,return,0.0775,,49.86979167,,,,,,FBP-RB-18.png,0.4,1.2,38,0.25,,,,,,,,,,,,,0,29,29,37,1,,,,,,,,,,,,,,,,,,,,,,,,,,,,
,,,,,SPR24_084,19,male,2024-04-24_09h01.02.681,jersey_experiment_5_v0,2023.2.2,Win32,84.03361345,,,,,,,,,,,,,,,,705.7008,706.995,706.995,710.7948,return,0.7904,,1.822916667,,,,,,FBP-PT-18.png,0.35,1.2,51,0.5,,,,,,,,,,,,,0,30,30,50,1,,,,,,,,,,,,,,,,,,,,,,,,,,,,
,,,,,SPR24_084,19,male,2024-04-24_09h01.02.681,jersey_experiment_5_v0,2023.2.2,Win32,84.03361345,,,,,,,,,,,,,,,,710.7951,711.8418,711.8419,713.3834,return,0.2043,,100,,,,,,FBP-OG-71.png,0.45,1.2,5,0.25,,,,,,,,,,,,,0,31,31,4,1,,,,,,,,,,,,,,,,,,,,,,,,,,,,
,,,,,SPR24_084,19,male,2024-04-24_09h01.02.681,jersey_experiment_5_v0,2023.2.2,Win32,84.03361345,,,,,,,,,,,,,,,,713.3835,714.4301,714.4302,718.1363,return,0.1796,,1.171875,,,,,,FBP-RB-17.png,0.35,1.2,31,0.25,,,,,,,,,,,,,0,32,32,30,1,,,,,,,,,,,,,,,,,,,,,,,,,,,,
,,,,,SPR24_084,19,male,2024-04-24_09h01.02.681,jersey_experiment_5_v0,2023.2.2,Win32,84.03361345,,,,,,,,,,,,,,,,718.1366,719.1833,719.1833,722.5246,return,0.3157,,10.02604167,,,,,,FBP-RB-17.png,0.37,1.2,32,0.25,,,,,,,,,,,,,0,33,33,31,1,,,,,,,,,,,,,,,,,,,,,,,,,,,,
,,,,,SPR24_084,19,male,2024-04-24_09h01.02.681,jersey_experiment_5_v0,2023.2.2,Win32,84.03361345,,,,,,,,,,,,,,,,722.5249,723.8188,723.8188,726.4424,return,0.2733,,99.609375,,,,,,FBP-YG-19.png,0.45,1.2,30,0.5,,,,,,,,,,,,,0,34,34,29,1,,,,,,,,,,,,,,,,,,,,,,,,,,,,
,,,,,SPR24_084,19,male,2024-04-24_09h01.02.681,jersey_experiment_5_v0,2023.2.2,Win32,84.03361345,,,,,,,,,,,,,,,,726.4425,727.4895,727.4895,728.1484,return,0.1246,,99.47916667,,,,,,FBP-RB-18.png,0.45,1.2,40,0.25,,,,,,,,,,,,,0,35,35,39,1,,,,,,,,,,,,,,,,,,,,,,,,,,,,
,,,,,SPR24_084,19,male,2024-04-24_09h01.02.681,jersey_experiment_5_v0,2023.2.2,Win32,84.03361345,,,,,,,,,,,,,,,,728.1487,729.4425,729.4425,730.1366,return,0.3066,,99.47916667,,,,,,FBP-YG-17.png,0.45,1.2,20,0.5,,,,,,,,,,,,,0,36,36,19,1,,,,,,,,,,,,,,,,,,,,,,,,,,,,
,,,,,SPR24_084,19,male,2024-04-24_09h01.02.681,jersey_experiment_5_v0,2023.2.2,Win32,84.03361345,,,,,,,,,,,,,,,,730.1369,731.1837,731.1838,732.631,return,0.1569,,20.703125,,,,,,FBP-OG-91.png,0.37,1.2,12,0.25,,,,,,,,,,,,,0,37,37,11,1,,,,,,,,,,,,,,,,,,,,,,,,,,,,
,,,,,SPR24_084,19,male,2024-04-24_09h01.02.681,jersey_experiment_5_v0,2023.2.2,Win32,84.03361345,,,,,,,,,,,,,,,,732.6314,733.6778,733.6778,734.7487,return,0.094,,15.36458333,,,,,,FBP-OG-71.png,0.4,1.2,3,0.25,,,,,,,,,,,,,0,38,38,2,1,,,,,,,,,,,,,,,,,,,,,,,,,,,,
,,,,,SPR24_084,19,male,2024-04-24_09h01.02.681,jersey_experiment_5_v0,2023.2.2,Win32,84.03361345,,,,,,,,,,,,,,,,734.7489,735.7956,735.7956,737.4192,return,0.1742,,0.651041667,,,,,,FBP-OG-81.png,0.35,1.2,6,0.25,,,,,,,,,,,,,0,39,39,5,1,,,,,,,,,,,,,,,,,,,,,,,,,,,,
,,,,,SPR24_084,19,male,2024-04-24_09h01.02.681,jersey_experiment_5_v0,2023.2.2,Win32,84.03361345,,,,,,,,,,,,,,,,737.4195,738.4664,738.4664,739.0312,return,0.049,,0.651041667,,,,,,FBP-OG-81.png,0.37,1.2,7,0.25,,,,,,,,,,,,,0,40,40,6,1,,,,,,,,,,,,,,,,,,,,,,,,,,,,
,,,,,SPR24_084,19,male,2024-04-24_09h01.02.681,jersey_experiment_5_v0,2023.2.2,Win32,84.03361345,,,,,,,,,,,,,,,,739.0314,740.3252,740.3252,740.7017,return,0.0702,,0.78125,,,,,,FBP-PT-17.png,0.37,1.2,47,0.5,,,,,,,,,,,,,0,41,41,46,1,,,,,,,,,,,,,,,,,,,,,,,,,,,,
,,,,,SPR24_084,19,male,2024-04-24_09h01.02.681,jersey_experiment_5_v0,2023.2.2,Win32,84.03361345,,,,,,,,,,,,,,,,740.702,741.7487,741.7488,743.4194,return,0.0943,,99.47916667,,,,,,FBP-RB-17.png,0.45,1.2,35,0.25,,,,,,,,,,,,,0,42,42,34,1,,,,,,,,,,,,,,,,,,,,,,,,,,,,
,,,,,SPR24_084,19,male,2024-04-24_09h01.02.681,jersey_experiment_5_v0,2023.2.2,Win32,84.03361345,,,,,,,,,,,,,,,,743.4197,744.7138,744.7138,746.69,return,0.2208,,0.390625,,,,,,FBP-YG-19.png,0.35,1.2,26,0.5,,,,,,,,,,,,,0,43,43,25,1,,,,,,,,,,,,,,,,,,,,,,,,,,,,
,,,,,SPR24_084,19,male,2024-04-24_09h01.02.681,jersey_experiment_5_v0,2023.2.2,Win32,84.03361345,,,,,,,,,,,,,,,,746.6902,747.7373,747.7373,749.4902,return,0.1832,,75.91145833,,,,,,FBP-OG-81.png,0.43,1.2,9,0.25,,,,,,,,,,,,,0,44,44,8,1,,,,,,,,,,,,,,,,,,,,,,,,,,,,
,,,,,SPR24_084,19,male,2024-04-24_09h01.02.681,jersey_experiment_5_v0,2023.2.2,Win32,84.03361345,,,,,,,,,,,,,,,,749.4904,750.7844,750.7845,752.0198,return,0.0665,,96.61458333,,,,,,FBP-YG-17.png,0.43,1.2,19,0.5,,,,,,,,,,,,,0,45,45,18,1,,,,,,,,,,,,,,,,,,,,,,,,,,,,
,,,,,SPR24_084,19,male,2024-04-24_09h01.02.681,jersey_experiment_5_v0,2023.2.2,Win32,84.03361345,,,,,,,,,,,,,,,,752.0201,753.067,753.067,754.8081,return,0.1913,,16.015625,,,,,,FBP-RB-19.png,0.35,1.2,41,0.25,,,,,,,,,,,,,0,46,46,40,1,,,,,,,,,,,,,,,,,,,,,,,,,,,,
,,,,,SPR24_084,19,male,2024-04-24_09h01.02.681,jersey_experiment_5_v0,2023.2.2,Win32,84.03361345,,,,,,,,,,,,,,,,754.8084,755.8553,755.8553,758.1847,return,0.179,,98.69791667,,,,,,FBP-RB-19.png,0.4,1.2,43,0.25,,,,,,,,,,,,,0,47,47,42,1,,,,,,,,,,,,,,,,,,,,,,,,,,,,
,,,,,SPR24_084,19,male,2024-04-24_09h01.02.681,jersey_experiment_5_v0,2023.2.2,Win32,84.03361345,,,,,,,,,,,,,,,,758.1849,759.2319,759.2319,761.3025,return,0.791,,75.26041667,,,,,,FBP-OG-91.png,0.4,1.2,13,0.25,,,,,,,,,,,,,0,48,48,12,1,,,,,,,,,,,,,,,,,,,,,,,,,,,,
,,,,,SPR24_084,19,male,2024-04-24_09h01.02.681,jersey_experiment_5_v0,2023.2.2,Win32,84.03361345,,,,,,,,,,,,,,,,761.3028,762.3496,762.3496,763.6908,return,0.5649,,74.86979167,,,,,,FBP-OG-81.png,0.4,1.2,8,0.25,,,,,,,,,,,,,0,49,49,7,1,,,,,,,,,,,,,,,,,,,,,,,,,,,,
,,,,,SPR24_084,19,male,2024-04-24_09h01.02.681,jersey_experiment_5_v0,2023.2.2,Win32,84.03361345,,,,,,,,,,,,,,,,763.691,764.985,764.985,766.0202,return,0.019,,94.40104167,,,,,,FBP-YG-18.png,0.43,1.2,24,0.5,,,,,,,,,,,,,0,50,50,23,1,,,,,,,,,,,,,,,,,,,,,,,,,,,,
,,,,,SPR24_084,19,male,2024-04-24_09h01.02.681,jersey_experiment_5_v0,2023.2.2,Win32,84.03361345,,,,,,,,,,,,,,,,766.0203,767.3146,767.3146,768.2674,return,0.1414,,99.73958333,,,,,,FBP-YG-19.png,0.43,1.2,29,0.5,,,,,,,,,,,,,0,51,51,28,1,,,,,,,,,,,,,,,,,,,,,,,,,,,,
,,,,,SPR24_084,19,male,2024-04-24_09h01.02.681,jersey_experiment_5_v0,2023.2.2,Win32,84.03361345,,,,,,,,,,,,,,,,768.2676,769.3144,769.3145,771.4794,return,0.3686,,88.671875,,,,,,FBP-OG-71.png,0.43,1.2,4,0.25,,,,,,,,,,,,,0,52,52,3,1,,,,,,,,,,,,,,,,,,,,,,,,,,,,
,,,,,SPR24_084,19,male,2024-04-24_09h01.02.681,jersey_experiment_5_v0,2023.2.2,Win32,84.03361345,,,,,,,,,,,,,,,,771.4797,772.5263,772.5263,773.9971,return,0.0005,,50.13020833,,,,,,FBP-OG-71.png,0.35,1.2,1,0.25,,,,,,,,,,,,,0,53,53,0,1,,,,,,,,,,,,,,,,,,,,,,,,,,,,
,,,,,SPR24_084,19,male,2024-04-24_09h01.02.681,jersey_experiment_5_v0,2023.2.2,Win32,84.03361345,,,,,,,,,,,,,,,,773.9972,775.044,775.0441,776.55,return,0.8381,,57.8125,,,,,,FBP-RB-19.png,0.37,1.2,42,0.25,,,,,,,,,,,,,0,54,54,41,1,,,,,,,,,,,,,,,,,,,,,,,,,,,,
,,,,,SPR24_084,19,male,2024-04-24_09h01.02.681,jersey_experiment_5_v0,2023.2.2,Win32,84.03361345,,,,,,,,,,,,,,,,776.5503,777.8441,777.8441,778.7619,return,0.0007,,66.53645833,,,,,,FBP-YG-19.png,0.4,1.2,28,0.5,,,,,,,,,,,,,0,55,55,27,1,,,,,,,,,,,,,,,,,,,,,,,,,,,,
,,,,,SPR24_084,19,male,2024-04-24_09h01.02.681,jersey_experiment_5_v0,2023.2.2,Win32,84.03361345,,,,,,,,,,,,,,,,778.7621,780.0561,780.0561,781.4444,return,0.0873,,87.109375,,,,,,FBP-YG-18.png,0.45,1.2,25,0.5,,,,,,,,,,,,,0,56,56,24,1,,,,,,,,,,,,,,,,,,,,,,,,,,,,
,,,,,SPR24_084,19,male,2024-04-24_09h01.02.681,jersey_experiment_5_v0,2023.2.2,Win32,84.03361345,,,,,,,,,,,,,,,,781.4446,782.7383,782.7383,783.6447,return,0.0478,,92.44791667,,,,,,FBP-PT-18.png,0.43,1.2,54,0.5,,,,,,,,,,,,,0,57,57,53,1,,,,,,,,,,,,,,,,,,,,,,,,,,,,
,,,,,SPR24_084,19,male,2024-04-24_09h01.02.681,jersey_experiment_5_v0,2023.2.2,Win32,84.03361345,,,,,,,,,,,,,,,,783.6448,784.9386,784.9387,787.5975,return,0.0702,,58.984375,,,,,,FBP-YG-17.png,0.37,1.2,17,0.5,,,,,,,,,,,,,0,58,58,16,1,,,,,,,,,,,,,,,,,,,,,,,,,,,,
,,,,,SPR24_084,19,male,2024-04-24_09h01.02.681,jersey_experiment_5_v0,2023.2.2,Win32,84.03361345,,,,,,,,,,,,,,,,787.5977,788.8917,788.8917,790.3386,return,0.0411,,74.08854167,,,,,,FBP-PT-18.png,0.4,1.2,53,0.5,,,,,,,,,,,,,0,59,59,52,1,,,,,,,,,,,,,,,,,,,,,,,,,,,,
,,,,,SPR24_084,19,male,2024-04-24_09h01.02.681,jersey_experiment_5_v0,2023.2.2,Win32,84.03361345,,,,,,,,,,,,,,,,790.3406,791.3859,791.386,793.0918,return,0.2895,,98.56770833,,,,,,FBP-RB-91.png,0.43,1.2,44,0.25,,,,,,,,,,,,,,,,,,0,0,0,43,1,,,,,,,,,,,,,,,,,,,,,,,
,,,,,SPR24_084,19,male,2024-04-24_09h01.02.681,jersey_experiment_5_v0,2023.2.2,Win32,84.03361345,,,,,,,,,,,,,,,,793.0922,794.3859,794.3859,794.9155,return,0.076,,98.17708333,,,,,,FBP-YG-71.png,0.43,1.2,19,0.5,,,,,,,,,,,,,,,,,,0,1,1,18,1,,,,,,,,,,,,,,,,,,,,,,,
,,,,,SPR24_084,19,male,2024-04-24_09h01.02.681,jersey_experiment_5_v0,2023.2.2,Win32,84.03361345,,,,,,,,,,,,,,,,794.9157,795.9624,795.9624,799.3157,return,0.0992,,71.74479167,,,,,,FBP-RB-91.png,0.37,1.2,42,0.25,,,,,,,,,,,,,,,,,,0,2,2,41,1,,,,,,,,,,,,,,,,,,,,,,,
,,,,,SPR24_084,19,male,2024-04-24_09h01.02.681,jersey_experiment_5_v0,2023.2.2,Win32,84.03361345,,,,,,,,,,,,,,,,799.3159,800.3626,800.3626,802.6452,return,0.5236,,50,,,,,,FBP-OG-17.png,0.35,1.2,1,0.25,,,,,,,,,,,,,,,,,,0,3,3,0,1,,,,,,,,,,,,,,,,,,,,,,,
,,,,,SPR24_084,19,male,2024-04-24_09h01.02.681,jersey_experiment_5_v0,2023.2.2,Win32,84.03361345,,,,,,,,,,,,,,,,802.6453,803.9393,803.9393,804.4451,return,0.1175,,49.73958333,,,,,,FBP-PT-71.png,0.37,1.2,47,0.5,,,,,,,,,,,,,,,,,,0,4,4,46,1,,,,,,,,,,,,,,,,,,,,,,,
,,,,,SPR24_084,19,male,2024-04-24_09h01.02.681,jersey_experiment_5_v0,2023.2.2,Win32,84.03361345,,,,,,,,,,,,,,,,804.4454,805.4922,805.4922,807.4453,return,0.2505,,100,,,,,,FBP-RB-81.png,0.45,1.2,40,0.25,,,,,,,,,,,,,,,,,,0,5,5,39,1,,,,,,,,,,,,,,,,,,,,,,,
,,,,,SPR24_084,19,male,2024-04-24_09h01.02.681,jersey_experiment_5_v0,2023.2.2,Win32,84.03361345,,,,,,,,,,,,,,,,807.4454,808.4923,808.4924,810.363,return,0.1884,,99.86979167,,,,,,FBP-OG-17.png,0.45,1.2,5,0.25,,,,,,,,,,,,,,,,,,0,6,6,4,1,,,,,,,,,,,,,,,,,,,,,,,
,,,,,SPR24_084,19,male,2024-04-24_09h01.02.681,jersey_experiment_5_v0,2023.2.2,Win32,84.03361345,,,,,,,,,,,,,,,,810.3632,811.41,811.4101,811.9865,return,0.0789,,99.86979167,,,,,,FBP-RB-81.png,0.43,1.2,39,0.25,,,,,,,,,,,,,,,,,,0,7,7,38,1,,,,,,,,,,,,,,,,,,,,,,,
,,,,,SPR24_084,19,male,2024-04-24_09h01.02.681,jersey_experiment_5_v0,2023.2.2,Win32,84.03361345,,,,,,,,,,,,,,,,811.9868,813.2807,813.2807,813.6456,return,0.1556,,99.73958333,,,,,,FBP-PT-91.png,0.43,1.2,59,0.5,,,,,,,,,,,,,,,,,,0,8,8,58,1,,,,,,,,,,,,,,,,,,,,,,,
,,,,,SPR24_084,19,male,2024-04-24_09h01.02.681,jersey_experiment_5_v0,2023.2.2,Win32,84.03361345,,,,,,,,,,,,,,,,813.6459,814.9399,814.9399,816.5515,return,0.2861,,73.30729167,,,,,,FBP-PT-91.png,0.4,1.2,58,0.5,,,,,,,,,,,,,,,,,,0,9,9,57,1,,,,,,,,,,,,,,,,,,,,,,,
,,,,,SPR24_084,19,male,2024-04-24_09h01.02.681,jersey_experiment_5_v0,2023.2.2,Win32,84.03361345,,,,,,,,,,,,,,,,816.5517,817.8455,817.8456,821.3635,return,2.2167,,5.208333333,,,,,,FBP-PT-91.png,0.35,1.2,56,0.5,,,,,,,,,,,,,,,,,,0,10,10,55,1,,,,,,,,,,,,,,,,,,,,,,,
,,,,,SPR24_084,19,male,2024-04-24_09h01.02.681,jersey_experiment_5_v0,2023.2.2,Win32,84.03361345,,,,,,,,,,,,,,,,821.3638,822.6575,822.6576,824.7165,return,0.2115,,20.57291667,,,,,,FBP-PT-81.png,0.35,1.2,51,0.5,,,,,,,,,,,,,,,,,,0,11,11,50,1,,,,,,,,,,,,,,,,,,,,,,,
,,,,,SPR24_084,19,male,2024-04-24_09h01.02.681,jersey_experiment_5_v0,2023.2.2,Win32,84.03361345,,,,,,,,,,,,,,,,824.7166,825.7635,825.7635,828.0577,return,0.223,,99.609375,,,,,,FBP-RB-81.png,0.4,1.2,38,0.25,,,,,,,,,,,,,,,,,,0,12,12,37,1,,,,,,,,,,,,,,,,,,,,,,,
,,,,,SPR24_084,19,male,2024-04-24_09h01.02.681,jersey_experiment_5_v0,2023.2.2,Win32,84.03361345,,,,,,,,,,,,,,,,828.058,829.352,829.352,831.1285,return,0.2497,,0.130208333,,,,,,FBP-YG-91.png,0.35,1.2,26,0.5,,,,,,,,,,,,,,,,,,0,13,13,25,1,,,,,,,,,,,,,,,,,,,,,,,
,,,,,SPR24_084,19,male,2024-04-24_09h01.02.681,jersey_experiment_5_v0,2023.2.2,Win32,84.03361345,,,,,,,,,,,,,,,,831.1288,832.1756,832.1756,833.799,return,0.0983,,97.65625,,,,,,FBP-RB-71.png,0.4,1.2,33,0.25,,,,,,,,,,,,,,,,,,0,14,14,32,1,,,,,,,,,,,,,,,,,,,,,,,
,,,,,SPR24_084,19,male,2024-04-24_09h01.02.681,jersey_experiment_5_v0,2023.2.2,Win32,84.03361345,,,,,,,,,,,,,,,,833.7993,834.8463,834.8463,835.9169,return,0.1881,,98.69791667,,,,,,FBP-OG-19.png,0.45,1.2,15,0.25,,,,,,,,,,,,,,,,,,0,15,15,14,1,,,,,,,,,,,,,,,,,,,,,,,
,,,,,SPR24_084,19,male,2024-04-24_09h01.02.681,jersey_experiment_5_v0,2023.2.2,Win32,84.03361345,,,,,,,,,,,,,,,,835.9171,837.2108,837.2109,839.0818,return,0.4151,,47.65625,,,,,,FBP-PT-91.png,0.37,1.2,57,0.5,,,,,,,,,,,,,,,,,,0,16,16,56,1,,,,,,,,,,,,,,,,,,,,,,,
,,,,,SPR24_084,19,male,2024-04-24_09h01.02.681,jersey_experiment_5_v0,2023.2.2,Win32,84.03361345,,,,,,,,,,,,,,,,839.082,840.1286,840.1288,842.2582,return,0.1952,,76.69270833,,,,,,FBP-OG-18.png,0.43,1.2,9,0.25,,,,,,,,,,,,,,,,,,0,17,17,8,1,,,,,,,,,,,,,,,,,,,,,,,
,,,,,SPR24_084,19,male,2024-04-24_09h01.02.681,jersey_experiment_5_v0,2023.2.2,Win32,84.03361345,,,,,,,,,,,,,,,,842.2585,843.5523,843.5524,844.9524,return,0.1298,,20.96354167,,,,,,FBP-YG-91.png,0.37,1.2,27,0.5,,,,,,,,,,,,,,,,,,0,18,18,26,1,,,,,,,,,,,,,,,,,,,,,,,
,,,,,SPR24_084,19,male,2024-04-24_09h01.02.681,jersey_experiment_5_v0,2023.2.2,Win32,84.03361345,,,,,,,,,,,,,,,,844.9526,845.9996,845.9996,848.2351,return,0.2264,,98.56770833,,,,,,FBP-RB-91.png,0.45,1.2,45,0.25,,,,,,,,,,,,,,,,,,0,19,19,44,1,,,,,,,,,,,,,,,,,,,,,,,
,,,,,SPR24_084,19,male,2024-04-24_09h01.02.681,jersey_experiment_5_v0,2023.2.2,Win32,84.03361345,,,,,,,,,,,,,,,,848.2353,849.5291,849.5291,851.0585,return,0.1145,,76.82291667,,,,,,FBP-PT-71.png,0.4,1.2,48,0.5,,,,,,,,,,,,,,,,,,0,20,20,47,1,,,,,,,,,,,,,,,,,,,,,,,
,,,,,SPR24_084,19,male,2024-04-24_09h01.02.681,jersey_experiment_5_v0,2023.2.2,Win32,84.03361345,,,,,,,,,,,,,,,,851.0588,852.3528,852.3528,853.6351,return,0.1252,,22.265625,,,,,,FBP-YG-71.png,0.35,1.2,16,0.5,,,,,,,,,,,,,,,,,,0,21,21,15,1,,,,,,,,,,,,,,,,,,,,,,,
,,,,,SPR24_084,19,male,2024-04-24_09h01.02.681,jersey_experiment_5_v0,2023.2.2,Win32,84.03361345,,,,,,,,,,,,,,,,853.6354,854.929,854.9291,856.0115,return,0.0091,,77.34375,,,,,,FBP-PT-81.png,0.43,1.2,54,0.5,,,,,,,,,,,,,,,,,,0,22,22,53,1,,,,,,,,,,,,,,,,,,,,,,,
,,,,,SPR24_084,19,male,2024-04-24_09h01.02.681,jersey_experiment_5_v0,2023.2.2,Win32,84.03361345,,,,,,,,,,,,,,,,856.0117,857.3057,857.3058,858.2941,return,0.203,,97.265625,,,,,,FBP-YG-71.png,0.45,1.2,20,0.5,,,,,,,,,,,,,,,,,,0,23,23,19,1,,,,,,,,,,,,,,,,,,,,,,,
,,,,,SPR24_084,19,male,2024-04-24_09h01.02.681,jersey_experiment_5_v0,2023.2.2,Win32,84.03361345,,,,,,,,,,,,,,,,858.2942,859.3412,859.3412,860.7059,return,0.1956,,99.86979167,,,,,,FBP-OG-19.png,0.43,1.2,14,0.25,,,,,,,,,,,,,,,,,,0,24,24,13,1,,,,,,,,,,,,,,,,,,,,,,,
,,,,,SPR24_084,19,male,2024-04-24_09h01.02.681,jersey_experiment_5_v0,2023.2.2,Win32,84.03361345,,,,,,,,,,,,,,,,860.7061,861.7529,861.7529,862.4236,return,0.0712,,99.86979167,,,,,,FBP-OG-18.png,0.45,1.2,10,0.25,,,,,,,,,,,,,,,,,,0,25,25,9,1,,,,,,,,,,,,,,,,,,,,,,,
,,,,,SPR24_084,19,male,2024-04-24_09h01.02.681,jersey_experiment_5_v0,2023.2.2,Win32,84.03361345,,,,,,,,,,,,,,,,862.4238,863.7178,863.7178,864.2473,return,0.1683,,99.86979167,,,,,,FBP-YG-81.png,0.4,1.2,23,0.5,,,,,,,,,,,,,,,,,,0,26,26,22,1,,,,,,,,,,,,,,,,,,,,,,,
,,,,,SPR24_084,19,male,2024-04-24_09h01.02.681,jersey_experiment_5_v0,2023.2.2,Win32,84.03361345,,,,,,,,,,,,,,,,864.2476,865.5414,865.5415,865.9414,return,0.062,,99.86979167,,,,,,FBP-PT-71.png,0.43,1.2,49,0.5,,,,,,,,,,,,,,,,,,0,27,27,48,1,,,,,,,,,,,,,,,,,,,,,,,
,,,,,SPR24_084,19,male,2024-04-24_09h01.02.681,jersey_experiment_5_v0,2023.2.2,Win32,84.03361345,,,,,,,,,,,,,,,,865.9416,866.9885,866.9885,868.2356,return,0.0852,,71.74479167,,,,,,FBP-OG-19.png,0.4,1.2,13,0.25,,,,,,,,,,,,,,,,,,0,28,28,12,1,,,,,,,,,,,,,,,,,,,,,,,
,,,,,SPR24_084,19,male,2024-04-24_09h01.02.681,jersey_experiment_5_v0,2023.2.2,Win32,84.03361345,,,,,,,,,,,,,,,,868.2358,869.2827,869.2827,870.3769,return,0.0375,,79.94791667,,,,,,FBP-OG-17.png,0.4,1.2,3,0.25,,,,,,,,,,,,,,,,,,0,29,29,2,1,,,,,,,,,,,,,,,,,,,,,,,
,,,,,SPR24_084,19,male,2024-04-24_09h01.02.681,jersey_experiment_5_v0,2023.2.2,Win32,84.03361345,,,,,,,,,,,,,,,,870.3772,871.6711,871.6711,874.1888,return,0.0941,,2.734375,,,,,,FBP-YG-81.png,0.35,1.2,21,0.5,,,,,,,,,,,,,,,,,,0,30,30,20,1,,,,,,,,,,,,,,,,,,,,,,,
,,,,,SPR24_084,19,male,2024-04-24_09h01.02.681,jersey_experiment_5_v0,2023.2.2,Win32,84.03361345,,,,,,,,,,,,,,,,874.1891,875.2358,875.2359,876.8124,return,0.0472,,28.77604167,,,,,,FBP-RB-71.png,0.37,1.2,32,0.25,,,,,,,,,,,,,,,,,,0,31,31,31,1,,,,,,,,,,,,,,,,,,,,,,,
,,,,,SPR24_084,19,male,2024-04-24_09h01.02.681,jersey_experiment_5_v0,2023.2.2,Win32,84.03361345,,,,,,,,,,,,,,,,876.8126,877.8596,877.8596,879.4478,return,0.0271,,37.36979167,,,,,,FBP-RB-91.png,0.35,1.2,41,0.25,,,,,,,,,,,,,,,,,,0,32,32,40,1,,,,,,,,,,,,,,,,,,,,,,,
,,,,,SPR24_084,19,male,2024-04-24_09h01.02.681,jersey_experiment_5_v0,2023.2.2,Win32,84.03361345,,,,,,,,,,,,,,,,879.448,880.4949,880.495,881.9303,return,0.2256,,98.828125,,,,,,FBP-RB-71.png,0.45,1.2,35,0.25,,,,,,,,,,,,,,,,,,0,33,33,34,1,,,,,,,,,,,,,,,,,,,,,,,
,,,,,SPR24_084,19,male,2024-04-24_09h01.02.681,jersey_experiment_5_v0,2023.2.2,Win32,84.03361345,,,,,,,,,,,,,,,,881.9305,883.2245,883.2245,884.4597,return,0.0565,,83.33333333,,,,,,FBP-PT-81.png,0.4,1.2,53,0.5,,,,,,,,,,,,,,,,,,0,34,34,52,1,,,,,,,,,,,,,,,,,,,,,,,
,,,,,SPR24_084,19,male,2024-04-24_09h01.02.681,jersey_experiment_5_v0,2023.2.2,Win32,84.03361345,,,,,,,,,,,,,,,,884.4599,885.7539,885.7539,887.1775,return,0.6029,,98.30729167,,,,,,FBP-YG-91.png,0.43,1.2,29,0.5,,,,,,,,,,,,,,,,,,0,35,35,28,1,,,,,,,,,,,,,,,,,,,,,,,
,,,,,SPR24_084,19,male,2024-04-24_09h01.02.681,jersey_experiment_5_v0,2023.2.2,Win32,84.03361345,,,,,,,,,,,,,,,,887.1777,888.2246,888.2246,890.507,return,0.6118,,58.203125,,,,,,FBP-OG-18.png,0.35,1.2,6,0.25,,,,,,,,,,,,,,,,,,0,36,36,5,1,,,,,,,,,,,,,,,,,,,,,,,
,,,,,SPR24_084,19,male,2024-04-24_09h01.02.681,jersey_experiment_5_v0,2023.2.2,Win32,84.03361345,,,,,,,,,,,,,,,,890.5072,891.8014,891.8014,892.8247,return,0.2259,,98.56770833,,,,,,FBP-YG-81.png,0.45,1.2,25,0.5,,,,,,,,,,,,,,,,,,0,37,37,24,1,,,,,,,,,,,,,,,,,,,,,,,
,,,,,SPR24_084,19,male,2024-04-24_09h01.02.681,jersey_experiment_5_v0,2023.2.2,Win32,84.03361345,,,,,,,,,,,,,,,,892.825,894.119,894.119,895.7661,return,0.121,,72.39583333,,,,,,FBP-YG-71.png,0.37,1.2,17,0.5,,,,,,,,,,,,,,,,,,0,38,38,16,1,,,,,,,,,,,,,,,,,,,,,,,
,,,,,SPR24_084,19,male,2024-04-24_09h01.02.681,jersey_experiment_5_v0,2023.2.2,Win32,84.03361345,,,,,,,,,,,,,,,,895.7663,897.0603,897.0604,898.2014,return,0.1895,,98.56770833,,,,,,FBP-YG-81.png,0.43,1.2,24,0.5,,,,,,,,,,,,,,,,,,0,39,39,23,1,,,,,,,,,,,,,,,,,,,,,,,
,,,,,SPR24_084,19,male,2024-04-24_09h01.02.681,jersey_experiment_5_v0,2023.2.2,Win32,84.03361345,,,,,,,,,,,,,,,,898.2016,899.2486,899.2486,900.6132,return,0.0882,,84.375,,,,,,FBP-RB-91.png,0.4,1.2,43,0.25,,,,,,,,,,,,,,,,,,0,40,40,42,1,,,,,,,,,,,,,,,,,,,,,,,
,,,,,SPR24_084,19,male,2024-04-24_09h01.02.681,jersey_experiment_5_v0,2023.2.2,Win32,84.03361345,,,,,,,,,,,,,,,,900.6134,901.9073,901.9075,902.7427,return,0.1313,,100,,,,,,FBP-YG-91.png,0.45,1.2,30,0.5,,,,,,,,,,,,,,,,,,0,41,41,29,1,,,,,,,,,,,,,,,,,,,,,,,
,,,,,SPR24_084,19,male,2024-04-24_09h01.02.681,jersey_experiment_5_v0,2023.2.2,Win32,84.03361345,,,,,,,,,,,,,,,,902.7429,904.0369,904.0369,904.8252,return,0.2024,,98.4375,,,,,,FBP-PT-91.png,0.45,1.2,60,0.5,,,,,,,,,,,,,,,,,,0,42,42,59,1,,,,,,,,,,,,,,,,,,,,,,,
,,,,,SPR24_084,19,male,2024-04-24_09h01.02.681,jersey_experiment_5_v0,2023.2.2,Win32,84.03361345,,,,,,,,,,,,,,,,904.8254,905.8723,905.8723,906.5076,return,0.0938,,98.4375,,,,,,FBP-RB-71.png,0.43,1.2,34,0.25,,,,,,,,,,,,,,,,,,0,43,43,33,1,,,,,,,,,,,,,,,,,,,,,,,
,,,,,SPR24_084,19,male,2024-04-24_09h01.02.681,jersey_experiment_5_v0,2023.2.2,Win32,84.03361345,,,,,,,,,,,,,,,,906.5078,907.5548,907.5549,909.1429,return,0.1308,,70.703125,,,,,,FBP-RB-81.png,0.37,1.2,37,0.25,,,,,,,,,,,,,,,,,,0,44,44,36,1,,,,,,,,,,,,,,,,,,,,,,,
,,,,,SPR24_084,19,male,2024-04-24_09h01.02.681,jersey_experiment_5_v0,2023.2.2,Win32,84.03361345,,,,,,,,,,,,,,,,909.1431,910.1901,910.1901,910.9665,return,0.0486,,74.609375,,,,,,FBP-RB-81.png,0.35,1.2,36,0.25,,,,,,,,,,,,,,,,,,0,45,45,35,1,,,,,,,,,,,,,,,,,,,,,,,
,,,,,SPR24_084,19,male,2024-04-24_09h01.02.681,jersey_experiment_5_v0,2023.2.2,Win32,84.03361345,,,,,,,,,,,,,,,,910.9667,912.2607,912.2607,912.8018,return,0.1004,,74.609375,,,,,,FBP-PT-81.png,0.37,1.2,52,0.5,,,,,,,,,,,,,,,,,,0,46,46,51,1,,,,,,,,,,,,,,,,,,,,,,,
,,,,,SPR24_084,19,male,2024-04-24_09h01.02.681,jersey_experiment_5_v0,2023.2.2,Win32,84.03361345,,,,,,,,,,,,,,,,912.8021,913.8489,913.8489,914.7314,return,0.1087,,74.609375,,,,,,FBP-OG-18.png,0.4,1.2,8,0.25,,,,,,,,,,,,,,,,,,0,47,47,7,1,,,,,,,,,,,,,,,,,,,,,,,
,,,,,SPR24_084,19,male,2024-04-24_09h01.02.681,jersey_experiment_5_v0,2023.2.2,Win32,84.03361345,,,,,,,,,,,,,,,,914.7316,916.0256,916.0256,918.2021,return,0.6593,,59.375,,,,,,FBP-YG-81.png,0.37,1.2,22,0.5,,,,,,,,,,,,,,,,,,0,48,48,21,1,,,,,,,,,,,,,,,,,,,,,,,
,,,,,SPR24_084,19,male,2024-04-24_09h01.02.681,jersey_experiment_5_v0,2023.2.2,Win32,84.03361345,,,,,,,,,,,,,,,,918.2022,919.2491,919.2491,919.9432,return,0.0602,,59.375,,,,,,FBP-OG-19.png,0.37,1.2,12,0.25,,,,,,,,,,,,,,,,,,0,49,49,11,1,,,,,,,,,,,,,,,,,,,,,,,
,,,,,SPR24_084,19,male,2024-04-24_09h01.02.681,jersey_experiment_5_v0,2023.2.2,Win32,84.03361345,,,,,,,,,,,,,,,,919.9434,921.2375,921.2375,923.2847,return,1.0035,,99.86979167,,,,,,FBP-PT-71.png,0.45,1.2,50,0.5,,,,,,,,,,,,,,,,,,0,50,50,49,1,,,,,,,,,,,,,,,,,,,,,,,
,,,,,SPR24_084,19,male,2024-04-24_09h01.02.681,jersey_experiment_5_v0,2023.2.2,Win32,84.03361345,,,,,,,,,,,,,,,,923.2849,924.3317,924.3318,927.7319,return,0.0165,,44.40104167,,,,,,FBP-OG-17.png,0.37,1.2,2,0.25,,,,,,,,,,,,,,,,,,0,51,51,1,1,,,,,,,,,,,,,,,,,,,,,,,
,,,,,SPR24_084,19,male,2024-04-24_09h01.02.681,jersey_experiment_5_v0,2023.2.2,Win32,84.03361345,,,,,,,,,,,,,,,,927.7321,929.026,929.026,930.7437,return,0.4029,,89.19270833,,,,,,FBP-PT-81.png,0.45,1.2,55,0.5,,,,,,,,,,,,,,,,,,0,52,52,54,1,,,,,,,,,,,,,,,,,,,,,,,
,,,,,SPR24_084,19,male,2024-04-24_09h01.02.681,jersey_experiment_5_v0,2023.2.2,Win32,84.03361345,,,,,,,,,,,,,,,,930.7439,932.038,932.038,933.332,return,0.4638,,86.84895833,,,,,,FBP-YG-91.png,0.4,1.2,28,0.5,,,,,,,,,,,,,,,,,,0,53,53,27,1,,,,,,,,,,,,,,,,,,,,,,,
,,,,,SPR24_084,19,male,2024-04-24_09h01.02.681,jersey_experiment_5_v0,2023.2.2,Win32,84.03361345,,,,,,,,,,,,,,,,933.3323,934.3792,934.3792,937.0852,return,0.0145,,40.49479167,,,,,,FBP-OG-19.png,0.35,1.2,11,0.25,,,,,,,,,,,,,,,,,,0,54,54,10,1,,,,,,,,,,,,,,,,,,,,,,,
,,,,,SPR24_084,19,male,2024-04-24_09h01.02.681,jersey_experiment_5_v0,2023.2.2,Win32,84.03361345,,,,,,,,,,,,,,,,937.0853,938.1321,938.1322,940.2029,return,0.5178,,39.71354167,,,,,,FBP-RB-71.png,0.35,1.2,31,0.25,,,,,,,,,,,,,,,,,,0,55,55,30,1,,,,,,,,,,,,,,,,,,,,,,,
,,,,,SPR24_084,19,male,2024-04-24_09h01.02.681,jersey_experiment_5_v0,2023.2.2,Win32,84.03361345,,,,,,,,,,,,,,,,940.2031,941.2499,941.2499,942.3441,return,0.1204,,42.70833333,,,,,,FBP-OG-18.png,0.37,1.2,7,0.25,,,,,,,,,,,,,,,,,,0,56,56,6,1,,,,,,,,,,,,,,,,,,,,,,,
,,,,,SPR24_084,19,male,2024-04-24_09h01.02.681,jersey_experiment_5_v0,2023.2.2,Win32,84.03361345,,,,,,,,,,,,,,,,942.3443,943.6384,943.6385,944.709,return,0.0033,,74.609375,,,,,,FBP-YG-71.png,0.4,1.2,18,0.5,,,,,,,,,,,,,,,,,,0,57,57,17,1,,,,,,,,,,,,,,,,,,,,,,,
,,,,,SPR24_084,19,male,2024-04-24_09h01.02.681,jersey_experiment_5_v0,2023.2.2,Win32,84.03361345,,,,,,,,,,,,,,,,944.7092,945.7559,945.7559,947.1914,return,0.3094,,96.61458333,,,,,,FBP-OG-17.png,0.43,1.2,4,0.25,,,,,,,,,,,,,,,,,,0,58,58,3,1,,,,,,,,,,,,,,,,,,,,,,,
,,,,,SPR24_084,19,male,2024-04-24_09h01.02.681,jersey_experiment_5_v0,2023.2.2,Win32,84.03361345,,,,,,,,,,,,,,,,947.1916,948.4855,948.4856,951.2855,return,0.7344,,25.78125,,,,,,FBP-PT-71.png,0.35,1.2,46,0.5,,,,,,,,,,,,,,,,,,0,59,59,45,1,,,,,,,,,,,,,,,,,,,,,,,
,,,,,SPR24_084,19,male,2024-04-24_09h01.02.681,jersey_experiment_5_v0,2023.2.2,Win32,84.03361345,,,,,,,,,,,,,,,,,,,,,,,,,,,,,,,,,,,,,,,,,,,,,,,,,,,,,,,,951.286,958.3097,return,7.0149,,,,,,,,,,,,,,,,,,,
,,,,,SPR24_084,19,male,2024-04-24_09h01.02.681,jersey_experiment_5_v0,2023.2.2,Win32,84.03361345,,,,,,,,,,,,,,,,,,,,,,,,,,,,,,,,,,,,,,,,,,,,,,,,,,,,,,,,,,,,,958.3098,964.5217,1,3.6235,return,2.5638,,,,,,,,,,,,
,,,,,SPR24_084,19,male,2024-04-24_09h01.02.681,jersey_experiment_5_v0,2023.2.2,Win32,84.03361345,,,,,,,,,,,,,,,,,,,,,,,,,,,,,,,,,,,,,,,,,,,,,,,,,,,,,,,,,,,,,,,,,,,,964.5262,1045.4706,Detecting stimuli size maybe. Some patterns that I recognized was that the same football player size was repeated multiple times sometimes to maybe trick me and see if I change my answer.,right,74.1335,,,,,,
,,,,,SPR24_084,19,male,2024-04-24_09h01.02.681,jersey_experiment_5_v0,2023.2.2,Win32,84.03361345,,,,,,,,,,,,,,,,,,,,,,,,,,,,,,,,,,,,,,,,,,,,,,,,,,,,,,,,,,,,,,,,,,,,,,,,,,1045.4707,1048.395,return,2.9109,