requirements.started,requirements.stopped,key_resp_3.keys,key_resp_3.rt,key_resp_3.duration,Subject ID,Age,Gender,date,expName,psychopyVersion,OS,frameRate,instructions1.started,instructions1.stopped,key_resp.keys,key_resp.rt,key_resp.duration,example.started,example.stopped,enter_2.keys,enter_2.rt,enter_2.duration,instructions2.started,instructions2.stopped,enter_3.keys,enter_3.rt,enter_3.duration,image.started,image.stopped,slider_2.started,slider_2.stopped,next.keys,next.rt,next.duration,slider.response,trial_block_1.thisRepN,trial_block_1.thisTrialN,trial_block_1.thisN,trial_block_1.thisIndex,trial_block_1.ran,Path,Width,Height,Index,Duration,trial_block_2.thisRepN,trial_block_2.thisTrialN,trial_block_2.thisN,trial_block_2.thisIndex,trial_block_2.ran,rest_break.started,rest_break.stopped,end_break.started,end_break.stopped,key_resp_5.keys,key_resp_5.rt,key_resp_5.duration,trial_block_3.thisRepN,trial_block_3.thisTrialN,trial_block_3.thisN,trial_block_3.thisIndex,trial_block_3.ran,trial_block_4.thisRepN,trial_block_4.thisTrialN,trial_block_4.thisN,trial_block_4.thisIndex,trial_block_4.ran,questions_intro.started,questions_intro.stopped,enter_12.keys,enter_12.rt,enter_12.duration,question2.started,question2.stopped,question_doingbest.response,question_doingbest.rt,enter_15.keys,enter_15.rt,enter_15.duration,pattern.started,pattern.stopped,pattern_2.text,enter_17.keys,enter_17.rt,enter_17.duration,thankyou.started,thankyou.stopped,enter_14.keys,enter_14.rt,enter_14.duration
0.0001,23.5184,return,23.5091,,SPR24_086,22,Female,2024-04-24_12h36.22.282,jersey_experiment_5_v0,2023.2.2,Win32,84.74576271,,,,,,,,,,,,,,,,,,,,,,,,,,,,,,,,,,,,,,,,,,,,,,,,,,,,,,,,,,,,,,,,,,,,,,,,,,,,,,
,,,,,SPR24_086,22,Female,2024-04-24_12h36.22.282,jersey_experiment_5_v0,2023.2.2,Win32,84.74576271,23.5185,37.0835,return,13.5436,,,,,,,,,,,,,,,,,,,,,,,,,,,,,,,,,,,,,,,,,,,,,,,,,,,,,,,,,,,,,,,,,,,,,,,,,,
,,,,,SPR24_086,22,Female,2024-04-24_12h36.22.282,jersey_experiment_5_v0,2023.2.2,Win32,84.74576271,,,,,,37.0836,45.5191,return,8.3996,,,,,,,,,,,,,,,,,,,,,,,,,,,,,,,,,,,,,,,,,,,,,,,,,,,,,,,,,,,,,,,,,,,,,
,,,,,SPR24_086,22,Female,2024-04-24_12h36.22.282,jersey_experiment_5_v0,2023.2.2,Win32,84.74576271,,,,,,,,,,,45.5193,63.8962,return,18.3704,,,,,,,,,,,,,,,,,,,,,,,,,,,,,,,,,,,,,,,,,,,,,,,,,,,,,,,,,,,,,,,,
,,,,,SPR24_086,22,Female,2024-04-24_12h36.22.282,jersey_experiment_5_v0,2023.2.2,Win32,84.74576271,,,,,,,,,,,,,,,,63.9032,64.9549,64.955,82.7437,return,2.5836,,44.140625,0,0,0,50,1,FBP-PT-18.png,0.35,1.2,51,0.25,,,,,,,,,,,,,,,,,,,,,,,,,,,,,,,,,,,,,,,,,,,,,
,,,,,SPR24_086,22,Female,2024-04-24_12h36.22.282,jersey_experiment_5_v0,2023.2.2,Win32,84.74576271,,,,,,,,,,,,,,,,82.7441,84.0376,84.0376,87.9439,return,0.9464,,60.02604167,0,1,1,6,1,FBP-OG-81.png,0.37,1.2,7,0.5,,,,,,,,,,,,,,,,,,,,,,,,,,,,,,,,,,,,,,,,,,,,,
,,,,,SPR24_086,22,Female,2024-04-24_12h36.22.282,jersey_experiment_5_v0,2023.2.2,Win32,84.74576271,,,,,,,,,,,,,,,,87.9441,89.2379,89.238,94.9675,return,2.04,,74.73958333,0,2,2,33,1,FBP-RB-17.png,0.43,1.2,34,0.5,,,,,,,,,,,,,,,,,,,,,,,,,,,,,,,,,,,,,,,,,,,,,
,,,,,SPR24_086,22,Female,2024-04-24_12h36.22.282,jersey_experiment_5_v0,2023.2.2,Win32,84.74576271,,,,,,,,,,,,,,,,94.9678,96.0147,96.0148,100.2031,return,1.5774,,49.86979167,0,3,3,21,1,FBP-YG-18.png,0.37,1.2,22,0.25,,,,,,,,,,,,,,,,,,,,,,,,,,,,,,,,,,,,,,,,,,,,,
,,,,,SPR24_086,22,Female,2024-04-24_12h36.22.282,jersey_experiment_5_v0,2023.2.2,Win32,84.74576271,,,,,,,,,,,,,,,,100.2033,101.25,101.25,103.0383,return,0.4007,,35.15625,0,4,4,45,1,FBP-PT-17.png,0.35,1.2,46,0.25,,,,,,,,,,,,,,,,,,,,,,,,,,,,,,,,,,,,,,,,,,,,,
,,,,,SPR24_086,22,Female,2024-04-24_12h36.22.282,jersey_experiment_5_v0,2023.2.2,Win32,84.74576271,,,,,,,,,,,,,,,,103.0386,104.3325,104.3326,107.7679,return,1.1222,,68.22916667,0,5,5,34,1,FBP-RB-17.png,0.45,1.2,35,0.5,,,,,,,,,,,,,,,,,,,,,,,,,,,,,,,,,,,,,,,,,,,,,
,,,,,SPR24_086,22,Female,2024-04-24_12h36.22.282,jersey_experiment_5_v0,2023.2.2,Win32,84.74576271,,,,,,,,,,,,,,,,107.7683,109.0621,109.0621,110.5445,return,0.2448,,70.18229167,0,6,6,13,1,FBP-OG-91.png,0.43,1.2,14,0.5,,,,,,,,,,,,,,,,,,,,,,,,,,,,,,,,,,,,,,,,,,,,,
,,,,,SPR24_086,22,Female,2024-04-24_12h36.22.282,jersey_experiment_5_v0,2023.2.2,Win32,84.74576271,,,,,,,,,,,,,,,,110.5447,111.5916,111.5916,113.8621,return,0.229,,66.66666667,0,7,7,17,1,FBP-YG-17.png,0.4,1.2,18,0.25,,,,,,,,,,,,,,,,,,,,,,,,,,,,,,,,,,,,,,,,,,,,,
,,,,,SPR24_086,22,Female,2024-04-24_12h36.22.282,jersey_experiment_5_v0,2023.2.2,Win32,84.74576271,,,,,,,,,,,,,,,,113.8624,114.9092,114.9092,116.1683,return,0.171,,71.74479167,0,8,8,18,1,FBP-YG-17.png,0.43,1.2,19,0.25,,,,,,,,,,,,,,,,,,,,,,,,,,,,,,,,,,,,,,,,,,,,,
,,,,,SPR24_086,22,Female,2024-04-24_12h36.22.282,jersey_experiment_5_v0,2023.2.2,Win32,84.74576271,,,,,,,,,,,,,,,,116.1686,117.2153,117.2153,118.9918,return,0.1506,,50,0,9,9,55,1,FBP-PT-19.png,0.35,1.2,56,0.25,,,,,,,,,,,,,,,,,,,,,,,,,,,,,,,,,,,,,,,,,,,,,
,,,,,SPR24_086,22,Female,2024-04-24_12h36.22.282,jersey_experiment_5_v0,2023.2.2,Win32,84.74576271,,,,,,,,,,,,,,,,118.992,120.286,120.286,123.2273,return,0.4739,,50.13020833,0,10,10,35,1,FBP-RB-18.png,0.35,1.2,36,0.5,,,,,,,,,,,,,,,,,,,,,,,,,,,,,,,,,,,,,,,,,,,,,
,,,,,SPR24_086,22,Female,2024-04-24_12h36.22.282,jersey_experiment_5_v0,2023.2.2,Win32,84.74576271,,,,,,,,,,,,,,,,123.2275,124.5213,124.5213,126.3449,return,0.1911,,75,0,11,11,38,1,FBP-RB-18.png,0.43,1.2,39,0.5,,,,,,,,,,,,,,,,,,,,,,,,,,,,,,,,,,,,,,,,,,,,,
,,,,,SPR24_086,22,Female,2024-04-24_12h36.22.282,jersey_experiment_5_v0,2023.2.2,Win32,84.74576271,,,,,,,,,,,,,,,,126.3452,127.3921,127.3921,129.6628,return,0.273,,80.72916667,0,12,12,49,1,FBP-PT-17.png,0.45,1.2,50,0.25,,,,,,,,,,,,,,,,,,,,,,,,,,,,,,,,,,,,,,,,,,,,,
,,,,,SPR24_086,22,Female,2024-04-24_12h36.22.282,jersey_experiment_5_v0,2023.2.2,Win32,84.74576271,,,,,,,,,,,,,,,,129.6631,130.9569,130.957,132.0394,return,0.1838,,74.86979167,0,13,13,12,1,FBP-OG-91.png,0.4,1.2,13,0.5,,,,,,,,,,,,,,,,,,,,,,,,,,,,,,,,,,,,,,,,,,,,,
,,,,,SPR24_086,22,Female,2024-04-24_12h36.22.282,jersey_experiment_5_v0,2023.2.2,Win32,84.74576271,,,,,,,,,,,,,,,,132.0397,133.0864,133.0864,134.4278,return,0.1531,,79.42708333,0,14,14,29,1,FBP-YG-19.png,0.45,1.2,30,0.25,,,,,,,,,,,,,,,,,,,,,,,,,,,,,,,,,,,,,,,,,,,,,
,,,,,SPR24_086,22,Female,2024-04-24_12h36.22.282,jersey_experiment_5_v0,2023.2.2,Win32,84.74576271,,,,,,,,,,,,,,,,134.4279,135.4748,135.4749,136.1688,return,0.0617,,79.42708333,0,15,15,23,1,FBP-YG-18.png,0.43,1.2,24,0.25,,,,,,,,,,,,,,,,,,,,,,,,,,,,,,,,,,,,,,,,,,,,,
,,,,,SPR24_086,22,Female,2024-04-24_12h36.22.282,jersey_experiment_5_v0,2023.2.2,Win32,84.74576271,,,,,,,,,,,,,,,,136.1691,137.463,137.4631,140.5573,return,0.1552,,42.96875,0,16,16,41,1,FBP-RB-19.png,0.37,1.2,42,0.5,,,,,,,,,,,,,,,,,,,,,,,,,,,,,,,,,,,,,,,,,,,,,
,,,,,SPR24_086,22,Female,2024-04-24_12h36.22.282,jersey_experiment_5_v0,2023.2.2,Win32,84.74576271,,,,,,,,,,,,,,,,140.5575,141.8516,141.8516,143.0868,return,0.1647,,49.73958333,0,17,17,37,1,FBP-RB-18.png,0.4,1.2,38,0.5,,,,,,,,,,,,,,,,,,,,,,,,,,,,,,,,,,,,,,,,,,,,,
,,,,,SPR24_086,22,Female,2024-04-24_12h36.22.282,jersey_experiment_5_v0,2023.2.2,Win32,84.74576271,,,,,,,,,,,,,,,,143.087,144.1339,144.1339,145.1104,return,0.1118,,60.9375,0,18,18,28,1,FBP-YG-19.png,0.43,1.2,29,0.25,,,,,,,,,,,,,,,,,,,,,,,,,,,,,,,,,,,,,,,,,,,,,
,,,,,SPR24_086,22,Female,2024-04-24_12h36.22.282,jersey_experiment_5_v0,2023.2.2,Win32,84.74576271,,,,,,,,,,,,,,,,145.1106,146.1576,146.1576,147.7222,return,0.8611,,60.9375,0,19,19,47,1,FBP-PT-17.png,0.4,1.2,48,0.25,,,,,,,,,,,,,,,,,,,,,,,,,,,,,,,,,,,,,,,,,,,,,
,,,,,SPR24_086,22,Female,2024-04-24_12h36.22.282,jersey_experiment_5_v0,2023.2.2,Win32,84.74576271,,,,,,,,,,,,,,,,147.7225,149.0164,149.0165,150.2988,return,0.4624,,73.4375,0,20,20,32,1,FBP-RB-17.png,0.4,1.2,33,0.5,,,,,,,,,,,,,,,,,,,,,,,,,,,,,,,,,,,,,,,,,,,,,
,,,,,SPR24_086,22,Female,2024-04-24_12h36.22.282,jersey_experiment_5_v0,2023.2.2,Win32,84.74576271,,,,,,,,,,,,,,,,150.299,151.346,151.346,152.393,return,0.1682,,72.00520833,0,21,21,56,1,FBP-PT-19.png,0.37,1.2,57,0.25,,,,,,,,,,,,,,,,,,,,,,,,,,,,,,,,,,,,,,,,,,,,,
,,,,,SPR24_086,22,Female,2024-04-24_12h36.22.282,jersey_experiment_5_v0,2023.2.2,Win32,84.74576271,,,,,,,,,,,,,,,,152.3932,153.6871,153.6872,154.8167,return,0.1887,,76.5625,0,22,22,3,1,FBP-OG-71.png,0.43,1.2,4,0.5,,,,,,,,,,,,,,,,,,,,,,,,,,,,,,,,,,,,,,,,,,,,,
,,,,,SPR24_086,22,Female,2024-04-24_12h36.22.282,jersey_experiment_5_v0,2023.2.2,Win32,84.74576271,,,,,,,,,,,,,,,,154.8169,156.1109,156.1109,157.2285,return,0.1765,,67.70833333,0,23,23,1,1,FBP-OG-71.png,0.37,1.2,2,0.5,,,,,,,,,,,,,,,,,,,,,,,,,,,,,,,,,,,,,,,,,,,,,
,,,,,SPR24_086,22,Female,2024-04-24_12h36.22.282,jersey_experiment_5_v0,2023.2.2,Win32,84.74576271,,,,,,,,,,,,,,,,157.2287,158.5226,158.5226,162.0757,return,0.8498,,35.41666667,0,24,24,40,1,FBP-RB-19.png,0.35,1.2,41,0.5,,,,,,,,,,,,,,,,,,,,,,,,,,,,,,,,,,,,,,,,,,,,,
,,,,,SPR24_086,22,Female,2024-04-24_12h36.22.282,jersey_experiment_5_v0,2023.2.2,Win32,84.74576271,,,,,,,,,,,,,,,,162.0758,163.1229,163.1229,165.9347,return,2.15,,50.13020833,0,25,25,51,1,FBP-PT-18.png,0.37,1.2,52,0.25,,,,,,,,,,,,,,,,,,,,,,,,,,,,,,,,,,,,,,,,,,,,,
,,,,,SPR24_086,22,Female,2024-04-24_12h36.22.282,jersey_experiment_5_v0,2023.2.2,Win32,84.74576271,,,,,,,,,,,,,,,,165.9348,166.9818,166.9818,169.7701,return,1.0162,,86.328125,0,26,26,48,1,FBP-PT-17.png,0.43,1.2,49,0.25,,,,,,,,,,,,,,,,,,,,,,,,,,,,,,,,,,,,,,,,,,,,,
,,,,,SPR24_086,22,Female,2024-04-24_12h36.22.282,jersey_experiment_5_v0,2023.2.2,Win32,84.74576271,,,,,,,,,,,,,,,,169.7703,171.0642,171.0643,172.6879,return,0.0942,,50.13020833,0,27,27,36,1,FBP-RB-18.png,0.37,1.2,37,0.5,,,,,,,,,,,,,,,,,,,,,,,,,,,,,,,,,,,,,,,,,,,,,
,,,,,SPR24_086,22,Female,2024-04-24_12h36.22.282,jersey_experiment_5_v0,2023.2.2,Win32,84.74576271,,,,,,,,,,,,,,,,172.6881,173.9821,173.9821,175.6762,return,0.2613,,87.76041667,0,28,28,44,1,FBP-RB-19.png,0.45,1.2,45,0.5,,,,,,,,,,,,,,,,,,,,,,,,,,,,,,,,,,,,,,,,,,,,,
,,,,,SPR24_086,22,Female,2024-04-24_12h36.22.282,jersey_experiment_5_v0,2023.2.2,Win32,84.74576271,,,,,,,,,,,,,,,,175.6764,176.7233,176.7234,178.0762,return,0.0731,,74.73958333,0,29,29,57,1,FBP-PT-19.png,0.4,1.2,58,0.25,,,,,,,,,,,,,,,,,,,,,,,,,,,,,,,,,,,,,,,,,,,,,
,,,,,SPR24_086,22,Female,2024-04-24_12h36.22.282,jersey_experiment_5_v0,2023.2.2,Win32,84.74576271,,,,,,,,,,,,,,,,178.0764,179.3704,179.3705,180.4645,return,0.0709,,50.26041667,0,30,30,31,1,FBP-RB-17.png,0.37,1.2,32,0.5,,,,,,,,,,,,,,,,,,,,,,,,,,,,,,,,,,,,,,,,,,,,,
,,,,,SPR24_086,22,Female,2024-04-24_12h36.22.282,jersey_experiment_5_v0,2023.2.2,Win32,84.74576271,,,,,,,,,,,,,,,,180.4646,181.759,181.759,182.6293,return,0.0772,,75.13020833,0,31,31,7,1,FBP-OG-81.png,0.4,1.2,8,0.5,,,,,,,,,,,,,,,,,,,,,,,,,,,,,,,,,,,,,,,,,,,,,
,,,,,SPR24_086,22,Female,2024-04-24_12h36.22.282,jersey_experiment_5_v0,2023.2.2,Win32,84.74576271,,,,,,,,,,,,,,,,182.6294,183.6764,183.6764,184.8294,return,0.1039,,85.41666667,0,32,32,53,1,FBP-PT-18.png,0.43,1.2,54,0.25,,,,,,,,,,,,,,,,,,,,,,,,,,,,,,,,,,,,,,,,,,,,,
,,,,,SPR24_086,22,Female,2024-04-24_12h36.22.282,jersey_experiment_5_v0,2023.2.2,Win32,84.74576271,,,,,,,,,,,,,,,,184.8296,185.8767,185.8767,186.4647,return,0.1791,,85.41666667,0,33,33,58,1,FBP-PT-19.png,0.43,1.2,59,0.25,,,,,,,,,,,,,,,,,,,,,,,,,,,,,,,,,,,,,,,,,,,,,
,,,,,SPR24_086,22,Female,2024-04-24_12h36.22.282,jersey_experiment_5_v0,2023.2.2,Win32,84.74576271,,,,,,,,,,,,,,,,186.465,187.512,187.512,188.4297,return,0.1183,,91.40625,0,34,34,59,1,FBP-PT-19.png,0.45,1.2,60,0.25,,,,,,,,,,,,,,,,,,,,,,,,,,,,,,,,,,,,,,,,,,,,,
,,,,,SPR24_086,22,Female,2024-04-24_12h36.22.282,jersey_experiment_5_v0,2023.2.2,Win32,84.74576271,,,,,,,,,,,,,,,,188.4298,189.7237,189.7238,191.0534,return,0.1079,,49.21875,0,35,35,42,1,FBP-RB-19.png,0.4,1.2,43,0.5,,,,,,,,,,,,,,,,,,,,,,,,,,,,,,,,,,,,,,,,,,,,,
,,,,,SPR24_086,22,Female,2024-04-24_12h36.22.282,jersey_experiment_5_v0,2023.2.2,Win32,84.74576271,,,,,,,,,,,,,,,,191.0536,192.3475,192.3476,193.3239,return,0.0823,,91.53645833,0,36,36,9,1,FBP-OG-81.png,0.45,1.2,10,0.5,,,,,,,,,,,,,,,,,,,,,,,,,,,,,,,,,,,,,,,,,,,,,
,,,,,SPR24_086,22,Female,2024-04-24_12h36.22.282,jersey_experiment_5_v0,2023.2.2,Win32,84.74576271,,,,,,,,,,,,,,,,193.3241,194.618,194.6181,195.9122,return,0.4064,,87.109375,0,37,37,39,1,FBP-RB-18.png,0.45,1.2,40,0.5,,,,,,,,,,,,,,,,,,,,,,,,,,,,,,,,,,,,,,,,,,,,,
,,,,,SPR24_086,22,Female,2024-04-24_12h36.22.282,jersey_experiment_5_v0,2023.2.2,Win32,84.74576271,,,,,,,,,,,,,,,,195.9124,196.9593,196.9593,198.2652,return,0.0995,,62.890625,0,38,38,27,1,FBP-YG-19.png,0.4,1.2,28,0.25,,,,,,,,,,,,,,,,,,,,,,,,,,,,,,,,,,,,,,,,,,,,,
,,,,,SPR24_086,22,Female,2024-04-24_12h36.22.282,jersey_experiment_5_v0,2023.2.2,Win32,84.74576271,,,,,,,,,,,,,,,,198.2654,199.3123,199.3124,200.3594,return,0.0642,,62.5,0,39,39,22,1,FBP-YG-18.png,0.4,1.2,23,0.25,,,,,,,,,,,,,,,,,,,,,,,,,,,,,,,,,,,,,,,,,,,,,
,,,,,SPR24_086,22,Female,2024-04-24_12h36.22.282,jersey_experiment_5_v0,2023.2.2,Win32,84.74576271,,,,,,,,,,,,,,,,200.3596,201.6536,201.6537,202.5594,return,0.0822,,50.52083333,0,40,40,11,1,FBP-OG-91.png,0.37,1.2,12,0.5,,,,,,,,,,,,,,,,,,,,,,,,,,,,,,,,,,,,,,,,,,,,,
,,,,,SPR24_086,22,Female,2024-04-24_12h36.22.282,jersey_experiment_5_v0,2023.2.2,Win32,84.74576271,,,,,,,,,,,,,,,,202.5597,203.6066,203.6066,204.6183,return,0.0373,,37.76041667,0,41,41,15,1,FBP-YG-17.png,0.35,1.2,16,0.25,,,,,,,,,,,,,,,,,,,,,,,,,,,,,,,,,,,,,,,,,,,,,
,,,,,SPR24_086,22,Female,2024-04-24_12h36.22.282,jersey_experiment_5_v0,2023.2.2,Win32,84.74576271,,,,,,,,,,,,,,,,204.6185,205.9126,205.9127,206.6776,return,0.1157,,31.25,0,42,42,10,1,FBP-OG-91.png,0.35,1.2,11,0.5,,,,,,,,,,,,,,,,,,,,,,,,,,,,,,,,,,,,,,,,,,,,,
,,,,,SPR24_086,22,Female,2024-04-24_12h36.22.282,jersey_experiment_5_v0,2023.2.2,Win32,84.74576271,,,,,,,,,,,,,,,,206.6779,207.9716,207.9717,209.148,return,0.1084,,82.421875,0,43,43,4,1,FBP-OG-71.png,0.45,1.2,5,0.5,,,,,,,,,,,,,,,,,,,,,,,,,,,,,,,,,,,,,,,,,,,,,
,,,,,SPR24_086,22,Female,2024-04-24_12h36.22.282,jersey_experiment_5_v0,2023.2.2,Win32,84.74576271,,,,,,,,,,,,,,,,209.1482,210.4423,210.4423,211.3246,return,0.1522,,92.1875,0,44,44,14,1,FBP-OG-91.png,0.45,1.2,15,0.5,,,,,,,,,,,,,,,,,,,,,,,,,,,,,,,,,,,,,,,,,,,,,
,,,,,SPR24_086,22,Female,2024-04-24_12h36.22.282,jersey_experiment_5_v0,2023.2.2,Win32,84.74576271,,,,,,,,,,,,,,,,211.3247,212.6186,212.6186,213.9483,return,0.1558,,74.34895833,0,45,45,43,1,FBP-RB-19.png,0.43,1.2,44,0.5,,,,,,,,,,,,,,,,,,,,,,,,,,,,,,,,,,,,,,,,,,,,,
,,,,,SPR24_086,22,Female,2024-04-24_12h36.22.282,jersey_experiment_5_v0,2023.2.2,Win32,84.74576271,,,,,,,,,,,,,,,,213.9485,215.2423,215.2423,216.4894,return,0.0026,,25,0,46,46,30,1,FBP-RB-17.png,0.35,1.2,31,0.5,,,,,,,,,,,,,,,,,,,,,,,,,,,,,,,,,,,,,,,,,,,,,
,,,,,SPR24_086,22,Female,2024-04-24_12h36.22.282,jersey_experiment_5_v0,2023.2.2,Win32,84.74576271,,,,,,,,,,,,,,,,216.4895,217.7835,217.7836,218.2308,return,0.0195,,24.73958333,0,47,47,5,1,FBP-OG-81.png,0.35,1.2,6,0.5,,,,,,,,,,,,,,,,,,,,,,,,,,,,,,,,,,,,,,,,,,,,,
,,,,,SPR24_086,22,Female,2024-04-24_12h36.22.282,jersey_experiment_5_v0,2023.2.2,Win32,84.74576271,,,,,,,,,,,,,,,,218.2309,219.5251,219.5251,220.3954,return,0.0712,,50.65104167,0,48,48,2,1,FBP-OG-71.png,0.4,1.2,3,0.5,,,,,,,,,,,,,,,,,,,,,,,,,,,,,,,,,,,,,,,,,,,,,
,,,,,SPR24_086,22,Female,2024-04-24_12h36.22.282,jersey_experiment_5_v0,2023.2.2,Win32,84.74576271,,,,,,,,,,,,,,,,220.3955,221.4425,221.4425,222.4896,return,0.0257,,50.52083333,0,49,49,25,1,FBP-YG-19.png,0.35,1.2,26,0.25,,,,,,,,,,,,,,,,,,,,,,,,,,,,,,,,,,,,,,,,,,,,,
,,,,,SPR24_086,22,Female,2024-04-24_12h36.22.282,jersey_experiment_5_v0,2023.2.2,Win32,84.74576271,,,,,,,,,,,,,,,,222.4899,223.784,223.784,224.5013,return,0.1131,,75.26041667,0,50,50,8,1,FBP-OG-81.png,0.43,1.2,9,0.5,,,,,,,,,,,,,,,,,,,,,,,,,,,,,,,,,,,,,,,,,,,,,
,,,,,SPR24_086,22,Female,2024-04-24_12h36.22.282,jersey_experiment_5_v0,2023.2.2,Win32,84.74576271,,,,,,,,,,,,,,,,224.5015,225.5486,225.5486,226.4308,return,0.08,,84.24479167,0,51,51,19,1,FBP-YG-17.png,0.45,1.2,20,0.25,,,,,,,,,,,,,,,,,,,,,,,,,,,,,,,,,,,,,,,,,,,,,
,,,,,SPR24_086,22,Female,2024-04-24_12h36.22.282,jersey_experiment_5_v0,2023.2.2,Win32,84.74576271,,,,,,,,,,,,,,,,226.4311,227.478,227.4781,228.8311,return,0.047,,75,0,52,52,46,1,FBP-PT-17.png,0.37,1.2,47,0.25,,,,,,,,,,,,,,,,,,,,,,,,,,,,,,,,,,,,,,,,,,,,,
,,,,,SPR24_086,22,Female,2024-04-24_12h36.22.282,jersey_experiment_5_v0,2023.2.2,Win32,84.74576271,,,,,,,,,,,,,,,,228.8313,229.878,229.8781,230.831,return,0.0569,,90.625,0,53,53,54,1,FBP-PT-18.png,0.45,1.2,55,0.25,,,,,,,,,,,,,,,,,,,,,,,,,,,,,,,,,,,,,,,,,,,,,
,,,,,SPR24_086,22,Female,2024-04-24_12h36.22.282,jersey_experiment_5_v0,2023.2.2,Win32,84.74576271,,,,,,,,,,,,,,,,230.8312,231.8783,231.8783,233.6782,return,0.0709,,34.24479167,0,54,54,20,1,FBP-YG-18.png,0.35,1.2,21,0.25,,,,,,,,,,,,,,,,,,,,,,,,,,,,,,,,,,,,,,,,,,,,,
,,,,,SPR24_086,22,Female,2024-04-24_12h36.22.282,jersey_experiment_5_v0,2023.2.2,Win32,84.74576271,,,,,,,,,,,,,,,,233.6785,234.7254,234.7254,236.8313,return,0.3769,,38.28125,0,55,55,26,1,FBP-YG-19.png,0.37,1.2,27,0.25,,,,,,,,,,,,,,,,,,,,,,,,,,,,,,,,,,,,,,,,,,,,,
,,,,,SPR24_086,22,Female,2024-04-24_12h36.22.282,jersey_experiment_5_v0,2023.2.2,Win32,84.74576271,,,,,,,,,,,,,,,,236.8316,237.8785,237.8785,239.1961,return,0.1081,,69.27083333,0,56,56,52,1,FBP-PT-18.png,0.4,1.2,53,0.25,,,,,,,,,,,,,,,,,,,,,,,,,,,,,,,,,,,,,,,,,,,,,
,,,,,SPR24_086,22,Female,2024-04-24_12h36.22.282,jersey_experiment_5_v0,2023.2.2,Win32,84.74576271,,,,,,,,,,,,,,,,239.1964,240.2431,240.2432,241.3254,return,0.0478,,50.65104167,0,57,57,16,1,FBP-YG-17.png,0.37,1.2,17,0.25,,,,,,,,,,,,,,,,,,,,,,,,,,,,,,,,,,,,,,,,,,,,,
,,,,,SPR24_086,22,Female,2024-04-24_12h36.22.282,jersey_experiment_5_v0,2023.2.2,Win32,84.74576271,,,,,,,,,,,,,,,,241.3255,242.3726,242.3726,244.008,return,0.0769,,99.21875,0,58,58,24,1,FBP-YG-18.png,0.45,1.2,25,0.25,,,,,,,,,,,,,,,,,,,,,,,,,,,,,,,,,,,,,,,,,,,,,
,,,,,SPR24_086,22,Female,2024-04-24_12h36.22.282,jersey_experiment_5_v0,2023.2.2,Win32,84.74576271,,,,,,,,,,,,,,,,244.0082,245.3023,245.3023,247.0552,return,0.5793,,50.13020833,0,59,59,0,1,FBP-OG-71.png,0.35,1.2,1,0.5,,,,,,,,,,,,,,,,,,,,,,,,,,,,,,,,,,,,,,,,,,,,,
,,,,,SPR24_086,22,Female,2024-04-24_12h36.22.282,jersey_experiment_5_v0,2023.2.2,Win32,84.74576271,,,,,,,,,,,,,,,,247.0568,248.1023,248.1023,249.42,return,0.0494,,86.84895833,,,,,,FBP-YG-81.png,0.45,1.2,25,0.25,0,0,0,24,1,,,,,,,,,,,,,,,,,,,,,,,,,,,,,,,,,,,,,,,,
,,,,,SPR24_086,22,Female,2024-04-24_12h36.22.282,jersey_experiment_5_v0,2023.2.2,Win32,84.74576271,,,,,,,,,,,,,,,,249.4203,250.7141,250.7141,251.6554,return,0.1014,,86.84895833,,,,,,FBP-OG-17.png,0.43,1.2,4,0.5,0,1,1,3,1,,,,,,,,,,,,,,,,,,,,,,,,,,,,,,,,,,,,,,,,
,,,,,SPR24_086,22,Female,2024-04-24_12h36.22.282,jersey_experiment_5_v0,2023.2.2,Win32,84.74576271,,,,,,,,,,,,,,,,251.6557,252.7024,252.7025,253.8671,return,0.0032,,74.73958333,,,,,,FBP-PT-81.png,0.4,1.2,53,0.25,0,2,2,52,1,,,,,,,,,,,,,,,,,,,,,,,,,,,,,,,,,,,,,,,,
,,,,,SPR24_086,22,Female,2024-04-24_12h36.22.282,jersey_experiment_5_v0,2023.2.2,Win32,84.74576271,,,,,,,,,,,,,,,,253.8673,254.9143,254.9143,256.5025,return,0.0548,,50,,,,,,FBP-YG-81.png,0.37,1.2,22,0.25,0,3,3,21,1,,,,,,,,,,,,,,,,,,,,,,,,,,,,,,,,,,,,,,,,
,,,,,SPR24_086,22,Female,2024-04-24_12h36.22.282,jersey_experiment_5_v0,2023.2.2,Win32,84.74576271,,,,,,,,,,,,,,,,256.5026,257.5496,257.5497,261.8792,return,0.2168,,50,,,,,,FBP-YG-91.png,0.37,1.2,27,0.25,0,4,4,26,1,,,,,,,,,,,,,,,,,,,,,,,,,,,,,,,,,,,,,,,,
,,,,,SPR24_086,22,Female,2024-04-24_12h36.22.282,jersey_experiment_5_v0,2023.2.2,Win32,84.74576271,,,,,,,,,,,,,,,,261.8795,262.9264,262.9264,263.9615,return,0.0282,,75.390625,,,,,,FBP-YG-91.png,0.43,1.2,29,0.25,0,5,5,28,1,,,,,,,,,,,,,,,,,,,,,,,,,,,,,,,,,,,,,,,,
,,,,,SPR24_086,22,Female,2024-04-24_12h36.22.282,jersey_experiment_5_v0,2023.2.2,Win32,84.74576271,,,,,,,,,,,,,,,,263.9617,265.0088,265.0088,265.9147,return,0.0269,,76.82291667,,,,,,FBP-YG-71.png,0.43,1.2,19,0.25,0,6,6,18,1,,,,,,,,,,,,,,,,,,,,,,,,,,,,,,,,,,,,,,,,
,,,,,SPR24_086,22,Female,2024-04-24_12h36.22.282,jersey_experiment_5_v0,2023.2.2,Win32,84.74576271,,,,,,,,,,,,,,,,265.915,267.2087,267.2088,267.8678,return,0.0258,,89.453125,,,,,,FBP-OG-18.png,0.45,1.2,10,0.5,0,7,7,9,1,,,,,,,,,,,,,,,,,,,,,,,,,,,,,,,,,,,,,,,,
,,,,,SPR24_086,22,Female,2024-04-24_12h36.22.282,jersey_experiment_5_v0,2023.2.2,Win32,84.74576271,,,,,,,,,,,,,,,,267.868,269.1618,269.1618,270.3619,return,0.4751,,50.26041667,,,,,,FBP-RB-91.png,0.4,1.2,43,0.5,0,8,8,42,1,,,,,,,,,,,,,,,,,,,,,,,,,,,,,,,,,,,,,,,,
,,,,,SPR24_086,22,Female,2024-04-24_12h36.22.282,jersey_experiment_5_v0,2023.2.2,Win32,84.74576271,,,,,,,,,,,,,,,,270.3621,271.656,271.6561,272.6562,return,0.062,,38.28125,,,,,,FBP-RB-81.png,0.37,1.2,37,0.5,0,9,9,36,1,,,,,,,,,,,,,,,,,,,,,,,,,,,,,,,,,,,,,,,,
,,,,,SPR24_086,22,Female,2024-04-24_12h36.22.282,jersey_experiment_5_v0,2023.2.2,Win32,84.74576271,,,,,,,,,,,,,,,,272.6564,273.9505,273.9505,274.8562,return,0.0534,,36.71875,,,,,,FBP-OG-18.png,0.4,1.2,8,0.5,0,10,10,7,1,,,,,,,,,,,,,,,,,,,,,,,,,,,,,,,,,,,,,,,,
,,,,,SPR24_086,22,Female,2024-04-24_12h36.22.282,jersey_experiment_5_v0,2023.2.2,Win32,84.74576271,,,,,,,,,,,,,,,,274.8564,275.9031,275.9032,276.7505,return,0.0003,,50.65104167,,,,,,FBP-PT-81.png,0.43,1.2,54,0.25,0,11,11,53,1,,,,,,,,,,,,,,,,,,,,,,,,,,,,,,,,,,,,,,,,
,,,,,SPR24_086,22,Female,2024-04-24_12h36.22.282,jersey_experiment_5_v0,2023.2.2,Win32,84.74576271,,,,,,,,,,,,,,,,276.7508,277.7973,277.7974,279.0331,return,0.0273,,26.5625,,,,,,FBP-PT-71.png,0.35,1.2,46,0.25,0,12,12,45,1,,,,,,,,,,,,,,,,,,,,,,,,,,,,,,,,,,,,,,,,
,,,,,SPR24_086,22,Female,2024-04-24_12h36.22.282,jersey_experiment_5_v0,2023.2.2,Win32,84.74576271,,,,,,,,,,,,,,,,279.0333,280.3271,280.3271,282.6682,return,1.3769,,61.58854167,,,,,,FBP-RB-71.png,0.43,1.2,34,0.5,0,13,13,33,1,,,,,,,,,,,,,,,,,,,,,,,,,,,,,,,,,,,,,,,,
,,,,,SPR24_086,22,Female,2024-04-24_12h36.22.282,jersey_experiment_5_v0,2023.2.2,Win32,84.74576271,,,,,,,,,,,,,,,,282.6685,283.9624,283.9624,285.5743,return,0.147,,66.66666667,,,,,,FBP-OG-19.png,0.4,1.2,13,0.5,0,14,14,12,1,,,,,,,,,,,,,,,,,,,,,,,,,,,,,,,,,,,,,,,,
,,,,,SPR24_086,22,Female,2024-04-24_12h36.22.282,jersey_experiment_5_v0,2023.2.2,Win32,84.74576271,,,,,,,,,,,,,,,,285.5746,286.6212,286.6212,287.8684,return,0.1994,,62.890625,,,,,,FBP-YG-91.png,0.4,1.2,28,0.25,0,15,15,27,1,,,,,,,,,,,,,,,,,,,,,,,,,,,,,,,,,,,,,,,,
,,,,,SPR24_086,22,Female,2024-04-24_12h36.22.282,jersey_experiment_5_v0,2023.2.2,Win32,84.74576271,,,,,,,,,,,,,,,,287.8686,288.9155,288.9156,290.0096,return,0.0987,,79.42708333,,,,,,FBP-YG-71.png,0.45,1.2,20,0.25,0,16,16,19,1,,,,,,,,,,,,,,,,,,,,,,,,,,,,,,,,,,,,,,,,
,,,,,SPR24_086,22,Female,2024-04-24_12h36.22.282,jersey_experiment_5_v0,2023.2.2,Win32,84.74576271,,,,,,,,,,,,,,,,290.0098,291.0568,291.0568,292.892,return,0.1641,,45.83333333,,,,,,FBP-YG-71.png,0.35,1.2,16,0.25,0,17,17,15,1,,,,,,,,,,,,,,,,,,,,,,,,,,,,,,,,,,,,,,,,
,,,,,SPR24_086,22,Female,2024-04-24_12h36.22.282,jersey_experiment_5_v0,2023.2.2,Win32,84.74576271,,,,,,,,,,,,,,,,292.8922,294.1863,294.1864,294.7981,return,0.0145,,41.40625,,,,,,FBP-OG-18.png,0.37,1.2,7,0.5,0,18,18,6,1,,,,,,,,,,,,,,,,,,,,,,,,,,,,,,,,,,,,,,,,
,,,,,SPR24_086,22,Female,2024-04-24_12h36.22.282,jersey_experiment_5_v0,2023.2.2,Win32,84.74576271,,,,,,,,,,,,,,,,294.7983,295.8451,295.8451,297.0216,return,0.1181,,28.515625,,,,,,FBP-PT-81.png,0.35,1.2,51,0.25,0,19,19,50,1,,,,,,,,,,,,,,,,,,,,,,,,,,,,,,,,,,,,,,,,
,,,,,SPR24_086,22,Female,2024-04-24_12h36.22.282,jersey_experiment_5_v0,2023.2.2,Win32,84.74576271,,,,,,,,,,,,,,,,297.0218,298.0688,298.0689,300.0569,return,0.8144,,50.65104167,,,,,,FBP-PT-71.png,0.4,1.2,48,0.25,0,20,20,47,1,,,,,,,,,,,,,,,,,,,,,,,,,,,,,,,,,,,,,,,,
,,,,,SPR24_086,22,Female,2024-04-24_12h36.22.282,jersey_experiment_5_v0,2023.2.2,Win32,84.74576271,,,,,,,,,,,,,,,,300.0572,301.351,301.3511,302.81,return,0.0982,,79.6875,,,,,,FBP-OG-19.png,0.45,1.2,15,0.5,0,21,21,14,1,,,,,,,,,,,,,,,,,,,,,,,,,,,,,,,,,,,,,,,,
,,,,,SPR24_086,22,Female,2024-04-24_12h36.22.282,jersey_experiment_5_v0,2023.2.2,Win32,84.74576271,,,,,,,,,,,,,,,,302.8102,304.1043,304.1044,306.0221,return,0.0999,,49.47916667,,,,,,FBP-OG-19.png,0.35,1.2,11,0.5,0,22,22,10,1,,,,,,,,,,,,,,,,,,,,,,,,,,,,,,,,,,,,,,,,
,,,,,SPR24_086,22,Female,2024-04-24_12h36.22.282,jersey_experiment_5_v0,2023.2.2,Win32,84.74576271,,,,,,,,,,,,,,,,306.0223,307.3163,307.3163,308.269,return,0.2936,,51.30208333,,,,,,FBP-RB-71.png,0.4,1.2,33,0.5,0,23,23,32,1,,,,,,,,,,,,,,,,,,,,,,,,,,,,,,,,,,,,,,,,
,,,,,SPR24_086,22,Female,2024-04-24_12h36.22.282,jersey_experiment_5_v0,2023.2.2,Win32,84.74576271,,,,,,,,,,,,,,,,308.2694,309.5631,309.5631,311.4691,return,0.9422,,62.5,,,,,,FBP-OG-17.png,0.37,1.2,2,0.5,0,24,24,1,1,,,,,,,,,,,,,,,,,,,,,,,,,,,,,,,,,,,,,,,,
,,,,,SPR24_086,22,Female,2024-04-24_12h36.22.282,jersey_experiment_5_v0,2023.2.2,Win32,84.74576271,,,,,,,,,,,,,,,,311.4694,312.5163,312.5164,315.1048,return,0.0948,,73.828125,,,,,,FBP-PT-91.png,0.43,1.2,59,0.25,0,25,25,58,1,,,,,,,,,,,,,,,,,,,,,,,,,,,,,,,,,,,,,,,,
,,,,,SPR24_086,22,Female,2024-04-24_12h36.22.282,jersey_experiment_5_v0,2023.2.2,Win32,84.74576271,,,,,,,,,,,,,,,,315.1049,316.1518,316.1518,317.4694,return,0.0003,,75.52083333,,,,,,FBP-PT-81.png,0.37,1.2,52,0.25,0,26,26,51,1,,,,,,,,,,,,,,,,,,,,,,,,,,,,,,,,,,,,,,,,
,,,,,SPR24_086,22,Female,2024-04-24_12h36.22.282,jersey_experiment_5_v0,2023.2.2,Win32,84.74576271,,,,,,,,,,,,,,,,317.4696,318.7635,318.7635,321.5519,return,1.1771,,95.96354167,,,,,,FBP-RB-91.png,0.45,1.2,45,0.5,0,27,27,44,1,,,,,,,,,,,,,,,,,,,,,,,,,,,,,,,,,,,,,,,,
,,,,,SPR24_086,22,Female,2024-04-24_12h36.22.282,jersey_experiment_5_v0,2023.2.2,Win32,84.74576271,,,,,,,,,,,,,,,,321.5522,322.5989,322.5989,323.9286,return,0.0977,,50.91145833,,,,,,FBP-YG-81.png,0.43,1.2,24,0.25,0,28,28,23,1,,,,,,,,,,,,,,,,,,,,,,,,,,,,,,,,,,,,,,,,
,,,,,SPR24_086,22,Female,2024-04-24_12h36.22.282,jersey_experiment_5_v0,2023.2.2,Win32,84.74576271,,,,,,,,,,,,,,,,323.9288,324.9756,324.9756,326.1521,return,0.0529,,36.97916667,,,,,,FBP-YG-91.png,0.35,1.2,26,0.25,0,29,29,25,1,,,,,,,,,,,,,,,,,,,,,,,,,,,,,,,,,,,,,,,,
,,,,,SPR24_086,22,Female,2024-04-24_12h36.22.282,jersey_experiment_5_v0,2023.2.2,Win32,84.74576271,,,,,,,,,,,,,,,,326.1523,327.1993,327.1994,328.1991,return,0.0071,,50.13020833,,,,,,FBP-YG-81.png,0.4,1.2,23,0.25,0,30,30,22,1,,,,,,,,,,,,,,,,,,,,,,,,,,,,,,,,,,,,,,,,
,,,,,SPR24_086,22,Female,2024-04-24_12h36.22.282,jersey_experiment_5_v0,2023.2.2,Win32,84.74576271,,,,,,,,,,,,,,,,328.1992,329.2464,329.2464,330.2346,return,0.0248,,75.52083333,,,,,,FBP-PT-71.png,0.43,1.2,49,0.25,0,31,31,48,1,,,,,,,,,,,,,,,,,,,,,,,,,,,,,,,,,,,,,,,,
,,,,,SPR24_086,22,Female,2024-04-24_12h36.22.282,jersey_experiment_5_v0,2023.2.2,Win32,84.74576271,,,,,,,,,,,,,,,,330.2348,331.2816,331.2817,332.2699,return,0.057,,49.73958333,,,,,,FBP-PT-71.png,0.37,1.2,47,0.25,0,32,32,46,1,,,,,,,,,,,,,,,,,,,,,,,,,,,,,,,,,,,,,,,,
,,,,,SPR24_086,22,Female,2024-04-24_12h36.22.282,jersey_experiment_5_v0,2023.2.2,Win32,84.74576271,,,,,,,,,,,,,,,,332.2702,333.564,333.5641,334.2347,return,0.0484,,62.23958333,,,,,,FBP-RB-91.png,0.37,1.2,42,0.5,0,33,33,41,1,,,,,,,,,,,,,,,,,,,,,,,,,,,,,,,,,,,,,,,,
,,,,,SPR24_086,22,Female,2024-04-24_12h36.22.282,jersey_experiment_5_v0,2023.2.2,Win32,84.74576271,,,,,,,,,,,,,,,,334.2349,335.5291,335.5291,336.7996,return,0.165,,79.55729167,,,,,,FBP-OG-18.png,0.43,1.2,9,0.5,0,34,34,8,1,,,,,,,,,,,,,,,,,,,,,,,,,,,,,,,,,,,,,,,,
,,,,,SPR24_086,22,Female,2024-04-24_12h36.22.282,jersey_experiment_5_v0,2023.2.2,Win32,84.74576271,,,,,,,,,,,,,,,,336.7998,338.0937,338.0937,338.8937,return,0.1157,,82.94270833,,,,,,FBP-OG-19.png,0.43,1.2,14,0.5,0,35,35,13,1,,,,,,,,,,,,,,,,,,,,,,,,,,,,,,,,,,,,,,,,
,,,,,SPR24_086,22,Female,2024-04-24_12h36.22.282,jersey_experiment_5_v0,2023.2.2,Win32,84.74576271,,,,,,,,,,,,,,,,338.8939,339.9409,339.9409,341.341,return,0.0236,,50.26041667,,,,,,FBP-YG-81.png,0.35,1.2,21,0.25,0,36,36,20,1,,,,,,,,,,,,,,,,,,,,,,,,,,,,,,,,,,,,,,,,
,,,,,SPR24_086,22,Female,2024-04-24_12h36.22.282,jersey_experiment_5_v0,2023.2.2,Win32,84.74576271,,,,,,,,,,,,,,,,341.3412,342.3879,342.3879,343.6233,return,0.4894,,50.13020833,,,,,,FBP-PT-91.png,0.4,1.2,58,0.25,0,37,37,57,1,,,,,,,,,,,,,,,,,,,,,,,,,,,,,,,,,,,,,,,,
,,,,,SPR24_086,22,Female,2024-04-24_12h36.22.282,jersey_experiment_5_v0,2023.2.2,Win32,84.74576271,,,,,,,,,,,,,,,,343.6235,344.9175,344.9175,346.9763,return,0.2214,,85.02604167,,,,,,FBP-RB-81.png,0.45,1.2,40,0.5,0,38,38,39,1,,,,,,,,,,,,,,,,,,,,,,,,,,,,,,,,,,,,,,,,
,,,,,SPR24_086,22,Female,2024-04-24_12h36.22.282,jersey_experiment_5_v0,2023.2.2,Win32,84.74576271,,,,,,,,,,,,,,,,346.9764,348.2706,348.2706,350.1765,return,0.4942,,61.19791667,,,,,,FBP-OG-17.png,0.35,1.2,1,0.5,0,39,39,0,1,,,,,,,,,,,,,,,,,,,,,,,,,,,,,,,,,,,,,,,,
,,,,,SPR24_086,22,Female,2024-04-24_12h36.22.282,jersey_experiment_5_v0,2023.2.2,Win32,84.74576271,,,,,,,,,,,,,,,,350.1766,351.4707,351.4707,352.553,return,0.1463,,59.63541667,,,,,,FBP-RB-91.png,0.35,1.2,41,0.5,0,40,40,40,1,,,,,,,,,,,,,,,,,,,,,,,,,,,,,,,,,,,,,,,,
,,,,,SPR24_086,22,Female,2024-04-24_12h36.22.282,jersey_experiment_5_v0,2023.2.2,Win32,84.74576271,,,,,,,,,,,,,,,,352.5532,353.8471,353.8472,354.5766,return,0.1506,,59.63541667,,,,,,FBP-RB-71.png,0.35,1.2,31,0.5,0,41,41,30,1,,,,,,,,,,,,,,,,,,,,,,,,,,,,,,,,,,,,,,,,
,,,,,SPR24_086,22,Female,2024-04-24_12h36.22.282,jersey_experiment_5_v0,2023.2.2,Win32,84.74576271,,,,,,,,,,,,,,,,354.5769,355.8708,355.8708,357.0472,return,0.1105,,82.94270833,,,,,,FBP-OG-17.png,0.45,1.2,5,0.5,0,42,42,4,1,,,,,,,,,,,,,,,,,,,,,,,,,,,,,,,,,,,,,,,,
,,,,,SPR24_086,22,Female,2024-04-24_12h36.22.282,jersey_experiment_5_v0,2023.2.2,Win32,84.74576271,,,,,,,,,,,,,,,,357.0474,358.0944,358.0944,360.683,return,0.0622,,99.73958333,,,,,,FBP-PT-91.png,0.45,1.2,60,0.25,0,43,43,59,1,,,,,,,,,,,,,,,,,,,,,,,,,,,,,,,,,,,,,,,,
,,,,,SPR24_086,22,Female,2024-04-24_12h36.22.282,jersey_experiment_5_v0,2023.2.2,Win32,84.74576271,,,,,,,,,,,,,,,,360.6832,361.9769,361.9769,363.2594,return,0.0592,,25.78125,,,,,,FBP-RB-81.png,0.35,1.2,36,0.5,0,44,44,35,1,,,,,,,,,,,,,,,,,,,,,,,,,,,,,,,,,,,,,,,,
,,,,,SPR24_086,22,Female,2024-04-24_12h36.22.282,jersey_experiment_5_v0,2023.2.2,Win32,84.74576271,,,,,,,,,,,,,,,,363.2595,364.5534,364.5535,364.9888,return,0.0616,,25.78125,,,,,,FBP-OG-18.png,0.35,1.2,6,0.5,0,45,45,5,1,,,,,,,,,,,,,,,,,,,,,,,,,,,,,,,,,,,,,,,,
,,,,,SPR24_086,22,Female,2024-04-24_12h36.22.282,jersey_experiment_5_v0,2023.2.2,Win32,84.74576271,,,,,,,,,,,,,,,,364.989,366.2829,366.283,366.8477,return,0.1322,,25.78125,,,,,,FBP-OG-19.png,0.37,1.2,12,0.5,0,46,46,11,1,,,,,,,,,,,,,,,,,,,,,,,,,,,,,,,,,,,,,,,,
,,,,,SPR24_086,22,Female,2024-04-24_12h36.22.282,jersey_experiment_5_v0,2023.2.2,Win32,84.74576271,,,,,,,,,,,,,,,,366.848,367.8947,367.8947,368.9652,return,0.0914,,29.03645833,,,,,,FBP-YG-71.png,0.37,1.2,17,0.25,0,47,47,16,1,,,,,,,,,,,,,,,,,,,,,,,,,,,,,,,,,,,,,,,,
,,,,,SPR24_086,22,Female,2024-04-24_12h36.22.282,jersey_experiment_5_v0,2023.2.2,Win32,84.74576271,,,,,,,,,,,,,,,,368.9655,370.2597,370.2598,371.389,return,0.1318,,84.765625,,,,,,FBP-RB-71.png,0.45,1.2,35,0.5,0,48,48,34,1,,,,,,,,,,,,,,,,,,,,,,,,,,,,,,,,,,,,,,,,
,,,,,SPR24_086,22,Female,2024-04-24_12h36.22.282,jersey_experiment_5_v0,2023.2.2,Win32,84.74576271,,,,,,,,,,,,,,,,371.3892,372.4359,372.436,373.5302,return,0.0954,,75.26041667,,,,,,FBP-YG-71.png,0.4,1.2,18,0.25,0,49,49,17,1,,,,,,,,,,,,,,,,,,,,,,,,,,,,,,,,,,,,,,,,
,,,,,SPR24_086,22,Female,2024-04-24_12h36.22.282,jersey_experiment_5_v0,2023.2.2,Win32,84.74576271,,,,,,,,,,,,,,,,373.5305,374.5773,374.5774,375.589,return,0.0423,,35.9375,,,,,,FBP-PT-91.png,0.35,1.2,56,0.25,0,50,50,55,1,,,,,,,,,,,,,,,,,,,,,,,,,,,,,,,,,,,,,,,,
,,,,,SPR24_086,22,Female,2024-04-24_12h36.22.282,jersey_experiment_5_v0,2023.2.2,Win32,84.74576271,,,,,,,,,,,,,,,,375.5891,376.6362,376.6363,377.7538,return,0.178,,81.90104167,,,,,,FBP-PT-71.png,0.45,1.2,50,0.25,0,51,51,49,1,,,,,,,,,,,,,,,,,,,,,,,,,,,,,,,,,,,,,,,,
,,,,,SPR24_086,22,Female,2024-04-24_12h36.22.282,jersey_experiment_5_v0,2023.2.2,Win32,84.74576271,,,,,,,,,,,,,,,,377.754,379.048,379.048,381.2129,return,0.1513,,71.484375,,,,,,FBP-RB-81.png,0.4,1.2,38,0.5,0,52,52,37,1,,,,,,,,,,,,,,,,,,,,,,,,,,,,,,,,,,,,,,,,
,,,,,SPR24_086,22,Female,2024-04-24_12h36.22.282,jersey_experiment_5_v0,2023.2.2,Win32,84.74576271,,,,,,,,,,,,,,,,381.2131,382.507,382.507,383.5658,return,0.0333,,75.13020833,,,,,,FBP-OG-17.png,0.4,1.2,3,0.5,0,53,53,2,1,,,,,,,,,,,,,,,,,,,,,,,,,,,,,,,,,,,,,,,,
,,,,,SPR24_086,22,Female,2024-04-24_12h36.22.282,jersey_experiment_5_v0,2023.2.2,Win32,84.74576271,,,,,,,,,,,,,,,,383.5661,384.6128,384.6128,385.6483,return,0.1179,,85.28645833,,,,,,FBP-YG-91.png,0.45,1.2,30,0.25,0,54,54,29,1,,,,,,,,,,,,,,,,,,,,,,,,,,,,,,,,,,,,,,,,
,,,,,SPR24_086,22,Female,2024-04-24_12h36.22.282,jersey_experiment_5_v0,2023.2.2,Win32,84.74576271,,,,,,,,,,,,,,,,385.6485,386.9424,386.9424,388.0248,return,0.0024,,50.26041667,,,,,,FBP-RB-71.png,0.37,1.2,32,0.5,0,55,55,31,1,,,,,,,,,,,,,,,,,,,,,,,,,,,,,,,,,,,,,,,,
,,,,,SPR24_086,22,Female,2024-04-24_12h36.22.282,jersey_experiment_5_v0,2023.2.2,Win32,84.74576271,,,,,,,,,,,,,,,,388.0251,389.319,389.319,390.4602,return,0.4108,,88.15104167,,,,,,FBP-RB-91.png,0.43,1.2,44,0.5,0,56,56,43,1,,,,,,,,,,,,,,,,,,,,,,,,,,,,,,,,,,,,,,,,
,,,,,SPR24_086,22,Female,2024-04-24_12h36.22.282,jersey_experiment_5_v0,2023.2.2,Win32,84.74576271,,,,,,,,,,,,,,,,390.4605,391.5074,391.5074,393.1897,return,0.1494,,31.51041667,,,,,,FBP-PT-91.png,0.37,1.2,57,0.25,0,57,57,56,1,,,,,,,,,,,,,,,,,,,,,,,,,,,,,,,,,,,,,,,,
,,,,,SPR24_086,22,Female,2024-04-24_12h36.22.282,jersey_experiment_5_v0,2023.2.2,Win32,84.74576271,,,,,,,,,,,,,,,,393.19,394.2368,394.2368,395.7664,return,0.0761,,95.96354167,,,,,,FBP-PT-81.png,0.45,1.2,55,0.25,0,58,58,54,1,,,,,,,,,,,,,,,,,,,,,,,,,,,,,,,,,,,,,,,,
,,,,,SPR24_086,22,Female,2024-04-24_12h36.22.282,jersey_experiment_5_v0,2023.2.2,Win32,84.74576271,,,,,,,,,,,,,,,,395.7666,397.0608,397.0608,398.0368,return,0.0416,,97.13541667,,,,,,FBP-RB-81.png,0.43,1.2,39,0.5,0,59,59,38,1,,,,,,,,,,,,,,,,,,,,,,,,,,,,,,,,,,,,,,,,
,,,,,SPR24_086,22,Female,2024-04-24_12h36.22.282,jersey_experiment_5_v0,2023.2.2,Win32,84.74576271,,,,,,,,,,,,,,,,,,,,,,,,,,,,,,,,,,,,,,,398.0372,518.0299,,,,,,,,,,,,,,,,,,,,,,,,,,,,,,,,,,,,,,
,,,,,SPR24_086,22,Female,2024-04-24_12h36.22.282,jersey_experiment_5_v0,2023.2.2,Win32,84.74576271,,,,,,,,,,,,,,,,,,,,,,,,,,,,,,,,,,,,,,,,,518.03,520.4414,return,2.4033,,,,,,,,,,,,,,,,,,,,,,,,,,,,,,,,,,
,,,,,SPR24_086,22,Female,2024-04-24_12h36.22.282,jersey_experiment_5_v0,2023.2.2,Win32,84.74576271,,,,,,,,,,,,,,,,520.4477,521.7474,521.7474,524.6062,return,0.7533,,73.828125,,,,,,FBP-YG-17.png,0.43,1.2,19,0.5,,,,,,,,,,,,,0,0,0,18,1,,,,,,,,,,,,,,,,,,,,,,,,,,,,
,,,,,SPR24_086,22,Female,2024-04-24_12h36.22.282,jersey_experiment_5_v0,2023.2.2,Win32,84.74576271,,,,,,,,,,,,,,,,524.6067,525.6533,525.6533,526.7475,return,0.1437,,53.515625,,,,,,FBP-OG-91.png,0.4,1.2,13,0.25,,,,,,,,,,,,,0,1,1,12,1,,,,,,,,,,,,,,,,,,,,,,,,,,,,
,,,,,SPR24_086,22,Female,2024-04-24_12h36.22.282,jersey_experiment_5_v0,2023.2.2,Win32,84.74576271,,,,,,,,,,,,,,,,526.7476,528.0414,528.0414,528.6182,return,0.0155,,50.52083333,,,,,,FBP-PT-19.png,0.35,1.2,56,0.5,,,,,,,,,,,,,0,2,2,55,1,,,,,,,,,,,,,,,,,,,,,,,,,,,,
,,,,,SPR24_086,22,Female,2024-04-24_12h36.22.282,jersey_experiment_5_v0,2023.2.2,Win32,84.74576271,,,,,,,,,,,,,,,,528.6185,529.6651,529.6651,530.5241,return,0.1555,,70.703125,,,,,,FBP-RB-18.png,0.4,1.2,38,0.25,,,,,,,,,,,,,0,3,3,37,1,,,,,,,,,,,,,,,,,,,,,,,,,,,,
,,,,,SPR24_086,22,Female,2024-04-24_12h36.22.282,jersey_experiment_5_v0,2023.2.2,Win32,84.74576271,,,,,,,,,,,,,,,,530.5243,531.8181,531.8182,532.477,return,0.0848,,74.47916667,,,,,,FBP-YG-17.png,0.45,1.2,20,0.5,,,,,,,,,,,,,0,4,4,19,1,,,,,,,,,,,,,,,,,,,,,,,,,,,,
,,,,,SPR24_086,22,Female,2024-04-24_12h36.22.282,jersey_experiment_5_v0,2023.2.2,Win32,84.74576271,,,,,,,,,,,,,,,,532.4772,533.7712,533.7712,534.7123,return,0.3792,,66.53645833,,,,,,FBP-PT-18.png,0.4,1.2,53,0.5,,,,,,,,,,,,,0,5,5,52,1,,,,,,,,,,,,,,,,,,,,,,,,,,,,
,,,,,SPR24_086,22,Female,2024-04-24_12h36.22.282,jersey_experiment_5_v0,2023.2.2,Win32,84.74576271,,,,,,,,,,,,,,,,534.7126,536.0068,536.0068,536.783,return,0.0714,,60.67708333,,,,,,FBP-YG-17.png,0.37,1.2,17,0.5,,,,,,,,,,,,,0,6,6,16,1,,,,,,,,,,,,,,,,,,,,,,,,,,,,
,,,,,SPR24_086,22,Female,2024-04-24_12h36.22.282,jersey_experiment_5_v0,2023.2.2,Win32,84.74576271,,,,,,,,,,,,,,,,536.7833,538.0772,538.0772,538.6654,return,0.1907,,60.67708333,,,,,,FBP-PT-18.png,0.37,1.2,52,0.5,,,,,,,,,,,,,0,7,7,51,1,,,,,,,,,,,,,,,,,,,,,,,,,,,,
,,,,,SPR24_086,22,Female,2024-04-24_12h36.22.282,jersey_experiment_5_v0,2023.2.2,Win32,84.74576271,,,,,,,,,,,,,,,,538.6657,539.9596,539.9596,540.8419,return,0.0838,,32.421875,,,,,,FBP-PT-18.png,0.35,1.2,51,0.5,,,,,,,,,,,,,0,8,8,50,1,,,,,,,,,,,,,,,,,,,,,,,,,,,,
,,,,,SPR24_086,22,Female,2024-04-24_12h36.22.282,jersey_experiment_5_v0,2023.2.2,Win32,84.74576271,,,,,,,,,,,,,,,,540.8422,541.8891,541.8891,542.7362,return,0.2122,,32.94270833,,,,,,FBP-RB-18.png,0.35,1.2,36,0.25,,,,,,,,,,,,,0,9,9,35,1,,,,,,,,,,,,,,,,,,,,,,,,,,,,
,,,,,SPR24_086,22,Female,2024-04-24_12h36.22.282,jersey_experiment_5_v0,2023.2.2,Win32,84.74576271,,,,,,,,,,,,,,,,542.7365,544.0302,544.0303,545.7362,return,0.1706,,62.5,,,,,,FBP-PT-19.png,0.4,1.2,58,0.5,,,,,,,,,,,,,0,10,10,57,1,,,,,,,,,,,,,,,,,,,,,,,,,,,,
,,,,,SPR24_086,22,Female,2024-04-24_12h36.22.282,jersey_experiment_5_v0,2023.2.2,Win32,84.74576271,,,,,,,,,,,,,,,,545.7364,546.7834,546.7834,547.5481,return,0.1288,,62.36979167,,,,,,FBP-OG-91.png,0.37,1.2,12,0.25,,,,,,,,,,,,,0,11,11,11,1,,,,,,,,,,,,,,,,,,,,,,,,,,,,
,,,,,SPR24_086,22,Female,2024-04-24_12h36.22.282,jersey_experiment_5_v0,2023.2.2,Win32,84.74576271,,,,,,,,,,,,,,,,547.5482,548.5952,548.5953,549.5951,return,0.1204,,74.86979167,,,,,,FBP-RB-19.png,0.43,1.2,44,0.25,,,,,,,,,,,,,0,12,12,43,1,,,,,,,,,,,,,,,,,,,,,,,,,,,,
,,,,,SPR24_086,22,Female,2024-04-24_12h36.22.282,jersey_experiment_5_v0,2023.2.2,Win32,84.74576271,,,,,,,,,,,,,,,,549.5952,550.8893,550.8893,551.8775,return,0.0554,,33.984375,,,,,,FBP-YG-18.png,0.35,1.2,21,0.5,,,,,,,,,,,,,0,13,13,20,1,,,,,,,,,,,,,,,,,,,,,,,,,,,,
,,,,,SPR24_086,22,Female,2024-04-24_12h36.22.282,jersey_experiment_5_v0,2023.2.2,Win32,84.74576271,,,,,,,,,,,,,,,,551.8776,553.1717,553.1717,554.266,return,0.072,,89.453125,,,,,,FBP-PT-17.png,0.45,1.2,50,0.5,,,,,,,,,,,,,0,14,14,49,1,,,,,,,,,,,,,,,,,,,,,,,,,,,,
,,,,,SPR24_086,22,Female,2024-04-24_12h36.22.282,jersey_experiment_5_v0,2023.2.2,Win32,84.74576271,,,,,,,,,,,,,,,,554.2662,555.3131,555.3132,556.3837,return,0.0619,,98.4375,,,,,,FBP-RB-17.png,0.45,1.2,35,0.25,,,,,,,,,,,,,0,15,15,34,1,,,,,,,,,,,,,,,,,,,,,,,,,,,,
,,,,,SPR24_086,22,Female,2024-04-24_12h36.22.282,jersey_experiment_5_v0,2023.2.2,Win32,84.74576271,,,,,,,,,,,,,,,,556.3839,557.4307,557.4307,558.478,return,0.0145,,51.5625,,,,,,FBP-RB-17.png,0.35,1.2,31,0.25,,,,,,,,,,,,,0,16,16,30,1,,,,,,,,,,,,,,,,,,,,,,,,,,,,
,,,,,SPR24_086,22,Female,2024-04-24_12h36.22.282,jersey_experiment_5_v0,2023.2.2,Win32,84.74576271,,,,,,,,,,,,,,,,558.4782,559.5248,559.5249,560.3134,return,0.096,,50.91145833,,,,,,FBP-OG-81.png,0.37,1.2,7,0.25,,,,,,,,,,,,,0,17,17,6,1,,,,,,,,,,,,,,,,,,,,,,,,,,,,
,,,,,SPR24_086,22,Female,2024-04-24_12h36.22.282,jersey_experiment_5_v0,2023.2.2,Win32,84.74576271,,,,,,,,,,,,,,,,560.3137,561.6074,561.6074,562.8899,return,0.6251,,44.40104167,,,,,,FBP-YG-18.png,0.4,1.2,23,0.5,,,,,,,,,,,,,0,18,18,22,1,,,,,,,,,,,,,,,,,,,,,,,,,,,,
,,,,,SPR24_086,22,Female,2024-04-24_12h36.22.282,jersey_experiment_5_v0,2023.2.2,Win32,84.74576271,,,,,,,,,,,,,,,,562.8901,564.1842,564.1843,565.2548,return,0.4047,,72.265625,,,,,,FBP-YG-18.png,0.43,1.2,24,0.5,,,,,,,,,,,,,0,19,19,23,1,,,,,,,,,,,,,,,,,,,,,,,,,,,,
,,,,,SPR24_086,22,Female,2024-04-24_12h36.22.282,jersey_experiment_5_v0,2023.2.2,Win32,84.74576271,,,,,,,,,,,,,,,,565.2549,566.3017,566.3017,567.5608,return,0.0169,,25.91145833,,,,,,FBP-OG-91.png,0.35,1.2,11,0.25,,,,,,,,,,,,,0,20,20,10,1,,,,,,,,,,,,,,,,,,,,,,,,,,,,
,,,,,SPR24_086,22,Female,2024-04-24_12h36.22.282,jersey_experiment_5_v0,2023.2.2,Win32,84.74576271,,,,,,,,,,,,,,,,567.561,568.855,568.855,570.2548,return,0.1743,,60.28645833,,,,,,FBP-YG-19.png,0.4,1.2,28,0.5,,,,,,,,,,,,,0,21,21,27,1,,,,,,,,,,,,,,,,,,,,,,,,,,,,
,,,,,SPR24_086,22,Female,2024-04-24_12h36.22.282,jersey_experiment_5_v0,2023.2.2,Win32,84.74576271,,,,,,,,,,,,,,,,570.2549,571.5489,571.5489,573.2901,return,0.3568,,80.078125,,,,,,FBP-YG-19.png,0.45,1.2,30,0.5,,,,,,,,,,,,,0,22,22,29,1,,,,,,,,,,,,,,,,,,,,,,,,,,,,
,,,,,SPR24_086,22,Female,2024-04-24_12h36.22.282,jersey_experiment_5_v0,2023.2.2,Win32,84.74576271,,,,,,,,,,,,,,,,573.2903,574.5843,574.5843,575.6432,return,0.3555,,82.68229167,,,,,,FBP-YG-19.png,0.43,1.2,29,0.5,,,,,,,,,,,,,0,23,23,28,1,,,,,,,,,,,,,,,,,,,,,,,,,,,,
,,,,,SPR24_086,22,Female,2024-04-24_12h36.22.282,jersey_experiment_5_v0,2023.2.2,Win32,84.74576271,,,,,,,,,,,,,,,,575.6433,576.6904,576.6905,577.514,return,0.0485,,89.84375,,,,,,FBP-OG-81.png,0.4,1.2,8,0.25,,,,,,,,,,,,,0,24,24,7,1,,,,,,,,,,,,,,,,,,,,,,,,,,,,
,,,,,SPR24_086,22,Female,2024-04-24_12h36.22.282,jersey_experiment_5_v0,2023.2.2,Win32,84.74576271,,,,,,,,,,,,,,,,577.5142,578.5608,578.5608,579.514,return,0.0859,,62.890625,,,,,,FBP-OG-71.png,0.37,1.2,2,0.25,,,,,,,,,,,,,0,25,25,1,1,,,,,,,,,,,,,,,,,,,,,,,,,,,,
,,,,,SPR24_086,22,Female,2024-04-24_12h36.22.282,jersey_experiment_5_v0,2023.2.2,Win32,84.74576271,,,,,,,,,,,,,,,,579.5141,580.8082,580.8083,581.7729,return,0.132,,92.44791667,,,,,,FBP-PT-19.png,0.45,1.2,60,0.5,,,,,,,,,,,,,0,26,26,59,1,,,,,,,,,,,,,,,,,,,,,,,,,,,,
,,,,,SPR24_086,22,Female,2024-04-24_12h36.22.282,jersey_experiment_5_v0,2023.2.2,Win32,84.74576271,,,,,,,,,,,,,,,,581.773,582.82,582.82,584.7965,return,0.0575,,86.97916667,,,,,,FBP-OG-91.png,0.43,1.2,14,0.25,,,,,,,,,,,,,0,27,27,13,1,,,,,,,,,,,,,,,,,,,,,,,,,,,,
,,,,,SPR24_086,22,Female,2024-04-24_12h36.22.282,jersey_experiment_5_v0,2023.2.2,Win32,84.74576271,,,,,,,,,,,,,,,,584.7967,586.0906,586.0907,587.1024,return,0.0234,,25.26041667,,,,,,FBP-PT-19.png,0.37,1.2,57,0.5,,,,,,,,,,,,,0,28,28,56,1,,,,,,,,,,,,,,,,,,,,,,,,,,,,
,,,,,SPR24_086,22,Female,2024-04-24_12h36.22.282,jersey_experiment_5_v0,2023.2.2,Win32,84.74576271,,,,,,,,,,,,,,,,587.1026,588.3966,588.3966,589.5614,return,0.0963,,87.109375,,,,,,FBP-YG-17.png,0.4,1.2,18,0.5,,,,,,,,,,,,,0,29,29,17,1,,,,,,,,,,,,,,,,,,,,,,,,,,,,
,,,,,SPR24_086,22,Female,2024-04-24_12h36.22.282,jersey_experiment_5_v0,2023.2.2,Win32,84.74576271,,,,,,,,,,,,,,,,589.5617,590.6084,590.6084,591.6789,return,0.1093,,97.13541667,,,,,,FBP-OG-81.png,0.45,1.2,10,0.25,,,,,,,,,,,,,0,30,30,9,1,,,,,,,,,,,,,,,,,,,,,,,,,,,,
,,,,,SPR24_086,22,Female,2024-04-24_12h36.22.282,jersey_experiment_5_v0,2023.2.2,Win32,84.74576271,,,,,,,,,,,,,,,,591.6791,592.9734,592.9734,594.0791,return,0.0477,,69.01041667,,,,,,FBP-PT-17.png,0.37,1.2,47,0.5,,,,,,,,,,,,,0,31,31,46,1,,,,,,,,,,,,,,,,,,,,,,,,,,,,
,,,,,SPR24_086,22,Female,2024-04-24_12h36.22.282,jersey_experiment_5_v0,2023.2.2,Win32,84.74576271,,,,,,,,,,,,,,,,594.0794,595.1262,595.1262,596.491,return,0.3317,,95.57291667,,,,,,FBP-OG-91.png,0.45,1.2,15,0.25,,,,,,,,,,,,,0,32,32,14,1,,,,,,,,,,,,,,,,,,,,,,,,,,,,
,,,,,SPR24_086,22,Female,2024-04-24_12h36.22.282,jersey_experiment_5_v0,2023.2.2,Win32,84.74576271,,,,,,,,,,,,,,,,596.4912,597.5382,597.5382,598.3146,return,0.0949,,93.359375,,,,,,FBP-OG-71.png,0.45,1.2,5,0.25,,,,,,,,,,,,,0,33,33,4,1,,,,,,,,,,,,,,,,,,,,,,,,,,,,
,,,,,SPR24_086,22,Female,2024-04-24_12h36.22.282,jersey_experiment_5_v0,2023.2.2,Win32,84.74576271,,,,,,,,,,,,,,,,598.3147,599.6089,599.609,600.5852,return,0.1222,,26.04166667,,,,,,FBP-YG-18.png,0.37,1.2,22,0.5,,,,,,,,,,,,,0,34,34,21,1,,,,,,,,,,,,,,,,,,,,,,,,,,,,
,,,,,SPR24_086,22,Female,2024-04-24_12h36.22.282,jersey_experiment_5_v0,2023.2.2,Win32,84.74576271,,,,,,,,,,,,,,,,600.5853,601.6324,601.6325,602.6793,return,0.0534,,90.88541667,,,,,,FBP-RB-19.png,0.45,1.2,45,0.25,,,,,,,,,,,,,0,35,35,44,1,,,,,,,,,,,,,,,,,,,,,,,,,,,,
,,,,,SPR24_086,22,Female,2024-04-24_12h36.22.282,jersey_experiment_5_v0,2023.2.2,Win32,84.74576271,,,,,,,,,,,,,,,,602.6795,603.7266,603.7266,605.1971,return,0.198,,93.22916667,,,,,,FBP-OG-71.png,0.43,1.2,4,0.25,,,,,,,,,,,,,0,36,36,3,1,,,,,,,,,,,,,,,,,,,,,,,,,,,,
,,,,,SPR24_086,22,Female,2024-04-24_12h36.22.282,jersey_experiment_5_v0,2023.2.2,Win32,84.74576271,,,,,,,,,,,,,,,,605.1973,606.2445,606.2445,607.6443,return,0.1282,,28.125,,,,,,FBP-RB-18.png,0.37,1.2,37,0.25,,,,,,,,,,,,,0,37,37,36,1,,,,,,,,,,,,,,,,,,,,,,,,,,,,
,,,,,SPR24_086,22,Female,2024-04-24_12h36.22.282,jersey_experiment_5_v0,2023.2.2,Win32,84.74576271,,,,,,,,,,,,,,,,607.6446,608.6914,608.6914,610.1856,return,0.1546,,94.53125,,,,,,FBP-RB-17.png,0.43,1.2,34,0.25,,,,,,,,,,,,,0,38,38,33,1,,,,,,,,,,,,,,,,,,,,,,,,,,,,
,,,,,SPR24_086,22,Female,2024-04-24_12h36.22.282,jersey_experiment_5_v0,2023.2.2,Win32,84.74576271,,,,,,,,,,,,,,,,610.1858,611.4798,611.4798,613.0444,return,0.0679,,91.796875,,,,,,FBP-PT-18.png,0.43,1.2,54,0.5,,,,,,,,,,,,,0,39,39,53,1,,,,,,,,,,,,,,,,,,,,,,,,,,,,
,,,,,SPR24_086,22,Female,2024-04-24_12h36.22.282,jersey_experiment_5_v0,2023.2.2,Win32,84.74576271,,,,,,,,,,,,,,,,613.0446,614.0915,614.0915,615.527,return,0.0772,,26.69270833,,,,,,FBP-RB-19.png,0.37,1.2,42,0.25,,,,,,,,,,,,,0,40,40,41,1,,,,,,,,,,,,,,,,,,,,,,,,,,,,
,,,,,SPR24_086,22,Female,2024-04-24_12h36.22.282,jersey_experiment_5_v0,2023.2.2,Win32,84.74576271,,,,,,,,,,,,,,,,615.5272,616.5742,616.5743,617.8684,return,0.0472,,90.625,,,,,,FBP-OG-81.png,0.43,1.2,9,0.25,,,,,,,,,,,,,0,41,41,8,1,,,,,,,,,,,,,,,,,,,,,,,,,,,,
,,,,,SPR24_086,22,Female,2024-04-24_12h36.22.282,jersey_experiment_5_v0,2023.2.2,Win32,84.74576271,,,,,,,,,,,,,,,,617.8686,618.9153,618.9153,619.7271,return,0.0709,,90.75520833,,,,,,FBP-RB-18.png,0.45,1.2,40,0.25,,,,,,,,,,,,,0,42,42,39,1,,,,,,,,,,,,,,,,,,,,,,,,,,,,
,,,,,SPR24_086,22,Female,2024-04-24_12h36.22.282,jersey_experiment_5_v0,2023.2.2,Win32,84.74576271,,,,,,,,,,,,,,,,619.7273,621.0214,621.0214,622.3273,return,0.1336,,14.71354167,,,,,,FBP-YG-19.png,0.35,1.2,26,0.5,,,,,,,,,,,,,0,43,43,25,1,,,,,,,,,,,,,,,,,,,,,,,,,,,,
,,,,,SPR24_086,22,Female,2024-04-24_12h36.22.282,jersey_experiment_5_v0,2023.2.2,Win32,84.74576271,,,,,,,,,,,,,,,,622.3275,623.6215,623.6215,625.1743,return,0.6424,,42.83854167,,,,,,FBP-PT-17.png,0.4,1.2,48,0.5,,,,,,,,,,,,,0,44,44,47,1,,,,,,,,,,,,,,,,,,,,,,,,,,,,
,,,,,SPR24_086,22,Female,2024-04-24_12h36.22.282,jersey_experiment_5_v0,2023.2.2,Win32,84.74576271,,,,,,,,,,,,,,,,625.1745,626.2216,626.2216,627.1156,return,0.1086,,56.640625,,,,,,FBP-RB-19.png,0.4,1.2,43,0.25,,,,,,,,,,,,,0,45,45,42,1,,,,,,,,,,,,,,,,,,,,,,,,,,,,
,,,,,SPR24_086,22,Female,2024-04-24_12h36.22.282,jersey_experiment_5_v0,2023.2.2,Win32,84.74576271,,,,,,,,,,,,,,,,627.1158,628.1627,628.1628,629.3862,return,0.131,,26.04166667,,,,,,FBP-OG-81.png,0.35,1.2,6,0.25,,,,,,,,,,,,,0,46,46,5,1,,,,,,,,,,,,,,,,,,,,,,,,,,,,
,,,,,SPR24_086,22,Female,2024-04-24_12h36.22.282,jersey_experiment_5_v0,2023.2.2,Win32,84.74576271,,,,,,,,,,,,,,,,629.3864,630.4334,630.4335,631.3981,return,0.0427,,41.015625,,,,,,FBP-RB-19.png,0.35,1.2,41,0.25,,,,,,,,,,,,,0,47,47,40,1,,,,,,,,,,,,,,,,,,,,,,,,,,,,
,,,,,SPR24_086,22,Female,2024-04-24_12h36.22.282,jersey_experiment_5_v0,2023.2.2,Win32,84.74576271,,,,,,,,,,,,,,,,631.3982,632.4452,632.4452,633.1628,return,0.0851,,50.52083333,,,,,,FBP-RB-17.png,0.37,1.2,32,0.25,,,,,,,,,,,,,0,48,48,31,1,,,,,,,,,,,,,,,,,,,,,,,,,,,,
,,,,,SPR24_086,22,Female,2024-04-24_12h36.22.282,jersey_experiment_5_v0,2023.2.2,Win32,84.74576271,,,,,,,,,,,,,,,,633.163,634.4571,634.4572,635.0333,return,0.0745,,85.41666667,,,,,,FBP-PT-17.png,0.43,1.2,49,0.5,,,,,,,,,,,,,0,49,49,48,1,,,,,,,,,,,,,,,,,,,,,,,,,,,,
,,,,,SPR24_086,22,Female,2024-04-24_12h36.22.282,jersey_experiment_5_v0,2023.2.2,Win32,84.74576271,,,,,,,,,,,,,,,,635.0335,636.0807,636.0807,636.9043,return,0.182,,89.32291667,,,,,,FBP-RB-17.png,0.4,1.2,33,0.25,,,,,,,,,,,,,0,50,50,32,1,,,,,,,,,,,,,,,,,,,,,,,,,,,,
,,,,,SPR24_086,22,Female,2024-04-24_12h36.22.282,jersey_experiment_5_v0,2023.2.2,Win32,84.74576271,,,,,,,,,,,,,,,,636.9044,638.1985,638.1986,639.4219,return,0.0707,,53.25520833,,,,,,FBP-YG-19.png,0.37,1.2,27,0.5,,,,,,,,,,,,,0,51,51,26,1,,,,,,,,,,,,,,,,,,,,,,,,,,,,
,,,,,SPR24_086,22,Female,2024-04-24_12h36.22.282,jersey_experiment_5_v0,2023.2.2,Win32,84.74576271,,,,,,,,,,,,,,,,639.4221,640.7162,640.7162,641.328,return,0.0943,,94.27083333,,,,,,FBP-YG-18.png,0.45,1.2,25,0.5,,,,,,,,,,,,,0,52,52,24,1,,,,,,,,,,,,,,,,,,,,,,,,,,,,
,,,,,SPR24_086,22,Female,2024-04-24_12h36.22.282,jersey_experiment_5_v0,2023.2.2,Win32,84.74576271,,,,,,,,,,,,,,,,641.3281,642.6221,642.6222,643.6927,return,0.0714,,50.13020833,,,,,,FBP-YG-17.png,0.35,1.2,16,0.5,,,,,,,,,,,,,0,53,53,15,1,,,,,,,,,,,,,,,,,,,,,,,,,,,,
,,,,,SPR24_086,22,Female,2024-04-24_12h36.22.282,jersey_experiment_5_v0,2023.2.2,Win32,84.74576271,,,,,,,,,,,,,,,,643.6929,644.7397,644.7397,645.6222,return,0.0164,,82.94270833,,,,,,FBP-RB-18.png,0.43,1.2,39,0.25,,,,,,,,,,,,,0,54,54,38,1,,,,,,,,,,,,,,,,,,,,,,,,,,,,
,,,,,SPR24_086,22,Female,2024-04-24_12h36.22.282,jersey_experiment_5_v0,2023.2.2,Win32,84.74576271,,,,,,,,,,,,,,,,645.6224,646.9161,646.9162,648.0222,return,0.0781,,32.03125,,,,,,FBP-PT-17.png,0.35,1.2,46,0.5,,,,,,,,,,,,,0,55,55,45,1,,,,,,,,,,,,,,,,,,,,,,,,,,,,
,,,,,SPR24_086,22,Female,2024-04-24_12h36.22.282,jersey_experiment_5_v0,2023.2.2,Win32,84.74576271,,,,,,,,,,,,,,,,648.0224,649.0692,649.0693,650.0692,return,0.0175,,64.453125,,,,,,FBP-OG-71.png,0.4,1.2,3,0.25,,,,,,,,,,,,,0,56,56,2,1,,,,,,,,,,,,,,,,,,,,,,,,,,,,
,,,,,SPR24_086,22,Female,2024-04-24_12h36.22.282,jersey_experiment_5_v0,2023.2.2,Win32,84.74576271,,,,,,,,,,,,,,,,650.0693,651.3636,651.3637,651.9517,return,0.0097,,92.31770833,,,,,,FBP-PT-18.png,0.45,1.2,55,0.5,,,,,,,,,,,,,0,57,57,54,1,,,,,,,,,,,,,,,,,,,,,,,,,,,,
,,,,,SPR24_086,22,Female,2024-04-24_12h36.22.282,jersey_experiment_5_v0,2023.2.2,Win32,84.74576271,,,,,,,,,,,,,,,,651.9519,652.9989,652.999,654.2812,return,0.0277,,31.25,,,,,,FBP-OG-71.png,0.35,1.2,1,0.25,,,,,,,,,,,,,0,58,58,0,1,,,,,,,,,,,,,,,,,,,,,,,,,,,,
,,,,,SPR24_086,22,Female,2024-04-24_12h36.22.282,jersey_experiment_5_v0,2023.2.2,Win32,84.74576271,,,,,,,,,,,,,,,,654.2814,655.5754,655.5754,656.6812,return,0.0984,,83.07291667,,,,,,FBP-PT-19.png,0.43,1.2,59,0.5,,,,,,,,,,,,,0,59,59,58,1,,,,,,,,,,,,,,,,,,,,,,,,,,,,
,,,,,SPR24_086,22,Female,2024-04-24_12h36.22.282,jersey_experiment_5_v0,2023.2.2,Win32,84.74576271,,,,,,,,,,,,,,,,656.6828,657.9757,657.9757,658.6463,return,0.0524,,60.9375,,,,,,FBP-YG-81.png,0.37,1.2,22,0.5,,,,,,,,,,,,,,,,,,0,0,0,21,1,,,,,,,,,,,,,,,,,,,,,,,
,,,,,SPR24_086,22,Female,2024-04-24_12h36.22.282,jersey_experiment_5_v0,2023.2.2,Win32,84.74576271,,,,,,,,,,,,,,,,658.6466,659.9403,659.9404,660.9168,return,0.0653,,31.38020833,,,,,,FBP-YG-81.png,0.35,1.2,21,0.5,,,,,,,,,,,,,,,,,,0,1,1,20,1,,,,,,,,,,,,,,,,,,,,,,,
,,,,,SPR24_086,22,Female,2024-04-24_12h36.22.282,jersey_experiment_5_v0,2023.2.2,Win32,84.74576271,,,,,,,,,,,,,,,,660.9169,661.964,661.964,662.4934,return,0.0556,,31.38020833,,,,,,FBP-RB-81.png,0.35,1.2,36,0.25,,,,,,,,,,,,,,,,,,0,2,2,35,1,,,,,,,,,,,,,,,,,,,,,,,
,,,,,SPR24_086,22,Female,2024-04-24_12h36.22.282,jersey_experiment_5_v0,2023.2.2,Win32,84.74576271,,,,,,,,,,,,,,,,662.4935,663.7874,663.7874,665.4345,return,0.7327,,55.46875,,,,,,FBP-YG-91.png,0.4,1.2,28,0.5,,,,,,,,,,,,,,,,,,0,3,3,27,1,,,,,,,,,,,,,,,,,,,,,,,
,,,,,SPR24_086,22,Female,2024-04-24_12h36.22.282,jersey_experiment_5_v0,2023.2.2,Win32,84.74576271,,,,,,,,,,,,,,,,665.4347,666.7287,666.7288,667.3994,return,0.0747,,52.86458333,,,,,,FBP-PT-71.png,0.4,1.2,48,0.5,,,,,,,,,,,,,,,,,,0,4,4,47,1,,,,,,,,,,,,,,,,,,,,,,,
,,,,,SPR24_086,22,Female,2024-04-24_12h36.22.282,jersey_experiment_5_v0,2023.2.2,Win32,84.74576271,,,,,,,,,,,,,,,,667.3996,668.4464,668.4464,669.5406,return,0.0067,,85.41666667,,,,,,FBP-OG-18.png,0.4,1.2,8,0.25,,,,,,,,,,,,,,,,,,0,5,5,7,1,,,,,,,,,,,,,,,,,,,,,,,
,,,,,SPR24_086,22,Female,2024-04-24_12h36.22.282,jersey_experiment_5_v0,2023.2.2,Win32,84.74576271,,,,,,,,,,,,,,,,669.5407,670.5877,670.5877,671.7055,return,0.0252,,35.67708333,,,,,,FBP-OG-19.png,0.35,1.2,11,0.25,,,,,,,,,,,,,,,,,,0,6,6,10,1,,,,,,,,,,,,,,,,,,,,,,,
,,,,,SPR24_086,22,Female,2024-04-24_12h36.22.282,jersey_experiment_5_v0,2023.2.2,Win32,84.74576271,,,,,,,,,,,,,,,,671.7056,672.9995,672.9996,673.8468,return,0.0513,,84.11458333,,,,,,FBP-PT-71.png,0.43,1.2,49,0.5,,,,,,,,,,,,,,,,,,0,7,7,48,1,,,,,,,,,,,,,,,,,,,,,,,
,,,,,SPR24_086,22,Female,2024-04-24_12h36.22.282,jersey_experiment_5_v0,2023.2.2,Win32,84.74576271,,,,,,,,,,,,,,,,673.847,674.8936,674.8936,676.0231,return,0.0156,,54.03645833,,,,,,FBP-RB-91.png,0.37,1.2,42,0.25,,,,,,,,,,,,,,,,,,0,8,8,41,1,,,,,,,,,,,,,,,,,,,,,,,
,,,,,SPR24_086,22,Female,2024-04-24_12h36.22.282,jersey_experiment_5_v0,2023.2.2,Win32,84.74576271,,,,,,,,,,,,,,,,676.0232,677.0702,677.0703,678.7412,return,0.4061,,52.86458333,,,,,,FBP-RB-71.png,0.35,1.2,31,0.25,,,,,,,,,,,,,,,,,,0,9,9,30,1,,,,,,,,,,,,,,,,,,,,,,,
,,,,,SPR24_086,22,Female,2024-04-24_12h36.22.282,jersey_experiment_5_v0,2023.2.2,Win32,84.74576271,,,,,,,,,,,,,,,,678.7415,679.7881,679.7882,680.9057,return,0.0629,,66.796875,,,,,,FBP-RB-91.png,0.4,1.2,43,0.25,,,,,,,,,,,,,,,,,,0,10,10,42,1,,,,,,,,,,,,,,,,,,,,,,,
,,,,,SPR24_086,22,Female,2024-04-24_12h36.22.282,jersey_experiment_5_v0,2023.2.2,Win32,84.74576271,,,,,,,,,,,,,,,,680.906,681.9527,681.9528,682.9175,return,0.041,,71.09375,,,,,,FBP-OG-19.png,0.4,1.2,13,0.25,,,,,,,,,,,,,,,,,,0,11,11,12,1,,,,,,,,,,,,,,,,,,,,,,,
,,,,,SPR24_086,22,Female,2024-04-24_12h36.22.282,jersey_experiment_5_v0,2023.2.2,Win32,84.74576271,,,,,,,,,,,,,,,,682.9177,684.2117,684.2117,685.1295,return,0.2392,,81.640625,,,,,,FBP-PT-71.png,0.37,1.2,47,0.5,,,,,,,,,,,,,,,,,,0,12,12,46,1,,,,,,,,,,,,,,,,,,,,,,,
,,,,,SPR24_086,22,Female,2024-04-24_12h36.22.282,jersey_experiment_5_v0,2023.2.2,Win32,84.74576271,,,,,,,,,,,,,,,,685.1296,686.4236,686.4236,687.0003,return,0.0501,,89.71354167,,,,,,FBP-YG-81.png,0.4,1.2,23,0.5,,,,,,,,,,,,,,,,,,0,13,13,22,1,,,,,,,,,,,,,,,,,,,,,,,
,,,,,SPR24_086,22,Female,2024-04-24_12h36.22.282,jersey_experiment_5_v0,2023.2.2,Win32,84.74576271,,,,,,,,,,,,,,,,687.0004,688.0471,688.0471,688.9179,return,0.182,,93.09895833,,,,,,FBP-OG-19.png,0.45,1.2,15,0.25,,,,,,,,,,,,,,,,,,0,14,14,14,1,,,,,,,,,,,,,,,,,,,,,,,
,,,,,SPR24_086,22,Female,2024-04-24_12h36.22.282,jersey_experiment_5_v0,2023.2.2,Win32,84.74576271,,,,,,,,,,,,,,,,688.9181,689.9649,689.965,691.1297,return,0.0981,,43.61979167,,,,,,FBP-OG-18.png,0.35,1.2,6,0.25,,,,,,,,,,,,,,,,,,0,15,15,5,1,,,,,,,,,,,,,,,,,,,,,,,
,,,,,SPR24_086,22,Female,2024-04-24_12h36.22.282,jersey_experiment_5_v0,2023.2.2,Win32,84.74576271,,,,,,,,,,,,,,,,691.1298,692.4238,692.4239,693.7062,return,0.2742,,29.81770833,,,,,,FBP-YG-71.png,0.4,1.2,18,0.5,,,,,,,,,,,,,,,,,,0,16,16,17,1,,,,,,,,,,,,,,,,,,,,,,,
,,,,,SPR24_086,22,Female,2024-04-24_12h36.22.282,jersey_experiment_5_v0,2023.2.2,Win32,84.74576271,,,,,,,,,,,,,,,,693.7065,694.7534,694.7534,695.6121,return,0.1091,,81.11979167,,,,,,FBP-RB-81.png,0.43,1.2,39,0.25,,,,,,,,,,,,,,,,,,0,17,17,38,1,,,,,,,,,,,,,,,,,,,,,,,
,,,,,SPR24_086,22,Female,2024-04-24_12h36.22.282,jersey_experiment_5_v0,2023.2.2,Win32,84.74576271,,,,,,,,,,,,,,,,695.6124,696.6592,696.6593,697.6475,return,0.1417,,51.82291667,,,,,,FBP-RB-71.png,0.37,1.2,32,0.25,,,,,,,,,,,,,,,,,,0,18,18,31,1,,,,,,,,,,,,,,,,,,,,,,,
,,,,,SPR24_086,22,Female,2024-04-24_12h36.22.282,jersey_experiment_5_v0,2023.2.2,Win32,84.74576271,,,,,,,,,,,,,,,,697.6476,698.6947,698.6947,703.3065,return,0.0601,,87.76041667,,,,,,FBP-OG-18.png,0.45,1.2,10,0.25,,,,,,,,,,,,,,,,,,0,19,19,9,1,,,,,,,,,,,,,,,,,,,,,,,
,,,,,SPR24_086,22,Female,2024-04-24_12h36.22.282,jersey_experiment_5_v0,2023.2.2,Win32,84.74576271,,,,,,,,,,,,,,,,703.3067,704.6049,704.6049,705.9301,return,0.0379,,91.53645833,,,,,,FBP-YG-91.png,0.43,1.2,29,0.5,,,,,,,,,,,,,,,,,,0,20,20,28,1,,,,,,,,,,,,,,,,,,,,,,,
,,,,,SPR24_086,22,Female,2024-04-24_12h36.22.282,jersey_experiment_5_v0,2023.2.2,Win32,84.74576271,,,,,,,,,,,,,,,,705.9303,707.2243,707.2244,707.7687,return,0.0577,,91.53645833,,,,,,FBP-PT-91.png,0.45,1.2,60,0.5,,,,,,,,,,,,,,,,,,0,21,21,59,1,,,,,,,,,,,,,,,,,,,,,,,
,,,,,SPR24_086,22,Female,2024-04-24_12h36.22.282,jersey_experiment_5_v0,2023.2.2,Win32,84.74576271,,,,,,,,,,,,,,,,707.7688,708.8125,708.8125,710.451,return,0.2698,,86.06770833,,,,,,FBP-RB-71.png,0.43,1.2,34,0.25,,,,,,,,,,,,,,,,,,0,22,22,33,1,,,,,,,,,,,,,,,,,,,,,,,
,,,,,SPR24_086,22,Female,2024-04-24_12h36.22.282,jersey_experiment_5_v0,2023.2.2,Win32,84.74576271,,,,,,,,,,,,,,,,710.4512,711.7537,711.7537,712.6126,return,0.1614,,90.88541667,,,,,,FBP-YG-91.png,0.45,1.2,30,0.5,,,,,,,,,,,,,,,,,,0,23,23,29,1,,,,,,,,,,,,,,,,,,,,,,,
,,,,,SPR24_086,22,Female,2024-04-24_12h36.22.282,jersey_experiment_5_v0,2023.2.2,Win32,84.74576271,,,,,,,,,,,,,,,,712.6128,713.6638,713.6638,716.4984,return,0.2462,,86.58854167,,,,,,FBP-RB-81.png,0.4,1.2,38,0.25,,,,,,,,,,,,,,,,,,0,24,24,37,1,,,,,,,,,,,,,,,,,,,,,,,
,,,,,SPR24_086,22,Female,2024-04-24_12h36.22.282,jersey_experiment_5_v0,2023.2.2,Win32,84.74576271,,,,,,,,,,,,,,,,716.4985,717.5423,717.5423,719.9339,return,0.0709,,62.36979167,,,,,,FBP-OG-17.png,0.35,1.2,1,0.25,,,,,,,,,,,,,,,,,,0,25,25,0,1,,,,,,,,,,,,,,,,,,,,,,,
,,,,,SPR24_086,22,Female,2024-04-24_12h36.22.282,jersey_experiment_5_v0,2023.2.2,Win32,84.74576271,,,,,,,,,,,,,,,,719.9341,721.2366,721.2366,722.1659,return,0.0424,,91.40625,,,,,,FBP-PT-91.png,0.35,1.2,56,0.5,,,,,,,,,,,,,,,,,,0,26,26,55,1,,,,,,,,,,,,,,,,,,,,,,,
,,,,,SPR24_086,22,Female,2024-04-24_12h36.22.282,jersey_experiment_5_v0,2023.2.2,Win32,84.74576271,,,,,,,,,,,,,,,,722.1662,723.4601,723.4602,723.8954,return,0.0056,,91.40625,,,,,,FBP-YG-91.png,0.35,1.2,26,0.5,,,,,,,,,,,,,,,,,,0,27,27,25,1,,,,,,,,,,,,,,,,,,,,,,,
,,,,,SPR24_086,22,Female,2024-04-24_12h36.22.282,jersey_experiment_5_v0,2023.2.2,Win32,84.74576271,,,,,,,,,,,,,,,,723.8955,724.9426,724.9426,726.9073,return,0.0816,,87.5,,,,,,FBP-OG-19.png,0.37,1.2,12,0.25,,,,,,,,,,,,,,,,,,0,28,28,11,1,,,,,,,,,,,,,,,,,,,,,,,
,,,,,SPR24_086,22,Female,2024-04-24_12h36.22.282,jersey_experiment_5_v0,2023.2.2,Win32,84.74576271,,,,,,,,,,,,,,,,726.9075,728.2055,728.2055,729.0486,return,0.0149,,87.76041667,,,,,,FBP-PT-81.png,0.45,1.2,55,0.5,,,,,,,,,,,,,,,,,,0,29,29,54,1,,,,,,,,,,,,,,,,,,,,,,,
,,,,,SPR24_086,22,Female,2024-04-24_12h36.22.282,jersey_experiment_5_v0,2023.2.2,Win32,84.74576271,,,,,,,,,,,,,,,,729.0488,730.3427,730.3427,731.084,return,0.0708,,89.453125,,,,,,FBP-YG-71.png,0.43,1.2,19,0.5,,,,,,,,,,,,,,,,,,0,30,30,18,1,,,,,,,,,,,,,,,,,,,,,,,
,,,,,SPR24_086,22,Female,2024-04-24_12h36.22.282,jersey_experiment_5_v0,2023.2.2,Win32,84.74576271,,,,,,,,,,,,,,,,731.0842,732.3782,732.3783,732.837,return,0.0655,,89.453125,,,,,,FBP-PT-71.png,0.45,1.2,50,0.5,,,,,,,,,,,,,,,,,,0,31,31,49,1,,,,,,,,,,,,,,,,,,,,,,,
,,,,,SPR24_086,22,Female,2024-04-24_12h36.22.282,jersey_experiment_5_v0,2023.2.2,Win32,84.74576271,,,,,,,,,,,,,,,,732.8371,733.884,733.8841,734.3783,return,0.0142,,89.453125,,,,,,FBP-RB-81.png,0.45,1.2,40,0.25,,,,,,,,,,,,,,,,,,0,32,32,39,1,,,,,,,,,,,,,,,,,,,,,,,
,,,,,SPR24_086,22,Female,2024-04-24_12h36.22.282,jersey_experiment_5_v0,2023.2.2,Win32,84.74576271,,,,,,,,,,,,,,,,734.3785,735.6724,735.6724,737.1475,return,0.3296,,89.453125,,,,,,FBP-YG-71.png,0.45,1.2,20,0.5,,,,,,,,,,,,,,,,,,0,33,33,19,1,,,,,,,,,,,,,,,,,,,,,,,
,,,,,SPR24_086,22,Female,2024-04-24_12h36.22.282,jersey_experiment_5_v0,2023.2.2,Win32,84.74576271,,,,,,,,,,,,,,,,737.1476,738.449,738.4491,739.8171,return,1.1868,,80.72916667,,,,,,FBP-PT-91.png,0.37,1.2,57,0.5,,,,,,,,,,,,,,,,,,0,34,34,56,1,,,,,,,,,,,,,,,,,,,,,,,
,,,,,SPR24_086,22,Female,2024-04-24_12h36.22.282,jersey_experiment_5_v0,2023.2.2,Win32,84.74576271,,,,,,,,,,,,,,,,739.8172,741.1107,741.1107,741.9947,return,0.0004,,80.859375,,,,,,FBP-PT-81.png,0.37,1.2,52,0.5,,,,,,,,,,,,,,,,,,0,35,35,51,1,,,,,,,,,,,,,,,,,,,,,,,
,,,,,SPR24_086,22,Female,2024-04-24_12h36.22.282,jersey_experiment_5_v0,2023.2.2,Win32,84.74576271,,,,,,,,,,,,,,,,741.9949,743.2994,743.2994,744.0373,return,0.1824,,86.328125,,,,,,FBP-PT-91.png,0.43,1.2,59,0.5,,,,,,,,,,,,,,,,,,0,36,36,58,1,,,,,,,,,,,,,,,,,,,,,,,
,,,,,SPR24_086,22,Female,2024-04-24_12h36.22.282,jersey_experiment_5_v0,2023.2.2,Win32,84.74576271,,,,,,,,,,,,,,,,744.0375,745.0846,745.0846,747.1712,return,0.118,,75.65104167,,,,,,FBP-OG-19.png,0.43,1.2,14,0.25,,,,,,,,,,,,,,,,,,0,37,37,13,1,,,,,,,,,,,,,,,,,,,,,,,
,,,,,SPR24_086,22,Female,2024-04-24_12h36.22.282,jersey_experiment_5_v0,2023.2.2,Win32,84.74576271,,,,,,,,,,,,,,,,747.1713,748.214,748.2141,749.461,return,0.2647,,57.94270833,,,,,,FBP-RB-81.png,0.37,1.2,37,0.25,,,,,,,,,,,,,,,,,,0,38,38,36,1,,,,,,,,,,,,,,,,,,,,,,,
,,,,,SPR24_086,22,Female,2024-04-24_12h36.22.282,jersey_experiment_5_v0,2023.2.2,Win32,84.74576271,,,,,,,,,,,,,,,,749.4611,750.5122,750.5123,751.5585,return,0.105,,91.53645833,,,,,,FBP-RB-91.png,0.45,1.2,45,0.25,,,,,,,,,,,,,,,,,,0,39,39,44,1,,,,,,,,,,,,,,,,,,,,,,,
,,,,,SPR24_086,22,Female,2024-04-24_12h36.22.282,jersey_experiment_5_v0,2023.2.2,Win32,84.74576271,,,,,,,,,,,,,,,,751.5586,752.6023,752.6024,753.5351,return,0.0476,,80.98958333,,,,,,FBP-OG-17.png,0.37,1.2,2,0.25,,,,,,,,,,,,,,,,,,0,40,40,1,1,,,,,,,,,,,,,,,,,,,,,,,
,,,,,SPR24_086,22,Female,2024-04-24_12h36.22.282,jersey_experiment_5_v0,2023.2.2,Win32,84.74576271,,,,,,,,,,,,,,,,753.5353,754.5829,754.583,756.2614,return,0.2177,,51.30208333,,,,,,FBP-RB-91.png,0.35,1.2,41,0.25,,,,,,,,,,,,,,,,,,0,41,41,40,1,,,,,,,,,,,,,,,,,,,,,,,
,,,,,SPR24_086,22,Female,2024-04-24_12h36.22.282,jersey_experiment_5_v0,2023.2.2,Win32,84.74576271,,,,,,,,,,,,,,,,756.2615,757.5585,757.5585,758.4528,return,0.0814,,65.36458333,,,,,,FBP-PT-81.png,0.43,1.2,54,0.5,,,,,,,,,,,,,,,,,,0,42,42,53,1,,,,,,,,,,,,,,,,,,,,,,,
,,,,,SPR24_086,22,Female,2024-04-24_12h36.22.282,jersey_experiment_5_v0,2023.2.2,Win32,84.74576271,,,,,,,,,,,,,,,,758.453,759.7556,759.7556,760.3791,return,0.0373,,70.44270833,,,,,,FBP-PT-91.png,0.4,1.2,58,0.5,,,,,,,,,,,,,,,,,,0,43,43,57,1,,,,,,,,,,,,,,,,,,,,,,,
,,,,,SPR24_086,22,Female,2024-04-24_12h36.22.282,jersey_experiment_5_v0,2023.2.2,Win32,84.74576271,,,,,,,,,,,,,,,,760.3793,761.4262,761.4263,762.8895,return,0.0603,,82.16145833,,,,,,FBP-OG-18.png,0.43,1.2,9,0.25,,,,,,,,,,,,,,,,,,0,44,44,8,1,,,,,,,,,,,,,,,,,,,,,,,
,,,,,SPR24_086,22,Female,2024-04-24_12h36.22.282,jersey_experiment_5_v0,2023.2.2,Win32,84.74576271,,,,,,,,,,,,,,,,762.8896,763.9322,763.9322,765.0177,return,0.0004,,84.11458333,,,,,,FBP-OG-18.png,0.37,1.2,7,0.25,,,,,,,,,,,,,,,,,,0,45,45,6,1,,,,,,,,,,,,,,,,,,,,,,,
,,,,,SPR24_086,22,Female,2024-04-24_12h36.22.282,jersey_experiment_5_v0,2023.2.2,Win32,84.74576271,,,,,,,,,,,,,,,,765.0179,766.0616,766.0617,767.4414,return,0.6461,,85.80729167,,,,,,FBP-RB-71.png,0.45,1.2,35,0.25,,,,,,,,,,,,,,,,,,0,46,46,34,1,,,,,,,,,,,,,,,,,,,,,,,
,,,,,SPR24_086,22,Female,2024-04-24_12h36.22.282,jersey_experiment_5_v0,2023.2.2,Win32,84.74576271,,,,,,,,,,,,,,,,767.4415,768.4853,768.4853,769.6852,return,0.5359,,86.328125,,,,,,FBP-OG-17.png,0.43,1.2,4,0.25,,,,,,,,,,,,,,,,,,0,47,47,3,1,,,,,,,,,,,,,,,,,,,,,,,
,,,,,SPR24_086,22,Female,2024-04-24_12h36.22.282,jersey_experiment_5_v0,2023.2.2,Win32,84.74576271,,,,,,,,,,,,,,,,769.6853,770.9837,770.9837,772.0617,return,0.0576,,37.76041667,,,,,,FBP-YG-91.png,0.37,1.2,27,0.5,,,,,,,,,,,,,,,,,,0,48,48,26,1,,,,,,,,,,,,,,,,,,,,,,,
,,,,,SPR24_086,22,Female,2024-04-24_12h36.22.282,jersey_experiment_5_v0,2023.2.2,Win32,84.74576271,,,,,,,,,,,,,,,,772.0618,773.109,773.1091,774.309,return,0.0302,,86.06770833,,,,,,FBP-OG-17.png,0.45,1.2,5,0.25,,,,,,,,,,,,,,,,,,0,49,49,4,1,,,,,,,,,,,,,,,,,,,,,,,
,,,,,SPR24_086,22,Female,2024-04-24_12h36.22.282,jersey_experiment_5_v0,2023.2.2,Win32,84.74576271,,,,,,,,,,,,,,,,774.3092,775.6032,775.6032,776.5242,return,0.3621,,87.76041667,,,,,,FBP-PT-81.png,0.4,1.2,53,0.5,,,,,,,,,,,,,,,,,,0,50,50,52,1,,,,,,,,,,,,,,,,,,,,,,,
,,,,,SPR24_086,22,Female,2024-04-24_12h36.22.282,jersey_experiment_5_v0,2023.2.2,Win32,84.74576271,,,,,,,,,,,,,,,,776.5245,777.5679,777.5679,778.3561,return,0.2193,,87.76041667,,,,,,FBP-OG-17.png,0.4,1.2,3,0.25,,,,,,,,,,,,,,,,,,0,51,51,2,1,,,,,,,,,,,,,,,,,,,,,,,
,,,,,SPR24_086,22,Female,2024-04-24_12h36.22.282,jersey_experiment_5_v0,2023.2.2,Win32,84.74576271,,,,,,,,,,,,,,,,778.3563,779.6504,779.6505,780.642,return,0.0239,,39.32291667,,,,,,FBP-YG-71.png,0.37,1.2,17,0.5,,,,,,,,,,,,,,,,,,0,52,52,16,1,,,,,,,,,,,,,,,,,,,,,,,
,,,,,SPR24_086,22,Female,2024-04-24_12h36.22.282,jersey_experiment_5_v0,2023.2.2,Win32,84.74576271,,,,,,,,,,,,,,,,780.6421,781.9357,781.9358,782.8067,return,0.0345,,88.15104167,,,,,,FBP-YG-81.png,0.45,1.2,25,0.5,,,,,,,,,,,,,,,,,,0,53,53,24,1,,,,,,,,,,,,,,,,,,,,,,,
,,,,,SPR24_086,22,Female,2024-04-24_12h36.22.282,jersey_experiment_5_v0,2023.2.2,Win32,84.74576271,,,,,,,,,,,,,,,,782.8068,784.1093,784.1094,784.5563,return,0.128,,88.15104167,,,,,,FBP-YG-81.png,0.43,1.2,24,0.5,,,,,,,,,,,,,,,,,,0,54,54,23,1,,,,,,,,,,,,,,,,,,,,,,,
,,,,,SPR24_086,22,Female,2024-04-24_12h36.22.282,jersey_experiment_5_v0,2023.2.2,Win32,84.74576271,,,,,,,,,,,,,,,,784.5565,785.8557,785.8558,786.7124,return,0.0941,,42.83854167,,,,,,FBP-PT-71.png,0.35,1.2,46,0.5,,,,,,,,,,,,,,,,,,0,55,55,45,1,,,,,,,,,,,,,,,,,,,,,,,
,,,,,SPR24_086,22,Female,2024-04-24_12h36.22.282,jersey_experiment_5_v0,2023.2.2,Win32,84.74576271,,,,,,,,,,,,,,,,786.7126,788.0197,788.0198,788.6551,return,0.0947,,38.54166667,,,,,,FBP-YG-71.png,0.35,1.2,16,0.5,,,,,,,,,,,,,,,,,,0,56,56,15,1,,,,,,,,,,,,,,,,,,,,,,,
,,,,,SPR24_086,22,Female,2024-04-24_12h36.22.282,jersey_experiment_5_v0,2023.2.2,Win32,84.74576271,,,,,,,,,,,,,,,,788.6553,789.9565,789.9566,790.867,return,0.2014,,35.67708333,,,,,,FBP-PT-81.png,0.35,1.2,51,0.5,,,,,,,,,,,,,,,,,,0,57,57,50,1,,,,,,,,,,,,,,,,,,,,,,,
,,,,,SPR24_086,22,Female,2024-04-24_12h36.22.282,jersey_experiment_5_v0,2023.2.2,Win32,84.74576271,,,,,,,,,,,,,,,,790.8671,791.9096,791.9097,793.051,return,0.0256,,90.49479167,,,,,,FBP-RB-91.png,0.43,1.2,44,0.25,,,,,,,,,,,,,,,,,,0,58,58,43,1,,,,,,,,,,,,,,,,,,,,,,,
,,,,,SPR24_086,22,Female,2024-04-24_12h36.22.282,jersey_experiment_5_v0,2023.2.2,Win32,84.74576271,,,,,,,,,,,,,,,,793.0512,794.1009,794.1009,795.5568,return,0.3729,,84.24479167,,,,,,FBP-RB-71.png,0.4,1.2,33,0.25,,,,,,,,,,,,,,,,,,0,59,59,32,1,,,,,,,,,,,,,,,,,,,,,,,
,,,,,SPR24_086,22,Female,2024-04-24_12h36.22.282,jersey_experiment_5_v0,2023.2.2,Win32,84.74576271,,,,,,,,,,,,,,,,,,,,,,,,,,,,,,,,,,,,,,,,,,,,,,,,,,,,,,,,795.5571,801.2545,return,5.6813,,,,,,,,,,,,,,,,,,,
,,,,,SPR24_086,22,Female,2024-04-24_12h36.22.282,jersey_experiment_5_v0,2023.2.2,Win32,84.74576271,,,,,,,,,,,,,,,,,,,,,,,,,,,,,,,,,,,,,,,,,,,,,,,,,,,,,,,,,,,,,801.2545,804.6662,1,2.2092,return,1.1765,,,,,,,,,,,,
,,,,,SPR24_086,22,Female,2024-04-24_12h36.22.282,jersey_experiment_5_v0,2023.2.2,Win32,84.74576271,,,,,,,,,,,,,,,,,,,,,,,,,,,,,,,,,,,,,,,,,,,,,,,,,,,,,,,,,,,,,,,,,,,,804.6662,814.1698,maybe,right,3.4273,,,,,,
,,,,,SPR24_086,22,Female,2024-04-24_12h36.22.282,jersey_experiment_5_v0,2023.2.2,Win32,84.74576271,,,,,,,,,,,,,,,,,,,,,,,,,,,,,,,,,,,,,,,,,,,,,,,,,,,,,,,,,,,,,,,,,,,,,,,,,,814.1699,819.0049,return,4.81,