requirements.started,requirements.stopped,key_resp_3.keys,key_resp_3.rt,key_resp_3.duration,Subject ID,Age,Gender,date,expName,psychopyVersion,OS,frameRate,instructions1.started,instructions1.stopped,key_resp.keys,key_resp.rt,key_resp.duration,example.started,example.stopped,enter_2.keys,enter_2.rt,enter_2.duration,instructions2.started,instructions2.stopped,enter_3.keys,enter_3.rt,enter_3.duration,image.started,image.stopped,slider_2.started,slider_2.stopped,next.keys,next.rt,next.duration,slider.response,trial_block_1.thisRepN,trial_block_1.thisTrialN,trial_block_1.thisN,trial_block_1.thisIndex,trial_block_1.ran,Path,Width,Height,Index,Duration,trial_block_2.thisRepN,trial_block_2.thisTrialN,trial_block_2.thisN,trial_block_2.thisIndex,trial_block_2.ran,rest_break.started,rest_break.stopped,end_break.started,end_break.stopped,key_resp_5.keys,key_resp_5.rt,key_resp_5.duration,trial_block_3.thisRepN,trial_block_3.thisTrialN,trial_block_3.thisN,trial_block_3.thisIndex,trial_block_3.ran,trial_block_4.thisRepN,trial_block_4.thisTrialN,trial_block_4.thisN,trial_block_4.thisIndex,trial_block_4.ran,questions_intro.started,questions_intro.stopped,enter_12.keys,enter_12.rt,enter_12.duration,question2.started,question2.stopped,question_doingbest.response,question_doingbest.rt,enter_15.keys,enter_15.rt,enter_15.duration,pattern.started,pattern.stopped,pattern_2.text,enter_17.keys,enter_17.rt,enter_17.duration,thankyou.started,thankyou.stopped,enter_14.keys,enter_14.rt,enter_14.duration
9.99999E-05,39.4786,return,39.4746,,SPR24_004,21,F,2024-04-03_11h44.10.023,jersey_experiment_5_v0,2023.2.2,Win32,85.47008547,,,,,,,,,,,,,,,,,,,,,,,,,,,,,,,,,,,,,,,,,,,,,,,,,,,,,,,,,,,,,,,,,,,,,,,,,,,,,,
,,,,,SPR24_004,21,F,2024-04-03_11h44.10.023,jersey_experiment_5_v0,2023.2.2,Win32,85.47008547,39.4787,52.6484,return,13.1534,,,,,,,,,,,,,,,,,,,,,,,,,,,,,,,,,,,,,,,,,,,,,,,,,,,,,,,,,,,,,,,,,,,,,,,,,,
,,,,,SPR24_004,21,F,2024-04-03_11h44.10.023,jersey_experiment_5_v0,2023.2.2,Win32,85.47008547,,,,,,52.6484,60.7767,return,8.0995,,,,,,,,,,,,,,,,,,,,,,,,,,,,,,,,,,,,,,,,,,,,,,,,,,,,,,,,,,,,,,,,,,,,,
,,,,,SPR24_004,21,F,2024-04-03_11h44.10.023,jersey_experiment_5_v0,2023.2.2,Win32,85.47008547,,,,,,,,,,,60.7767,108.8104,return,48.0162,,,,,,,,,,,,,,,,,,,,,,,,,,,,,,,,,,,,,,,,,,,,,,,,,,,,,,,,,,,,,,,,
,,,,,SPR24_004,21,F,2024-04-03_11h44.10.023,jersey_experiment_5_v0,2023.2.2,Win32,85.47008547,,,,,,,,,,,,,,,,108.817,109.8618,109.8619,117.8341,return,2.1206,,49.86979167,0,0,0,21,1,FBP-YG-18.png,0.37,1.2,22,0.25,,,,,,,,,,,,,,,,,,,,,,,,,,,,,,,,,,,,,,,,,,,,,
,,,,,SPR24_004,21,F,2024-04-03_11h44.10.023,jersey_experiment_5_v0,2023.2.2,Win32,85.47008547,,,,,,,,,,,,,,,,117.8344,118.8811,118.8811,122.3282,return,1.6051,,60.9375,0,1,1,48,1,FBP-PT-17.png,0.43,1.2,49,0.25,,,,,,,,,,,,,,,,,,,,,,,,,,,,,,,,,,,,,,,,,,,,,
,,,,,SPR24_004,21,F,2024-04-03_11h44.10.023,jersey_experiment_5_v0,2023.2.2,Win32,85.47008547,,,,,,,,,,,,,,,,122.3284,123.6225,123.6226,127.3049,return,1.4025,,36.328125,0,2,2,30,1,FBP-RB-17.png,0.35,1.2,31,0.5,,,,,,,,,,,,,,,,,,,,,,,,,,,,,,,,,,,,,,,,,,,,,
,,,,,SPR24_004,21,F,2024-04-03_11h44.10.023,jersey_experiment_5_v0,2023.2.2,Win32,85.47008547,,,,,,,,,,,,,,,,127.3051,128.5991,128.5991,134.8816,return,4.4692,,75,0,3,3,32,1,FBP-RB-17.png,0.4,1.2,33,0.5,,,,,,,,,,,,,,,,,,,,,,,,,,,,,,,,,,,,,,,,,,,,,
,,,,,SPR24_004,21,F,2024-04-03_11h44.10.023,jersey_experiment_5_v0,2023.2.2,Win32,85.47008547,,,,,,,,,,,,,,,,134.8863,136.1877,136.1877,138.6229,return,0.9884,,74.86979167,0,4,4,38,1,FBP-RB-18.png,0.43,1.2,39,0.5,,,,,,,,,,,,,,,,,,,,,,,,,,,,,,,,,,,,,,,,,,,,,
,,,,,SPR24_004,21,F,2024-04-03_11h44.10.023,jersey_experiment_5_v0,2023.2.2,Win32,85.47008547,,,,,,,,,,,,,,,,138.6232,139.6702,139.6702,144.4115,return,2.0353,,42.96875,0,5,5,25,1,FBP-YG-19.png,0.35,1.2,26,0.25,,,,,,,,,,,,,,,,,,,,,,,,,,,,,,,,,,,,,,,,,,,,,
,,,,,SPR24_004,21,F,2024-04-03_11h44.10.023,jersey_experiment_5_v0,2023.2.2,Win32,85.47008547,,,,,,,,,,,,,,,,144.4117,145.7055,145.7055,149.7292,return,1.3874,,43.75,0,6,6,0,1,FBP-OG-71.png,0.35,1.2,1,0.5,,,,,,,,,,,,,,,,,,,,,,,,,,,,,,,,,,,,,,,,,,,,,
,,,,,SPR24_004,21,F,2024-04-03_11h44.10.023,jersey_experiment_5_v0,2023.2.2,Win32,85.47008547,,,,,,,,,,,,,,,,149.7295,150.7765,150.7765,153.8354,return,0.613,,62.109375,0,7,7,49,1,FBP-PT-17.png,0.45,1.2,50,0.25,,,,,,,,,,,,,,,,,,,,,,,,,,,,,,,,,,,,,,,,,,,,,
,,,,,SPR24_004,21,F,2024-04-03_11h44.10.023,jersey_experiment_5_v0,2023.2.2,Win32,85.47008547,,,,,,,,,,,,,,,,153.8356,155.1294,155.1295,157.3061,return,0.5224,,49.86979167,0,8,8,35,1,FBP-RB-18.png,0.35,1.2,36,0.5,,,,,,,,,,,,,,,,,,,,,,,,,,,,,,,,,,,,,,,,,,,,,
,,,,,SPR24_004,21,F,2024-04-03_11h44.10.023,jersey_experiment_5_v0,2023.2.2,Win32,85.47008547,,,,,,,,,,,,,,,,157.3063,158.6003,158.6003,163.7885,return,3.7321,,75.13020833,0,9,9,2,1,FBP-OG-71.png,0.4,1.2,3,0.5,,,,,,,,,,,,,,,,,,,,,,,,,,,,,,,,,,,,,,,,,,,,,
,,,,,SPR24_004,21,F,2024-04-03_11h44.10.023,jersey_experiment_5_v0,2023.2.2,Win32,85.47008547,,,,,,,,,,,,,,,,163.7887,165.0828,165.0829,167.5535,return,1.1184,,74.73958333,0,10,10,33,1,FBP-RB-17.png,0.43,1.2,34,0.5,,,,,,,,,,,,,,,,,,,,,,,,,,,,,,,,,,,,,,,,,,,,,
,,,,,SPR24_004,21,F,2024-04-03_11h44.10.023,jersey_experiment_5_v0,2023.2.2,Win32,85.47008547,,,,,,,,,,,,,,,,167.5538,168.8477,168.8477,170.5771,return,0.3626,,74.86979167,0,11,11,4,1,FBP-OG-71.png,0.45,1.2,5,0.5,,,,,,,,,,,,,,,,,,,,,,,,,,,,,,,,,,,,,,,,,,,,,
,,,,,SPR24_004,21,F,2024-04-03_11h44.10.023,jersey_experiment_5_v0,2023.2.2,Win32,85.47008547,,,,,,,,,,,,,,,,170.5773,171.8713,171.8713,175.1302,return,0.2853,,61.58854167,0,12,12,31,1,FBP-RB-17.png,0.37,1.2,32,0.5,,,,,,,,,,,,,,,,,,,,,,,,,,,,,,,,,,,,,,,,,,,,,
,,,,,SPR24_004,21,F,2024-04-03_11h44.10.023,jersey_experiment_5_v0,2023.2.2,Win32,85.47008547,,,,,,,,,,,,,,,,175.1305,176.4246,176.4247,178.8244,return,0.3005,,62.890625,0,13,13,42,1,FBP-RB-19.png,0.4,1.2,43,0.5,,,,,,,,,,,,,,,,,,,,,,,,,,,,,,,,,,,,,,,,,,,,,
,,,,,SPR24_004,21,F,2024-04-03_11h44.10.023,jersey_experiment_5_v0,2023.2.2,Win32,85.47008547,,,,,,,,,,,,,,,,178.8247,179.8716,179.8716,181.9306,return,0.638,,63.80208333,0,14,14,53,1,FBP-PT-18.png,0.43,1.2,54,0.25,,,,,,,,,,,,,,,,,,,,,,,,,,,,,,,,,,,,,,,,,,,,,
,,,,,SPR24_004,21,F,2024-04-03_11h44.10.023,jersey_experiment_5_v0,2023.2.2,Win32,85.47008547,,,,,,,,,,,,,,,,181.9308,183.2246,183.2246,185.1307,return,0.3456,,63.80208333,0,15,15,13,1,FBP-OG-91.png,0.43,1.2,14,0.5,,,,,,,,,,,,,,,,,,,,,,,,,,,,,,,,,,,,,,,,,,,,,
,,,,,SPR24_004,21,F,2024-04-03_11h44.10.023,jersey_experiment_5_v0,2023.2.2,Win32,85.47008547,,,,,,,,,,,,,,,,185.131,186.4249,186.4249,187.7072,return,0.6155,,63.80208333,0,16,16,8,1,FBP-OG-81.png,0.43,1.2,9,0.5,,,,,,,,,,,,,,,,,,,,,,,,,,,,,,,,,,,,,,,,,,,,,
,,,,,SPR24_004,21,F,2024-04-03_11h44.10.023,jersey_experiment_5_v0,2023.2.2,Win32,85.47008547,,,,,,,,,,,,,,,,187.7074,188.7543,188.7544,192.1662,return,2.4209,,63.93229167,0,17,17,23,1,FBP-YG-18.png,0.43,1.2,24,0.25,,,,,,,,,,,,,,,,,,,,,,,,,,,,,,,,,,,,,,,,,,,,,
,,,,,SPR24_004,21,F,2024-04-03_11h44.10.023,jersey_experiment_5_v0,2023.2.2,Win32,85.47008547,,,,,,,,,,,,,,,,192.1665,193.2134,193.2134,196.8605,return,0.2379,,49.609375,0,18,18,17,1,FBP-YG-17.png,0.4,1.2,18,0.25,,,,,,,,,,,,,,,,,,,,,,,,,,,,,,,,,,,,,,,,,,,,,
,,,,,SPR24_004,21,F,2024-04-03_11h44.10.023,jersey_experiment_5_v0,2023.2.2,Win32,85.47008547,,,,,,,,,,,,,,,,196.8608,197.9076,197.9077,200.6843,return,0.9395,,50,0,19,19,46,1,FBP-PT-17.png,0.37,1.2,47,0.25,,,,,,,,,,,,,,,,,,,,,,,,,,,,,,,,,,,,,,,,,,,,,
,,,,,SPR24_004,21,F,2024-04-03_11h44.10.023,jersey_experiment_5_v0,2023.2.2,Win32,85.47008547,,,,,,,,,,,,,,,,200.6844,201.9784,201.9784,204.9196,return,2.3016,,50.13020833,0,20,20,41,1,FBP-RB-19.png,0.37,1.2,42,0.5,,,,,,,,,,,,,,,,,,,,,,,,,,,,,,,,,,,,,,,,,,,,,
,,,,,SPR24_004,21,F,2024-04-03_11h44.10.023,jersey_experiment_5_v0,2023.2.2,Win32,85.47008547,,,,,,,,,,,,,,,,204.9242,206.2255,206.2255,211.8257,return,3.6457,,25.65104167,0,21,21,10,1,FBP-OG-91.png,0.35,1.2,11,0.5,,,,,,,,,,,,,,,,,,,,,,,,,,,,,,,,,,,,,,,,,,,,,
,,,,,SPR24_004,21,F,2024-04-03_11h44.10.023,jersey_experiment_5_v0,2023.2.2,Win32,85.47008547,,,,,,,,,,,,,,,,211.8303,212.8729,212.8729,214.6141,return,0.2563,,74.86979167,0,22,22,59,1,FBP-PT-19.png,0.45,1.2,60,0.25,,,,,,,,,,,,,,,,,,,,,,,,,,,,,,,,,,,,,,,,,,,,,
,,,,,SPR24_004,21,F,2024-04-03_11h44.10.023,jersey_experiment_5_v0,2023.2.2,Win32,85.47008547,,,,,,,,,,,,,,,,214.6144,215.9083,215.9084,218.1554,return,0.2488,,99.47916667,0,23,23,9,1,FBP-OG-81.png,0.45,1.2,10,0.5,,,,,,,,,,,,,,,,,,,,,,,,,,,,,,,,,,,,,,,,,,,,,
,,,,,SPR24_004,21,F,2024-04-03_11h44.10.023,jersey_experiment_5_v0,2023.2.2,Win32,85.47008547,,,,,,,,,,,,,,,,218.1557,219.2026,219.2026,222.1085,return,0.2473,,49.609375,0,24,24,20,1,FBP-YG-18.png,0.35,1.2,21,0.25,,,,,,,,,,,,,,,,,,,,,,,,,,,,,,,,,,,,,,,,,,,,,
,,,,,SPR24_004,21,F,2024-04-03_11h44.10.023,jersey_experiment_5_v0,2023.2.2,Win32,85.47008547,,,,,,,,,,,,,,,,222.1088,223.1556,223.1557,224.6144,return,0.336,,73.69791667,0,25,25,24,1,FBP-YG-18.png,0.45,1.2,25,0.25,,,,,,,,,,,,,,,,,,,,,,,,,,,,,,,,,,,,,,,,,,,,,
,,,,,SPR24_004,21,F,2024-04-03_11h44.10.023,jersey_experiment_5_v0,2023.2.2,Win32,85.47008547,,,,,,,,,,,,,,,,224.6146,225.9085,225.9086,226.8263,return,0.275,,74.609375,0,26,26,7,1,FBP-OG-81.png,0.4,1.2,8,0.5,,,,,,,,,,,,,,,,,,,,,,,,,,,,,,,,,,,,,,,,,,,,,
,,,,,SPR24_004,21,F,2024-04-03_11h44.10.023,jersey_experiment_5_v0,2023.2.2,Win32,85.47008547,,,,,,,,,,,,,,,,226.8265,228.1205,228.1205,229.8735,return,0.3056,,98.4375,0,27,27,34,1,FBP-RB-17.png,0.45,1.2,35,0.5,,,,,,,,,,,,,,,,,,,,,,,,,,,,,,,,,,,,,,,,,,,,,
,,,,,SPR24_004,21,F,2024-04-03_11h44.10.023,jersey_experiment_5_v0,2023.2.2,Win32,85.47008547,,,,,,,,,,,,,,,,229.8737,231.1676,231.1676,232.0971,return,0.3671,,98.046875,0,28,28,3,1,FBP-OG-71.png,0.43,1.2,4,0.5,,,,,,,,,,,,,,,,,,,,,,,,,,,,,,,,,,,,,,,,,,,,,
,,,,,SPR24_004,21,F,2024-04-03_11h44.10.023,jersey_experiment_5_v0,2023.2.2,Win32,85.47008547,,,,,,,,,,,,,,,,232.0973,233.1442,233.1443,234.5559,return,0.4026,,98.30729167,0,29,29,19,1,FBP-YG-17.png,0.45,1.2,20,0.25,,,,,,,,,,,,,,,,,,,,,,,,,,,,,,,,,,,,,,,,,,,,,
,,,,,SPR24_004,21,F,2024-04-03_11h44.10.023,jersey_experiment_5_v0,2023.2.2,Win32,85.47008547,,,,,,,,,,,,,,,,234.5561,235.8502,235.8502,236.968,return,0.4425,,98.56770833,0,30,30,43,1,FBP-RB-19.png,0.43,1.2,44,0.5,,,,,,,,,,,,,,,,,,,,,,,,,,,,,,,,,,,,,,,,,,,,,
,,,,,SPR24_004,21,F,2024-04-03_11h44.10.023,jersey_experiment_5_v0,2023.2.2,Win32,85.47008547,,,,,,,,,,,,,,,,236.9682,238.015,238.015,239.4033,return,0.2947,,99.34895833,0,31,31,58,1,FBP-PT-19.png,0.43,1.2,59,0.25,,,,,,,,,,,,,,,,,,,,,,,,,,,,,,,,,,,,,,,,,,,,,
,,,,,SPR24_004,21,F,2024-04-03_11h44.10.023,jersey_experiment_5_v0,2023.2.2,Win32,85.47008547,,,,,,,,,,,,,,,,239.4035,240.6974,240.6974,243.8621,return,1.8894,,49.73958333,0,32,32,40,1,FBP-RB-19.png,0.35,1.2,41,0.5,,,,,,,,,,,,,,,,,,,,,,,,,,,,,,,,,,,,,,,,,,,,,
,,,,,SPR24_004,21,F,2024-04-03_11h44.10.023,jersey_experiment_5_v0,2023.2.2,Win32,85.47008547,,,,,,,,,,,,,,,,243.8623,245.1563,245.1564,246.8153,return,0.3056,,75.13020833,0,33,33,39,1,FBP-RB-18.png,0.45,1.2,40,0.5,,,,,,,,,,,,,,,,,,,,,,,,,,,,,,,,,,,,,,,,,,,,,
,,,,,SPR24_004,21,F,2024-04-03_11h44.10.023,jersey_experiment_5_v0,2023.2.2,Win32,85.47008547,,,,,,,,,,,,,,,,246.8155,248.1096,248.1097,249.2273,return,0.2368,,74.73958333,0,34,34,12,1,FBP-OG-91.png,0.4,1.2,13,0.5,,,,,,,,,,,,,,,,,,,,,,,,,,,,,,,,,,,,,,,,,,,,,
,,,,,SPR24_004,21,F,2024-04-03_11h44.10.023,jersey_experiment_5_v0,2023.2.2,Win32,85.47008547,,,,,,,,,,,,,,,,249.2276,250.5212,250.5213,251.3567,return,0.214,,74.73958333,0,35,35,37,1,FBP-RB-18.png,0.4,1.2,38,0.5,,,,,,,,,,,,,,,,,,,,,,,,,,,,,,,,,,,,,,,,,,,,,
,,,,,SPR24_004,21,F,2024-04-03_11h44.10.023,jersey_experiment_5_v0,2023.2.2,Win32,85.47008547,,,,,,,,,,,,,,,,251.3569,252.4037,252.4037,253.2391,return,0.2902,,74.73958333,0,36,36,52,1,FBP-PT-18.png,0.4,1.2,53,0.25,,,,,,,,,,,,,,,,,,,,,,,,,,,,,,,,,,,,,,,,,,,,,
,,,,,SPR24_004,21,F,2024-04-03_11h44.10.023,jersey_experiment_5_v0,2023.2.2,Win32,85.47008547,,,,,,,,,,,,,,,,253.2393,254.5332,254.5333,257.3452,return,0.1895,,50,0,37,37,11,1,FBP-OG-91.png,0.37,1.2,12,0.5,,,,,,,,,,,,,,,,,,,,,,,,,,,,,,,,,,,,,,,,,,,,,
,,,,,SPR24_004,21,F,2024-04-03_11h44.10.023,jersey_experiment_5_v0,2023.2.2,Win32,85.47008547,,,,,,,,,,,,,,,,257.3453,258.3922,258.3922,260.3217,return,0.2924,,98.828125,0,38,38,29,1,FBP-YG-19.png,0.45,1.2,30,0.25,,,,,,,,,,,,,,,,,,,,,,,,,,,,,,,,,,,,,,,,,,,,,
,,,,,SPR24_004,21,F,2024-04-03_11h44.10.023,jersey_experiment_5_v0,2023.2.2,Win32,85.47008547,,,,,,,,,,,,,,,,260.3219,261.6158,261.6158,262.4277,return,0.2972,,99.34895833,0,39,39,14,1,FBP-OG-91.png,0.45,1.2,15,0.5,,,,,,,,,,,,,,,,,,,,,,,,,,,,,,,,,,,,,,,,,,,,,
,,,,,SPR24_004,21,F,2024-04-03_11h44.10.023,jersey_experiment_5_v0,2023.2.2,Win32,85.47008547,,,,,,,,,,,,,,,,262.4279,263.4747,263.4747,265.0514,return,0.2252,,74.609375,0,40,40,56,1,FBP-PT-19.png,0.37,1.2,57,0.25,,,,,,,,,,,,,,,,,,,,,,,,,,,,,,,,,,,,,,,,,,,,,
,,,,,SPR24_004,21,F,2024-04-03_11h44.10.023,jersey_experiment_5_v0,2023.2.2,Win32,85.47008547,,,,,,,,,,,,,,,,265.0517,266.0984,266.0984,267.8043,return,1.0008,,74.73958333,0,41,41,27,1,FBP-YG-19.png,0.4,1.2,28,0.25,,,,,,,,,,,,,,,,,,,,,,,,,,,,,,,,,,,,,,,,,,,,,
,,,,,SPR24_004,21,F,2024-04-03_11h44.10.023,jersey_experiment_5_v0,2023.2.2,Win32,85.47008547,,,,,,,,,,,,,,,,267.8046,268.8515,268.8515,270.9692,return,0.1918,,75.13020833,0,42,42,28,1,FBP-YG-19.png,0.43,1.2,29,0.25,,,,,,,,,,,,,,,,,,,,,,,,,,,,,,,,,,,,,,,,,,,,,
,,,,,SPR24_004,21,F,2024-04-03_11h44.10.023,jersey_experiment_5_v0,2023.2.2,Win32,85.47008547,,,,,,,,,,,,,,,,270.9694,272.0163,272.0163,272.8281,return,0.2736,,75.13020833,0,43,43,51,1,FBP-PT-18.png,0.37,1.2,52,0.25,,,,,,,,,,,,,,,,,,,,,,,,,,,,,,,,,,,,,,,,,,,,,
,,,,,SPR24_004,21,F,2024-04-03_11h44.10.023,jersey_experiment_5_v0,2023.2.2,Win32,85.47008547,,,,,,,,,,,,,,,,272.8283,273.8751,273.8752,275.2635,return,0.245,,50.65104167,0,44,44,16,1,FBP-YG-17.png,0.37,1.2,17,0.25,,,,,,,,,,,,,,,,,,,,,,,,,,,,,,,,,,,,,,,,,,,,,
,,,,,SPR24_004,21,F,2024-04-03_11h44.10.023,jersey_experiment_5_v0,2023.2.2,Win32,85.47008547,,,,,,,,,,,,,,,,275.2637,276.3106,276.3106,277.7929,return,0.2501,,74.08854167,0,45,45,57,1,FBP-PT-19.png,0.4,1.2,58,0.25,,,,,,,,,,,,,,,,,,,,,,,,,,,,,,,,,,,,,,,,,,,,,
,,,,,SPR24_004,21,F,2024-04-03_11h44.10.023,jersey_experiment_5_v0,2023.2.2,Win32,85.47008547,,,,,,,,,,,,,,,,277.7931,278.84,278.84,280.0754,return,0.3915,,74.21875,0,46,46,47,1,FBP-PT-17.png,0.4,1.2,48,0.25,,,,,,,,,,,,,,,,,,,,,,,,,,,,,,,,,,,,,,,,,,,,,
,,,,,SPR24_004,21,F,2024-04-03_11h44.10.023,jersey_experiment_5_v0,2023.2.2,Win32,85.47008547,,,,,,,,,,,,,,,,280.0757,281.1224,281.1225,283.2285,return,0.2359,,50,0,47,47,50,1,FBP-PT-18.png,0.35,1.2,51,0.25,,,,,,,,,,,,,,,,,,,,,,,,,,,,,,,,,,,,,,,,,,,,,
,,,,,SPR24_004,21,F,2024-04-03_11h44.10.023,jersey_experiment_5_v0,2023.2.2,Win32,85.47008547,,,,,,,,,,,,,,,,283.2288,284.2754,284.2754,286.7109,return,0.2317,,99.609375,0,48,48,54,1,FBP-PT-18.png,0.45,1.2,55,0.25,,,,,,,,,,,,,,,,,,,,,,,,,,,,,,,,,,,,,,,,,,,,,
,,,,,SPR24_004,21,F,2024-04-03_11h44.10.023,jersey_experiment_5_v0,2023.2.2,Win32,85.47008547,,,,,,,,,,,,,,,,286.7111,288.005,288.0051,288.8875,return,0.2887,,99.609375,0,49,49,44,1,FBP-RB-19.png,0.45,1.2,45,0.5,,,,,,,,,,,,,,,,,,,,,,,,,,,,,,,,,,,,,,,,,,,,,
,,,,,SPR24_004,21,F,2024-04-03_11h44.10.023,jersey_experiment_5_v0,2023.2.2,Win32,85.47008547,,,,,,,,,,,,,,,,288.8877,289.9345,289.9346,291.1111,return,0.3121,,99.609375,0,50,50,22,1,FBP-YG-18.png,0.4,1.2,23,0.25,,,,,,,,,,,,,,,,,,,,,,,,,,,,,,,,,,,,,,,,,,,,,
,,,,,SPR24_004,21,F,2024-04-03_11h44.10.023,jersey_experiment_5_v0,2023.2.2,Win32,85.47008547,,,,,,,,,,,,,,,,291.1114,292.1581,292.1581,293.8877,return,0.296,,75.26041667,0,51,51,26,1,FBP-YG-19.png,0.37,1.2,27,0.25,,,,,,,,,,,,,,,,,,,,,,,,,,,,,,,,,,,,,,,,,,,,,
,,,,,SPR24_004,21,F,2024-04-03_11h44.10.023,jersey_experiment_5_v0,2023.2.2,Win32,85.47008547,,,,,,,,,,,,,,,,293.8879,295.1818,295.1819,297.2761,return,0.3771,,50,0,52,52,1,1,FBP-OG-71.png,0.37,1.2,2,0.5,,,,,,,,,,,,,,,,,,,,,,,,,,,,,,,,,,,,,,,,,,,,,
,,,,,SPR24_004,21,F,2024-04-03_11h44.10.023,jersey_experiment_5_v0,2023.2.2,Win32,85.47008547,,,,,,,,,,,,,,,,297.2763,298.3232,298.3233,299.7703,return,0.3549,,50.26041667,0,53,53,45,1,FBP-PT-17.png,0.35,1.2,46,0.25,,,,,,,,,,,,,,,,,,,,,,,,,,,,,,,,,,,,,,,,,,,,,
,,,,,SPR24_004,21,F,2024-04-03_11h44.10.023,jersey_experiment_5_v0,2023.2.2,Win32,85.47008547,,,,,,,,,,,,,,,,299.7705,301.0646,301.0646,302.9232,return,0.2351,,74.86979167,0,54,54,6,1,FBP-OG-81.png,0.37,1.2,7,0.5,,,,,,,,,,,,,,,,,,,,,,,,,,,,,,,,,,,,,,,,,,,,,
,,,,,SPR24_004,21,F,2024-04-03_11h44.10.023,jersey_experiment_5_v0,2023.2.2,Win32,85.47008547,,,,,,,,,,,,,,,,302.9235,303.9703,303.9704,306.2999,return,0.2721,,50,0,55,55,15,1,FBP-YG-17.png,0.35,1.2,16,0.25,,,,,,,,,,,,,,,,,,,,,,,,,,,,,,,,,,,,,,,,,,,,,
,,,,,SPR24_004,21,F,2024-04-03_11h44.10.023,jersey_experiment_5_v0,2023.2.2,Win32,85.47008547,,,,,,,,,,,,,,,,306.3002,307.594,307.5941,309.2647,return,0.2688,,50.78125,0,56,56,5,1,FBP-OG-81.png,0.35,1.2,6,0.5,,,,,,,,,,,,,,,,,,,,,,,,,,,,,,,,,,,,,,,,,,,,,
,,,,,SPR24_004,21,F,2024-04-03_11h44.10.023,jersey_experiment_5_v0,2023.2.2,Win32,85.47008547,,,,,,,,,,,,,,,,309.2649,310.5588,310.5589,312.6649,return,0.4884,,74.86979167,0,57,57,36,1,FBP-RB-18.png,0.37,1.2,37,0.5,,,,,,,,,,,,,,,,,,,,,,,,,,,,,,,,,,,,,,,,,,,,,
,,,,,SPR24_004,21,F,2024-04-03_11h44.10.023,jersey_experiment_5_v0,2023.2.2,Win32,85.47008547,,,,,,,,,,,,,,,,312.6652,313.7118,313.7118,315.0059,return,0.2597,,98.17708333,0,58,58,18,1,FBP-YG-17.png,0.43,1.2,19,0.25,,,,,,,,,,,,,,,,,,,,,,,,,,,,,,,,,,,,,,,,,,,,,
,,,,,SPR24_004,21,F,2024-04-03_11h44.10.023,jersey_experiment_5_v0,2023.2.2,Win32,85.47008547,,,,,,,,,,,,,,,,315.0063,316.0531,316.0531,317.9591,return,0.7728,,74.609375,0,59,59,55,1,FBP-PT-19.png,0.35,1.2,56,0.25,,,,,,,,,,,,,,,,,,,,,,,,,,,,,,,,,,,,,,,,,,,,,
,,,,,SPR24_004,21,F,2024-04-03_11h44.10.023,jersey_experiment_5_v0,2023.2.2,Win32,85.47008547,,,,,,,,,,,,,,,,317.9611,319.0061,319.0062,320.2885,return,0.5425,,74.609375,,,,,,FBP-PT-91.png,0.35,1.2,56,0.25,0,0,0,55,1,,,,,,,,,,,,,,,,,,,,,,,,,,,,,,,,,,,,,,,,
,,,,,SPR24_004,21,F,2024-04-03_11h44.10.023,jersey_experiment_5_v0,2023.2.2,Win32,85.47008547,,,,,,,,,,,,,,,,320.2889,321.3358,321.3358,322.4651,return,0.2118,,74.21875,,,,,,FBP-YG-91.png,0.37,1.2,27,0.25,0,1,1,26,1,,,,,,,,,,,,,,,,,,,,,,,,,,,,,,,,,,,,,,,,
,,,,,SPR24_004,21,F,2024-04-03_11h44.10.023,jersey_experiment_5_v0,2023.2.2,Win32,85.47008547,,,,,,,,,,,,,,,,322.4654,323.5123,323.5124,325.4064,return,0.1492,,99.21875,,,,,,FBP-YG-81.png,0.43,1.2,24,0.25,0,2,2,23,1,,,,,,,,,,,,,,,,,,,,,,,,,,,,,,,,,,,,,,,,
,,,,,SPR24_004,21,F,2024-04-03_11h44.10.023,jersey_experiment_5_v0,2023.2.2,Win32,85.47008547,,,,,,,,,,,,,,,,325.4067,326.7005,326.7006,327.5595,return,0.2395,,99.47916667,,,,,,FBP-OG-18.png,0.4,1.2,8,0.5,0,3,3,7,1,,,,,,,,,,,,,,,,,,,,,,,,,,,,,,,,,,,,,,,,
,,,,,SPR24_004,21,F,2024-04-03_11h44.10.023,jersey_experiment_5_v0,2023.2.2,Win32,85.47008547,,,,,,,,,,,,,,,,327.5597,328.8537,328.8537,330.23,return,0.2305,,75.13020833,,,,,,FBP-RB-81.png,0.35,1.2,36,0.5,0,4,4,35,1,,,,,,,,,,,,,,,,,,,,,,,,,,,,,,,,,,,,,,,,
,,,,,SPR24_004,21,F,2024-04-03_11h44.10.023,jersey_experiment_5_v0,2023.2.2,Win32,85.47008547,,,,,,,,,,,,,,,,330.2302,331.2773,331.2774,332.7126,return,0.2768,,99.08854167,,,,,,FBP-PT-81.png,0.43,1.2,54,0.25,0,5,5,53,1,,,,,,,,,,,,,,,,,,,,,,,,,,,,,,,,,,,,,,,,
,,,,,SPR24_004,21,F,2024-04-03_11h44.10.023,jersey_experiment_5_v0,2023.2.2,Win32,85.47008547,,,,,,,,,,,,,,,,332.7128,334.0069,334.007,335.6656,return,0.3858,,99.34895833,,,,,,FBP-OG-19.png,0.43,1.2,14,0.5,0,6,6,13,1,,,,,,,,,,,,,,,,,,,,,,,,,,,,,,,,,,,,,,,,
,,,,,SPR24_004,21,F,2024-04-03_11h44.10.023,jersey_experiment_5_v0,2023.2.2,Win32,85.47008547,,,,,,,,,,,,,,,,335.6658,336.7127,336.7128,337.7363,return,0.2655,,99.609375,,,,,,FBP-PT-91.png,0.43,1.2,59,0.25,0,7,7,58,1,,,,,,,,,,,,,,,,,,,,,,,,,,,,,,,,,,,,,,,,
,,,,,SPR24_004,21,F,2024-04-03_11h44.10.023,jersey_experiment_5_v0,2023.2.2,Win32,85.47008547,,,,,,,,,,,,,,,,337.7365,338.7836,338.7836,339.5365,return,0.2588,,99.609375,,,,,,FBP-YG-71.png,0.45,1.2,20,0.25,0,8,8,19,1,,,,,,,,,,,,,,,,,,,,,,,,,,,,,,,,,,,,,,,,
,,,,,SPR24_004,21,F,2024-04-03_11h44.10.023,jersey_experiment_5_v0,2023.2.2,Win32,85.47008547,,,,,,,,,,,,,,,,339.5367,340.5836,340.5836,341.5012,return,0.4016,,99.47916667,,,,,,FBP-YG-91.png,0.43,1.2,29,0.25,0,9,9,28,1,,,,,,,,,,,,,,,,,,,,,,,,,,,,,,,,,,,,,,,,
,,,,,SPR24_004,21,F,2024-04-03_11h44.10.023,jersey_experiment_5_v0,2023.2.2,Win32,85.47008547,,,,,,,,,,,,,,,,341.5015,342.7954,342.7954,343.5483,return,0.2243,,99.47916667,,,,,,FBP-RB-91.png,0.43,1.2,44,0.5,0,10,10,43,1,,,,,,,,,,,,,,,,,,,,,,,,,,,,,,,,,,,,,,,,
,,,,,SPR24_004,21,F,2024-04-03_11h44.10.023,jersey_experiment_5_v0,2023.2.2,Win32,85.47008547,,,,,,,,,,,,,,,,343.5487,344.8425,344.8426,345.6542,return,0.2781,,99.47916667,,,,,,FBP-OG-17.png,0.45,1.2,5,0.5,0,11,11,4,1,,,,,,,,,,,,,,,,,,,,,,,,,,,,,,,,,,,,,,,,
,,,,,SPR24_004,21,F,2024-04-03_11h44.10.023,jersey_experiment_5_v0,2023.2.2,Win32,85.47008547,,,,,,,,,,,,,,,,345.6543,346.7014,346.7015,348.4426,return,0.1907,,74.73958333,,,,,,FBP-YG-71.png,0.35,1.2,16,0.25,0,12,12,15,1,,,,,,,,,,,,,,,,,,,,,,,,,,,,,,,,,,,,,,,,
,,,,,SPR24_004,21,F,2024-04-03_11h44.10.023,jersey_experiment_5_v0,2023.2.2,Win32,85.47008547,,,,,,,,,,,,,,,,348.4429,349.7368,349.7369,351.7251,return,0.2727,,99.34895833,,,,,,FBP-OG-18.png,0.45,1.2,10,0.5,0,13,13,9,1,,,,,,,,,,,,,,,,,,,,,,,,,,,,,,,,,,,,,,,,
,,,,,SPR24_004,21,F,2024-04-03_11h44.10.023,jersey_experiment_5_v0,2023.2.2,Win32,85.47008547,,,,,,,,,,,,,,,,351.7253,353.0192,353.0193,353.8899,return,0.3902,,99.34895833,,,,,,FBP-RB-71.png,0.43,1.2,34,0.5,0,14,14,33,1,,,,,,,,,,,,,,,,,,,,,,,,,,,,,,,,,,,,,,,,
,,,,,SPR24_004,21,F,2024-04-03_11h44.10.023,jersey_experiment_5_v0,2023.2.2,Win32,85.47008547,,,,,,,,,,,,,,,,353.8901,355.1841,355.1842,356.7018,return,0.364,,99.34895833,,,,,,FBP-RB-81.png,0.4,1.2,38,0.5,0,15,15,37,1,,,,,,,,,,,,,,,,,,,,,,,,,,,,,,,,,,,,,,,,
,,,,,SPR24_004,21,F,2024-04-03_11h44.10.023,jersey_experiment_5_v0,2023.2.2,Win32,85.47008547,,,,,,,,,,,,,,,,356.702,357.9959,357.996,358.8901,return,0.2729,,99.34895833,,,,,,FBP-RB-71.png,0.37,1.2,32,0.5,0,16,16,31,1,,,,,,,,,,,,,,,,,,,,,,,,,,,,,,,,,,,,,,,,
,,,,,SPR24_004,21,F,2024-04-03_11h44.10.023,jersey_experiment_5_v0,2023.2.2,Win32,85.47008547,,,,,,,,,,,,,,,,358.8902,359.9372,359.9373,362.3491,return,0.2,,99.21875,,,,,,FBP-YG-71.png,0.4,1.2,18,0.25,0,17,17,17,1,,,,,,,,,,,,,,,,,,,,,,,,,,,,,,,,,,,,,,,,
,,,,,SPR24_004,21,F,2024-04-03_11h44.10.023,jersey_experiment_5_v0,2023.2.2,Win32,85.47008547,,,,,,,,,,,,,,,,362.3494,363.3963,363.3963,364.2668,return,0.2142,,99.21875,,,,,,FBP-PT-71.png,0.4,1.2,48,0.25,0,18,18,47,1,,,,,,,,,,,,,,,,,,,,,,,,,,,,,,,,,,,,,,,,
,,,,,SPR24_004,21,F,2024-04-03_11h44.10.023,jersey_experiment_5_v0,2023.2.2,Win32,85.47008547,,,,,,,,,,,,,,,,364.267,365.3139,365.3139,366.9845,return,0.1478,,74.08854167,,,,,,FBP-PT-71.png,0.35,1.2,46,0.25,0,19,19,45,1,,,,,,,,,,,,,,,,,,,,,,,,,,,,,,,,,,,,,,,,
,,,,,SPR24_004,21,F,2024-04-03_11h44.10.023,jersey_experiment_5_v0,2023.2.2,Win32,85.47008547,,,,,,,,,,,,,,,,366.9848,368.2788,368.2789,369.0552,return,0.3075,,74.21875,,,,,,FBP-RB-81.png,0.37,1.2,37,0.5,0,20,20,36,1,,,,,,,,,,,,,,,,,,,,,,,,,,,,,,,,,,,,,,,,
,,,,,SPR24_004,21,F,2024-04-03_11h44.10.023,jersey_experiment_5_v0,2023.2.2,Win32,85.47008547,,,,,,,,,,,,,,,,369.0555,370.1022,370.1022,371.7847,return,0.2281,,98.828125,,,,,,FBP-YG-71.png,0.43,1.2,19,0.25,0,21,21,18,1,,,,,,,,,,,,,,,,,,,,,,,,,,,,,,,,,,,,,,,,
,,,,,SPR24_004,21,F,2024-04-03_11h44.10.023,jersey_experiment_5_v0,2023.2.2,Win32,85.47008547,,,,,,,,,,,,,,,,371.785,373.0789,373.0789,374.3613,return,0.1919,,74.34895833,,,,,,FBP-OG-17.png,0.37,1.2,2,0.5,0,22,22,1,1,,,,,,,,,,,,,,,,,,,,,,,,,,,,,,,,,,,,,,,,
,,,,,SPR24_004,21,F,2024-04-03_11h44.10.023,jersey_experiment_5_v0,2023.2.2,Win32,85.47008547,,,,,,,,,,,,,,,,374.3616,375.4083,375.4083,376.2318,return,0.2991,,74.34895833,,,,,,FBP-YG-81.png,0.35,1.2,21,0.25,0,23,23,20,1,,,,,,,,,,,,,,,,,,,,,,,,,,,,,,,,,,,,,,,,
,,,,,SPR24_004,21,F,2024-04-03_11h44.10.023,jersey_experiment_5_v0,2023.2.2,Win32,85.47008547,,,,,,,,,,,,,,,,376.232,377.526,377.5261,379.5025,return,0.2683,,99.86979167,,,,,,FBP-RB-71.png,0.4,1.2,33,0.5,0,24,24,32,1,,,,,,,,,,,,,,,,,,,,,,,,,,,,,,,,,,,,,,,,
,,,,,SPR24_004,21,F,2024-04-03_11h44.10.023,jersey_experiment_5_v0,2023.2.2,Win32,85.47008547,,,,,,,,,,,,,,,,379.5028,380.5497,380.5498,382.2792,return,0.29,,74.86979167,,,,,,FBP-PT-71.png,0.37,1.2,47,0.25,0,25,25,46,1,,,,,,,,,,,,,,,,,,,,,,,,,,,,,,,,,,,,,,,,
,,,,,SPR24_004,21,F,2024-04-03_11h44.10.023,jersey_experiment_5_v0,2023.2.2,Win32,85.47008547,,,,,,,,,,,,,,,,382.2794,383.3263,383.3264,385.1028,return,0.2924,,98.046875,,,,,,FBP-YG-91.png,0.4,1.2,28,0.25,0,26,26,27,1,,,,,,,,,,,,,,,,,,,,,,,,,,,,,,,,,,,,,,,,
,,,,,SPR24_004,21,F,2024-04-03_11h44.10.023,jersey_experiment_5_v0,2023.2.2,Win32,85.47008547,,,,,,,,,,,,,,,,385.1029,386.15,386.15,387.4677,return,0.2737,,98.30729167,,,,,,FBP-PT-81.png,0.4,1.2,53,0.25,0,27,27,52,1,,,,,,,,,,,,,,,,,,,,,,,,,,,,,,,,,,,,,,,,
,,,,,SPR24_004,21,F,2024-04-03_11h44.10.023,jersey_experiment_5_v0,2023.2.2,Win32,85.47008547,,,,,,,,,,,,,,,,387.4679,388.7619,388.7619,389.9031,return,0.3753,,98.30729167,,,,,,FBP-OG-17.png,0.43,1.2,4,0.5,0,28,28,3,1,,,,,,,,,,,,,,,,,,,,,,,,,,,,,,,,,,,,,,,,
,,,,,SPR24_004,21,F,2024-04-03_11h44.10.023,jersey_experiment_5_v0,2023.2.2,Win32,85.47008547,,,,,,,,,,,,,,,,389.9033,391.1972,391.1972,392.5031,return,0.2172,,74.21875,,,,,,FBP-OG-19.png,0.37,1.2,12,0.5,0,29,29,11,1,,,,,,,,,,,,,,,,,,,,,,,,,,,,,,,,,,,,,,,,
,,,,,SPR24_004,21,F,2024-04-03_11h44.10.023,jersey_experiment_5_v0,2023.2.2,Win32,85.47008547,,,,,,,,,,,,,,,,392.5033,393.7976,393.7976,395.2444,return,0.2368,,99.21875,,,,,,FBP-RB-91.png,0.4,1.2,43,0.5,0,30,30,42,1,,,,,,,,,,,,,,,,,,,,,,,,,,,,,,,,,,,,,,,,
,,,,,SPR24_004,21,F,2024-04-03_11h44.10.023,jersey_experiment_5_v0,2023.2.2,Win32,85.47008547,,,,,,,,,,,,,,,,395.2447,396.2915,396.2916,397.3857,return,0.4621,,99.21875,,,,,,FBP-PT-91.png,0.45,1.2,60,0.25,0,31,31,59,1,,,,,,,,,,,,,,,,,,,,,,,,,,,,,,,,,,,,,,,,
,,,,,SPR24_004,21,F,2024-04-03_11h44.10.023,jersey_experiment_5_v0,2023.2.2,Win32,85.47008547,,,,,,,,,,,,,,,,397.386,398.6798,398.6798,399.4682,return,0.2828,,99.21875,,,,,,FBP-RB-71.png,0.45,1.2,35,0.5,0,32,32,34,1,,,,,,,,,,,,,,,,,,,,,,,,,,,,,,,,,,,,,,,,
,,,,,SPR24_004,21,F,2024-04-03_11h44.10.023,jersey_experiment_5_v0,2023.2.2,Win32,85.47008547,,,,,,,,,,,,,,,,399.4684,400.7623,400.7623,402.8447,return,0.1672,,49.47916667,,,,,,FBP-RB-91.png,0.35,1.2,41,0.5,0,33,33,40,1,,,,,,,,,,,,,,,,,,,,,,,,,,,,,,,,,,,,,,,,
,,,,,SPR24_004,21,F,2024-04-03_11h44.10.023,jersey_experiment_5_v0,2023.2.2,Win32,85.47008547,,,,,,,,,,,,,,,,402.845,403.8919,403.8919,405.4214,return,0.1403,,75.390625,,,,,,FBP-PT-91.png,0.4,1.2,58,0.25,0,34,34,57,1,,,,,,,,,,,,,,,,,,,,,,,,,,,,,,,,,,,,,,,,
,,,,,SPR24_004,21,F,2024-04-03_11h44.10.023,jersey_experiment_5_v0,2023.2.2,Win32,85.47008547,,,,,,,,,,,,,,,,405.4216,406.7155,406.7156,408.1391,return,0.1077,,98.95833333,,,,,,FBP-RB-81.png,0.43,1.2,39,0.5,0,35,35,38,1,,,,,,,,,,,,,,,,,,,,,,,,,,,,,,,,,,,,,,,,
,,,,,SPR24_004,21,F,2024-04-03_11h44.10.023,jersey_experiment_5_v0,2023.2.2,Win32,85.47008547,,,,,,,,,,,,,,,,408.1393,409.186,409.1861,413.1038,return,0.8332,,75.13020833,,,,,,FBP-PT-71.png,0.43,1.2,49,0.25,0,36,36,48,1,,,,,,,,,,,,,,,,,,,,,,,,,,,,,,,,,,,,,,,,
,,,,,SPR24_004,21,F,2024-04-03_11h44.10.023,jersey_experiment_5_v0,2023.2.2,Win32,85.47008547,,,,,,,,,,,,,,,,413.1043,414.3981,414.3981,415.5275,return,0.2192,,50,,,,,,FBP-OG-19.png,0.35,1.2,11,0.5,0,37,37,10,1,,,,,,,,,,,,,,,,,,,,,,,,,,,,,,,,,,,,,,,,
,,,,,SPR24_004,21,F,2024-04-03_11h44.10.023,jersey_experiment_5_v0,2023.2.2,Win32,85.47008547,,,,,,,,,,,,,,,,415.5277,416.5747,416.5748,418.9747,return,0.3547,,99.21875,,,,,,FBP-YG-81.png,0.4,1.2,23,0.25,0,38,38,22,1,,,,,,,,,,,,,,,,,,,,,,,,,,,,,,,,,,,,,,,,
,,,,,SPR24_004,21,F,2024-04-03_11h44.10.023,jersey_experiment_5_v0,2023.2.2,Win32,85.47008547,,,,,,,,,,,,,,,,418.9749,420.2689,420.2689,421.7866,return,0.2027,,49.609375,,,,,,FBP-OG-17.png,0.35,1.2,1,0.5,0,39,39,0,1,,,,,,,,,,,,,,,,,,,,,,,,,,,,,,,,,,,,,,,,
,,,,,SPR24_004,21,F,2024-04-03_11h44.10.023,jersey_experiment_5_v0,2023.2.2,Win32,85.47008547,,,,,,,,,,,,,,,,421.7869,422.8337,422.8337,424.8573,return,0.427,,98.828125,,,,,,FBP-PT-71.png,0.45,1.2,50,0.25,0,40,40,49,1,,,,,,,,,,,,,,,,,,,,,,,,,,,,,,,,,,,,,,,,
,,,,,SPR24_004,21,F,2024-04-03_11h44.10.023,jersey_experiment_5_v0,2023.2.2,Win32,85.47008547,,,,,,,,,,,,,,,,424.8576,425.9044,425.9045,427.8808,return,0.2279,,99.34895833,,,,,,FBP-YG-81.png,0.37,1.2,22,0.25,0,41,41,21,1,,,,,,,,,,,,,,,,,,,,,,,,,,,,,,,,,,,,,,,,
,,,,,SPR24_004,21,F,2024-04-03_11h44.10.023,jersey_experiment_5_v0,2023.2.2,Win32,85.47008547,,,,,,,,,,,,,,,,427.8812,428.928,428.928,429.8692,return,0.2826,,99.609375,,,,,,FBP-PT-81.png,0.45,1.2,55,0.25,0,42,42,54,1,,,,,,,,,,,,,,,,,,,,,,,,,,,,,,,,,,,,,,,,
,,,,,SPR24_004,21,F,2024-04-03_11h44.10.023,jersey_experiment_5_v0,2023.2.2,Win32,85.47008547,,,,,,,,,,,,,,,,429.8696,430.9164,430.9164,431.7281,return,0.2585,,99.609375,,,,,,FBP-YG-81.png,0.45,1.2,25,0.25,0,43,43,24,1,,,,,,,,,,,,,,,,,,,,,,,,,,,,,,,,,,,,,,,,
,,,,,SPR24_004,21,F,2024-04-03_11h44.10.023,jersey_experiment_5_v0,2023.2.2,Win32,85.47008547,,,,,,,,,,,,,,,,431.7285,432.7753,432.7753,434.2577,return,0.2215,,76.04166667,,,,,,FBP-YG-91.png,0.35,1.2,26,0.25,0,44,44,25,1,,,,,,,,,,,,,,,,,,,,,,,,,,,,,,,,,,,,,,,,
,,,,,SPR24_004,21,F,2024-04-03_11h44.10.023,jersey_experiment_5_v0,2023.2.2,Win32,85.47008547,,,,,,,,,,,,,,,,434.2579,435.5517,435.5518,436.7636,return,0.3446,,75.52083333,,,,,,FBP-OG-18.png,0.35,1.2,6,0.5,0,45,45,5,1,,,,,,,,,,,,,,,,,,,,,,,,,,,,,,,,,,,,,,,,
,,,,,SPR24_004,21,F,2024-04-03_11h44.10.023,jersey_experiment_5_v0,2023.2.2,Win32,85.47008547,,,,,,,,,,,,,,,,436.7639,437.8107,437.8107,438.94,return,0.3645,,75.390625,,,,,,FBP-YG-71.png,0.37,1.2,17,0.25,0,46,46,16,1,,,,,,,,,,,,,,,,,,,,,,,,,,,,,,,,,,,,,,,,
,,,,,SPR24_004,21,F,2024-04-03_11h44.10.023,jersey_experiment_5_v0,2023.2.2,Win32,85.47008547,,,,,,,,,,,,,,,,438.9403,440.2342,440.2344,441.0344,return,0.3187,,74.73958333,,,,,,FBP-RB-71.png,0.35,1.2,31,0.5,0,47,47,30,1,,,,,,,,,,,,,,,,,,,,,,,,,,,,,,,,,,,,,,,,
,,,,,SPR24_004,21,F,2024-04-03_11h44.10.023,jersey_experiment_5_v0,2023.2.2,Win32,85.47008547,,,,,,,,,,,,,,,,441.0346,442.3286,442.3286,443.9757,return,0.3937,,99.47916667,,,,,,FBP-OG-17.png,0.4,1.2,3,0.5,0,48,48,2,1,,,,,,,,,,,,,,,,,,,,,,,,,,,,,,,,,,,,,,,,
,,,,,SPR24_004,21,F,2024-04-03_11h44.10.023,jersey_experiment_5_v0,2023.2.2,Win32,85.47008547,,,,,,,,,,,,,,,,443.9758,445.2698,445.2698,446.1757,return,0.2504,,99.609375,,,,,,FBP-RB-91.png,0.45,1.2,45,0.5,0,49,49,44,1,,,,,,,,,,,,,,,,,,,,,,,,,,,,,,,,,,,,,,,,
,,,,,SPR24_004,21,F,2024-04-03_11h44.10.023,jersey_experiment_5_v0,2023.2.2,Win32,85.47008547,,,,,,,,,,,,,,,,446.176,447.4699,447.4699,448.1994,return,0.2078,,99.73958333,,,,,,FBP-OG-19.png,0.45,1.2,15,0.5,0,50,50,14,1,,,,,,,,,,,,,,,,,,,,,,,,,,,,,,,,,,,,,,,,
,,,,,SPR24_004,21,F,2024-04-03_11h44.10.023,jersey_experiment_5_v0,2023.2.2,Win32,85.47008547,,,,,,,,,,,,,,,,448.1997,449.2463,449.2464,450.7759,return,0.4629,,76.69270833,,,,,,FBP-PT-81.png,0.37,1.2,52,0.25,0,51,51,51,1,,,,,,,,,,,,,,,,,,,,,,,,,,,,,,,,,,,,,,,,
,,,,,SPR24_004,21,F,2024-04-03_11h44.10.023,jersey_experiment_5_v0,2023.2.2,Win32,85.47008547,,,,,,,,,,,,,,,,450.7761,451.8233,451.8233,453.2583,return,0.2383,,74.609375,,,,,,FBP-PT-91.png,0.37,1.2,57,0.25,0,52,52,56,1,,,,,,,,,,,,,,,,,,,,,,,,,,,,,,,,,,,,,,,,
,,,,,SPR24_004,21,F,2024-04-03_11h44.10.023,jersey_experiment_5_v0,2023.2.2,Win32,85.47008547,,,,,,,,,,,,,,,,453.2585,454.3053,454.3053,455.6702,return,0.2439,,99.21875,,,,,,FBP-YG-91.png,0.45,1.2,30,0.25,0,53,53,29,1,,,,,,,,,,,,,,,,,,,,,,,,,,,,,,,,,,,,,,,,
,,,,,SPR24_004,21,F,2024-04-03_11h44.10.023,jersey_experiment_5_v0,2023.2.2,Win32,85.47008547,,,,,,,,,,,,,,,,455.6705,456.9644,456.9644,458.8232,return,0.4548,,75,,,,,,FBP-RB-91.png,0.37,1.2,42,0.5,0,54,54,41,1,,,,,,,,,,,,,,,,,,,,,,,,,,,,,,,,,,,,,,,,
,,,,,SPR24_004,21,F,2024-04-03_11h44.10.023,jersey_experiment_5_v0,2023.2.2,Win32,85.47008547,,,,,,,,,,,,,,,,458.8235,460.1173,460.1173,460.9057,return,0.2996,,75.390625,,,,,,FBP-OG-19.png,0.4,1.2,13,0.5,0,55,55,12,1,,,,,,,,,,,,,,,,,,,,,,,,,,,,,,,,,,,,,,,,
,,,,,SPR24_004,21,F,2024-04-03_11h44.10.023,jersey_experiment_5_v0,2023.2.2,Win32,85.47008547,,,,,,,,,,,,,,,,460.906,462.1999,462.2,463.4823,return,0.4756,,74.86979167,,,,,,FBP-OG-18.png,0.43,1.2,9,0.5,0,56,56,8,1,,,,,,,,,,,,,,,,,,,,,,,,,,,,,,,,,,,,,,,,
,,,,,SPR24_004,21,F,2024-04-03_11h44.10.023,jersey_experiment_5_v0,2023.2.2,Win32,85.47008547,,,,,,,,,,,,,,,,463.4825,464.7766,464.7766,466.9294,return,0.3907,,99.08854167,,,,,,FBP-RB-81.png,0.45,1.2,40,0.5,0,57,57,39,1,,,,,,,,,,,,,,,,,,,,,,,,,,,,,,,,,,,,,,,,
,,,,,SPR24_004,21,F,2024-04-03_11h44.10.023,jersey_experiment_5_v0,2023.2.2,Win32,85.47008547,,,,,,,,,,,,,,,,466.9298,468.2236,468.2236,469.706,return,0.252,,75,,,,,,FBP-OG-18.png,0.37,1.2,7,0.5,0,58,58,6,1,,,,,,,,,,,,,,,,,,,,,,,,,,,,,,,,,,,,,,,,
,,,,,SPR24_004,21,F,2024-04-03_11h44.10.023,jersey_experiment_5_v0,2023.2.2,Win32,85.47008547,,,,,,,,,,,,,,,,469.7063,470.7531,470.7532,473.1531,return,0.5391,,49.21875,,,,,,FBP-PT-81.png,0.35,1.2,51,0.25,0,59,59,50,1,,,,,,,,,,,,,,,,,,,,,,,,,,,,,,,,,,,,,,,,
,,,,,SPR24_004,21,F,2024-04-03_11h44.10.023,jersey_experiment_5_v0,2023.2.2,Win32,85.47008547,,,,,,,,,,,,,,,,,,,,,,,,,,,,,,,,,,,,,,,473.1536,593.1464,,,,,,,,,,,,,,,,,,,,,,,,,,,,,,,,,,,,,,
,,,,,SPR24_004,21,F,2024-04-03_11h44.10.023,jersey_experiment_5_v0,2023.2.2,Win32,85.47008547,,,,,,,,,,,,,,,,,,,,,,,,,,,,,,,,,,,,,,,,,593.1466,653.9368,return,60.7764,,,,,,,,,,,,,,,,,,,,,,,,,,,,,,,,,,
,,,,,SPR24_004,21,F,2024-04-03_11h44.10.023,jersey_experiment_5_v0,2023.2.2,Win32,85.47008547,,,,,,,,,,,,,,,,653.9429,654.9953,654.9953,662.7486,return,3.9064,,49.73958333,,,,,,FBP-OG-91.png,0.35,1.2,11,0.25,,,,,,,,,,,,,0,0,0,10,1,,,,,,,,,,,,,,,,,,,,,,,,,,,,
,,,,,SPR24_004,21,F,2024-04-03_11h44.10.023,jersey_experiment_5_v0,2023.2.2,Win32,85.47008547,,,,,,,,,,,,,,,,662.7533,664.0547,664.0547,666.1723,return,0.1752,,99.609375,,,,,,FBP-YG-17.png,0.45,1.2,20,0.5,,,,,,,,,,,,,0,1,1,19,1,,,,,,,,,,,,,,,,,,,,,,,,,,,,
,,,,,SPR24_004,21,F,2024-04-03_11h44.10.023,jersey_experiment_5_v0,2023.2.2,Win32,85.47008547,,,,,,,,,,,,,,,,666.1726,667.4664,667.4664,668.6077,return,0.2355,,75.65104167,,,,,,FBP-PT-18.png,0.4,1.2,53,0.5,,,,,,,,,,,,,0,2,2,52,1,,,,,,,,,,,,,,,,,,,,,,,,,,,,
,,,,,SPR24_004,21,F,2024-04-03_11h44.10.023,jersey_experiment_5_v0,2023.2.2,Win32,85.47008547,,,,,,,,,,,,,,,,668.6079,669.902,669.9021,671.7607,return,0.2506,,99.47916667,,,,,,FBP-PT-18.png,0.45,1.2,55,0.5,,,,,,,,,,,,,0,3,3,54,1,,,,,,,,,,,,,,,,,,,,,,,,,,,,
,,,,,SPR24_004,21,F,2024-04-03_11h44.10.023,jersey_experiment_5_v0,2023.2.2,Win32,85.47008547,,,,,,,,,,,,,,,,671.7609,673.0549,673.0549,673.8549,return,0.416,,99.47916667,,,,,,FBP-PT-19.png,0.45,1.2,60,0.5,,,,,,,,,,,,,0,4,4,59,1,,,,,,,,,,,,,,,,,,,,,,,,,,,,
,,,,,SPR24_004,21,F,2024-04-03_11h44.10.023,jersey_experiment_5_v0,2023.2.2,Win32,85.47008547,,,,,,,,,,,,,,,,673.8551,674.902,674.9021,676.6551,return,0.2119,,75,,,,,,FBP-OG-71.png,0.35,1.2,1,0.25,,,,,,,,,,,,,0,5,5,0,1,,,,,,,,,,,,,,,,,,,,,,,,,,,,
,,,,,SPR24_004,21,F,2024-04-03_11h44.10.023,jersey_experiment_5_v0,2023.2.2,Win32,85.47008547,,,,,,,,,,,,,,,,676.6553,677.702,677.702,679.8082,return,0.3673,,99.08854167,,,,,,FBP-RB-19.png,0.4,1.2,43,0.25,,,,,,,,,,,,,0,6,6,42,1,,,,,,,,,,,,,,,,,,,,,,,,,,,,
,,,,,SPR24_004,21,F,2024-04-03_11h44.10.023,jersey_experiment_5_v0,2023.2.2,Win32,85.47008547,,,,,,,,,,,,,,,,679.8084,680.8551,680.8552,683.02,return,0.8831,,99.34895833,,,,,,FBP-RB-19.png,0.37,1.2,42,0.25,,,,,,,,,,,,,0,7,7,41,1,,,,,,,,,,,,,,,,,,,,,,,,,,,,
,,,,,SPR24_004,21,F,2024-04-03_11h44.10.023,jersey_experiment_5_v0,2023.2.2,Win32,85.47008547,,,,,,,,,,,,,,,,683.0202,684.0671,684.0671,685.4671,return,0.2009,,75,,,,,,FBP-OG-91.png,0.37,1.2,12,0.25,,,,,,,,,,,,,0,8,8,11,1,,,,,,,,,,,,,,,,,,,,,,,,,,,,
,,,,,SPR24_004,21,F,2024-04-03_11h44.10.023,jersey_experiment_5_v0,2023.2.2,Win32,85.47008547,,,,,,,,,,,,,,,,685.4672,686.5141,686.5141,687.3612,return,0.2259,,75,,,,,,FBP-RB-19.png,0.35,1.2,41,0.25,,,,,,,,,,,,,0,9,9,40,1,,,,,,,,,,,,,,,,,,,,,,,,,,,,
,,,,,SPR24_004,21,F,2024-04-03_11h44.10.023,jersey_experiment_5_v0,2023.2.2,Win32,85.47008547,,,,,,,,,,,,,,,,687.3615,688.6554,688.6554,690.2673,return,0.3196,,99.47916667,,,,,,FBP-YG-18.png,0.4,1.2,23,0.5,,,,,,,,,,,,,0,10,10,22,1,,,,,,,,,,,,,,,,,,,,,,,,,,,,
,,,,,SPR24_004,21,F,2024-04-03_11h44.10.023,jersey_experiment_5_v0,2023.2.2,Win32,85.47008547,,,,,,,,,,,,,,,,690.2675,691.3143,691.3144,694.1025,return,0.2205,,99.73958333,,,,,,FBP-OG-81.png,0.43,1.2,9,0.25,,,,,,,,,,,,,0,11,11,8,1,,,,,,,,,,,,,,,,,,,,,,,,,,,,
,,,,,SPR24_004,21,F,2024-04-03_11h44.10.023,jersey_experiment_5_v0,2023.2.2,Win32,85.47008547,,,,,,,,,,,,,,,,694.1027,695.3969,695.3969,696.2088,return,0.2963,,98.828125,,,,,,FBP-YG-17.png,0.43,1.2,19,0.5,,,,,,,,,,,,,0,12,12,18,1,,,,,,,,,,,,,,,,,,,,,,,,,,,,
,,,,,SPR24_004,21,F,2024-04-03_11h44.10.023,jersey_experiment_5_v0,2023.2.2,Win32,85.47008547,,,,,,,,,,,,,,,,696.2091,697.5029,697.5029,698.7263,return,0.2326,,74.47916667,,,,,,FBP-YG-19.png,0.37,1.2,27,0.5,,,,,,,,,,,,,0,13,13,26,1,,,,,,,,,,,,,,,,,,,,,,,,,,,,
,,,,,SPR24_004,21,F,2024-04-03_11h44.10.023,jersey_experiment_5_v0,2023.2.2,Win32,85.47008547,,,,,,,,,,,,,,,,698.7265,699.7735,699.7735,701.1029,return,0.2741,,99.609375,,,,,,FBP-RB-18.png,0.45,1.2,40,0.25,,,,,,,,,,,,,0,14,14,39,1,,,,,,,,,,,,,,,,,,,,,,,,,,,,
,,,,,SPR24_004,21,F,2024-04-03_11h44.10.023,jersey_experiment_5_v0,2023.2.2,Win32,85.47008547,,,,,,,,,,,,,,,,701.1032,702.1499,702.1499,704.9855,return,0.1449,,74.73958333,,,,,,FBP-OG-71.png,0.43,1.2,4,0.25,,,,,,,,,,,,,0,15,15,3,1,,,,,,,,,,,,,,,,,,,,,,,,,,,,
,,,,,SPR24_004,21,F,2024-04-03_11h44.10.023,jersey_experiment_5_v0,2023.2.2,Win32,85.47008547,,,,,,,,,,,,,,,,704.9858,706.2796,706.2796,710.3622,return,2.2963,,49.73958333,,,,,,FBP-PT-17.png,0.37,1.2,47,0.5,,,,,,,,,,,,,0,16,16,46,1,,,,,,,,,,,,,,,,,,,,,,,,,,,,
,,,,,SPR24_004,21,F,2024-04-03_11h44.10.023,jersey_experiment_5_v0,2023.2.2,Win32,85.47008547,,,,,,,,,,,,,,,,710.3625,711.4092,711.4092,713.6092,return,0.5097,,74.47916667,,,,,,FBP-RB-17.png,0.37,1.2,32,0.25,,,,,,,,,,,,,0,17,17,31,1,,,,,,,,,,,,,,,,,,,,,,,,,,,,
,,,,,SPR24_004,21,F,2024-04-03_11h44.10.023,jersey_experiment_5_v0,2023.2.2,Win32,85.47008547,,,,,,,,,,,,,,,,713.6095,714.9034,714.9035,717.1977,return,0.2587,,25,,,,,,FBP-PT-18.png,0.35,1.2,51,0.5,,,,,,,,,,,,,0,18,18,50,1,,,,,,,,,,,,,,,,,,,,,,,,,,,,
,,,,,SPR24_004,21,F,2024-04-03_11h44.10.023,jersey_experiment_5_v0,2023.2.2,Win32,85.47008547,,,,,,,,,,,,,,,,717.198,718.2449,718.245,719.7743,return,0.2135,,74.73958333,,,,,,FBP-RB-17.png,0.4,1.2,33,0.25,,,,,,,,,,,,,0,19,19,32,1,,,,,,,,,,,,,,,,,,,,,,,,,,,,
,,,,,SPR24_004,21,F,2024-04-03_11h44.10.023,jersey_experiment_5_v0,2023.2.2,Win32,85.47008547,,,,,,,,,,,,,,,,719.7745,720.8214,720.8215,724.9745,return,0.4714,,74.73958333,,,,,,FBP-RB-18.png,0.43,1.2,39,0.25,,,,,,,,,,,,,0,20,20,38,1,,,,,,,,,,,,,,,,,,,,,,,,,,,,
,,,,,SPR24_004,21,F,2024-04-03_11h44.10.023,jersey_experiment_5_v0,2023.2.2,Win32,85.47008547,,,,,,,,,,,,,,,,724.9746,726.2685,726.2686,729.0572,return,0.5872,,26.5625,,,,,,FBP-YG-17.png,0.37,1.2,17,0.5,,,,,,,,,,,,,0,21,21,16,1,,,,,,,,,,,,,,,,,,,,,,,,,,,,
,,,,,SPR24_004,21,F,2024-04-03_11h44.10.023,jersey_experiment_5_v0,2023.2.2,Win32,85.47008547,,,,,,,,,,,,,,,,729.0574,730.1041,730.1041,732.8454,return,0.9083,,49.34895833,,,,,,FBP-OG-81.png,0.37,1.2,7,0.25,,,,,,,,,,,,,0,22,22,6,1,,,,,,,,,,,,,,,,,,,,,,,,,,,,
,,,,,SPR24_004,21,F,2024-04-03_11h44.10.023,jersey_experiment_5_v0,2023.2.2,Win32,85.47008547,,,,,,,,,,,,,,,,732.8456,733.8924,733.8924,735.3748,return,0.1647,,99.08854167,,,,,,FBP-OG-91.png,0.45,1.2,15,0.25,,,,,,,,,,,,,0,23,23,14,1,,,,,,,,,,,,,,,,,,,,,,,,,,,,
,,,,,SPR24_004,21,F,2024-04-03_11h44.10.023,jersey_experiment_5_v0,2023.2.2,Win32,85.47008547,,,,,,,,,,,,,,,,735.375,736.4219,736.422,738.5043,return,0.1714,,25,,,,,,FBP-RB-18.png,0.35,1.2,36,0.25,,,,,,,,,,,,,0,24,24,35,1,,,,,,,,,,,,,,,,,,,,,,,,,,,,
,,,,,SPR24_004,21,F,2024-04-03_11h44.10.023,jersey_experiment_5_v0,2023.2.2,Win32,85.47008547,,,,,,,,,,,,,,,,738.5045,739.7986,739.7986,742.2575,return,0.1647,,74.86979167,,,,,,FBP-YG-19.png,0.4,1.2,28,0.5,,,,,,,,,,,,,0,25,25,27,1,,,,,,,,,,,,,,,,,,,,,,,,,,,,
,,,,,SPR24_004,21,F,2024-04-03_11h44.10.023,jersey_experiment_5_v0,2023.2.2,Win32,85.47008547,,,,,,,,,,,,,,,,742.2578,743.5516,743.5516,744.7752,return,0.1235,,74.34895833,,,,,,FBP-PT-19.png,0.37,1.2,57,0.5,,,,,,,,,,,,,0,26,26,56,1,,,,,,,,,,,,,,,,,,,,,,,,,,,,
,,,,,SPR24_004,21,F,2024-04-03_11h44.10.023,jersey_experiment_5_v0,2023.2.2,Win32,85.47008547,,,,,,,,,,,,,,,,744.7755,746.0692,746.0693,747.4813,return,0.1923,,99.73958333,,,,,,FBP-PT-19.png,0.4,1.2,58,0.5,,,,,,,,,,,,,0,27,27,57,1,,,,,,,,,,,,,,,,,,,,,,,,,,,,
,,,,,SPR24_004,21,F,2024-04-03_11h44.10.023,jersey_experiment_5_v0,2023.2.2,Win32,85.47008547,,,,,,,,,,,,,,,,747.4815,748.5282,748.5282,749.5166,return,0.284,,98.828125,,,,,,FBP-OG-71.png,0.4,1.2,3,0.25,,,,,,,,,,,,,0,28,28,2,1,,,,,,,,,,,,,,,,,,,,,,,,,,,,
,,,,,SPR24_004,21,F,2024-04-03_11h44.10.023,jersey_experiment_5_v0,2023.2.2,Win32,85.47008547,,,,,,,,,,,,,,,,749.5167,750.8108,750.8108,751.9756,return,0.1236,,74.73958333,,,,,,FBP-PT-17.png,0.35,1.2,46,0.5,,,,,,,,,,,,,0,29,29,45,1,,,,,,,,,,,,,,,,,,,,,,,,,,,,
,,,,,SPR24_004,21,F,2024-04-03_11h44.10.023,jersey_experiment_5_v0,2023.2.2,Win32,85.47008547,,,,,,,,,,,,,,,,751.9757,753.2696,753.2697,755.1521,return,0.367,,74.73958333,,,,,,FBP-YG-18.png,0.37,1.2,22,0.5,,,,,,,,,,,,,0,30,30,21,1,,,,,,,,,,,,,,,,,,,,,,,,,,,,
,,,,,SPR24_004,21,F,2024-04-03_11h44.10.023,jersey_experiment_5_v0,2023.2.2,Win32,85.47008547,,,,,,,,,,,,,,,,755.1524,756.4461,756.4461,757.7522,return,0.2174,,98.17708333,,,,,,FBP-YG-19.png,0.43,1.2,29,0.5,,,,,,,,,,,,,0,31,31,28,1,,,,,,,,,,,,,,,,,,,,,,,,,,,,
,,,,,SPR24_004,21,F,2024-04-03_11h44.10.023,jersey_experiment_5_v0,2023.2.2,Win32,85.47008547,,,,,,,,,,,,,,,,757.7524,758.7993,758.7993,760.058,return,0.1322,,75.390625,,,,,,FBP-OG-81.png,0.35,1.2,6,0.25,,,,,,,,,,,,,0,32,32,5,1,,,,,,,,,,,,,,,,,,,,,,,,,,,,
,,,,,SPR24_004,21,F,2024-04-03_11h44.10.023,jersey_experiment_5_v0,2023.2.2,Win32,85.47008547,,,,,,,,,,,,,,,,760.0583,761.1052,761.1053,762.7288,return,0.2537,,98.30729167,,,,,,FBP-OG-91.png,0.43,1.2,14,0.25,,,,,,,,,,,,,0,33,33,13,1,,,,,,,,,,,,,,,,,,,,,,,,,,,,
,,,,,SPR24_004,21,F,2024-04-03_11h44.10.023,jersey_experiment_5_v0,2023.2.2,Win32,85.47008547,,,,,,,,,,,,,,,,762.7291,764.0232,764.0233,766.9761,return,0.3069,,75.13020833,,,,,,FBP-PT-18.png,0.37,1.2,52,0.5,,,,,,,,,,,,,0,34,34,51,1,,,,,,,,,,,,,,,,,,,,,,,,,,,,
,,,,,SPR24_004,21,F,2024-04-03_11h44.10.023,jersey_experiment_5_v0,2023.2.2,Win32,85.47008547,,,,,,,,,,,,,,,,766.9763,768.0231,768.0232,769.882,return,0.2291,,24.73958333,,,,,,FBP-RB-17.png,0.35,1.2,31,0.25,,,,,,,,,,,,,0,35,35,30,1,,,,,,,,,,,,,,,,,,,,,,,,,,,,
,,,,,SPR24_004,21,F,2024-04-03_11h44.10.023,jersey_experiment_5_v0,2023.2.2,Win32,85.47008547,,,,,,,,,,,,,,,,769.8823,771.1761,771.1761,773.7528,return,0.2183,,99.34895833,,,,,,FBP-PT-17.png,0.45,1.2,50,0.5,,,,,,,,,,,,,0,36,36,49,1,,,,,,,,,,,,,,,,,,,,,,,,,,,,
,,,,,SPR24_004,21,F,2024-04-03_11h44.10.023,jersey_experiment_5_v0,2023.2.2,Win32,85.47008547,,,,,,,,,,,,,,,,773.7529,774.7997,774.7997,776.0588,return,0.2028,,98.30729167,,,,,,FBP-OG-71.png,0.45,1.2,5,0.25,,,,,,,,,,,,,0,37,37,4,1,,,,,,,,,,,,,,,,,,,,,,,,,,,,
,,,,,SPR24_004,21,F,2024-04-03_11h44.10.023,jersey_experiment_5_v0,2023.2.2,Win32,85.47008547,,,,,,,,,,,,,,,,776.059,777.3528,777.353,778.5412,return,0.2605,,75.390625,,,,,,FBP-YG-18.png,0.35,1.2,21,0.5,,,,,,,,,,,,,0,38,38,20,1,,,,,,,,,,,,,,,,,,,,,,,,,,,,
,,,,,SPR24_004,21,F,2024-04-03_11h44.10.023,jersey_experiment_5_v0,2023.2.2,Win32,85.47008547,,,,,,,,,,,,,,,,778.5415,779.8352,779.8353,782.2473,return,0.2068,,99.34895833,,,,,,FBP-PT-17.png,0.4,1.2,48,0.5,,,,,,,,,,,,,0,39,39,47,1,,,,,,,,,,,,,,,,,,,,,,,,,,,,
,,,,,SPR24_004,21,F,2024-04-03_11h44.10.023,jersey_experiment_5_v0,2023.2.2,Win32,85.47008547,,,,,,,,,,,,,,,,782.2475,783.2944,783.2945,784.5296,return,0.245,,99.21875,,,,,,FBP-OG-81.png,0.4,1.2,8,0.25,,,,,,,,,,,,,0,40,40,7,1,,,,,,,,,,,,,,,,,,,,,,,,,,,,
,,,,,SPR24_004,21,F,2024-04-03_11h44.10.023,jersey_experiment_5_v0,2023.2.2,Win32,85.47008547,,,,,,,,,,,,,,,,784.5299,785.8237,785.8238,786.6238,return,0.2214,,98.95833333,,,,,,FBP-YG-19.png,0.45,1.2,30,0.5,,,,,,,,,,,,,0,41,41,29,1,,,,,,,,,,,,,,,,,,,,,,,,,,,,
,,,,,SPR24_004,21,F,2024-04-03_11h44.10.023,jersey_experiment_5_v0,2023.2.2,Win32,85.47008547,,,,,,,,,,,,,,,,786.6241,787.918,787.918,789.0944,return,0.2277,,98.95833333,,,,,,FBP-YG-18.png,0.45,1.2,25,0.5,,,,,,,,,,,,,0,42,42,24,1,,,,,,,,,,,,,,,,,,,,,,,,,,,,
,,,,,SPR24_004,21,F,2024-04-03_11h44.10.023,jersey_experiment_5_v0,2023.2.2,Win32,85.47008547,,,,,,,,,,,,,,,,789.0948,790.3887,790.3888,792.9772,return,0.3157,,27.21354167,,,,,,FBP-YG-17.png,0.35,1.2,16,0.5,,,,,,,,,,,,,0,43,43,15,1,,,,,,,,,,,,,,,,,,,,,,,,,,,,
,,,,,SPR24_004,21,F,2024-04-03_11h44.10.023,jersey_experiment_5_v0,2023.2.2,Win32,85.47008547,,,,,,,,,,,,,,,,792.9775,794.0243,794.0244,795.9302,return,0.2146,,60.28645833,,,,,,FBP-OG-71.png,0.37,1.2,2,0.25,,,,,,,,,,,,,0,44,44,1,1,,,,,,,,,,,,,,,,,,,,,,,,,,,,
,,,,,SPR24_004,21,F,2024-04-03_11h44.10.023,jersey_experiment_5_v0,2023.2.2,Win32,85.47008547,,,,,,,,,,,,,,,,795.9305,797.2242,797.2242,798.4008,return,0.1183,,59.50520833,,,,,,FBP-YG-19.png,0.35,1.2,26,0.5,,,,,,,,,,,,,0,45,45,25,1,,,,,,,,,,,,,,,,,,,,,,,,,,,,
,,,,,SPR24_004,21,F,2024-04-03_11h44.10.023,jersey_experiment_5_v0,2023.2.2,Win32,85.47008547,,,,,,,,,,,,,,,,798.401,799.6951,799.6952,802.0715,return,0.2785,,99.21875,,,,,,FBP-PT-17.png,0.43,1.2,49,0.5,,,,,,,,,,,,,0,46,46,48,1,,,,,,,,,,,,,,,,,,,,,,,,,,,,
,,,,,SPR24_004,21,F,2024-04-03_11h44.10.023,jersey_experiment_5_v0,2023.2.2,Win32,85.47008547,,,,,,,,,,,,,,,,802.0716,803.1185,803.1186,804.2834,return,0.2501,,99.21875,,,,,,FBP-RB-19.png,0.45,1.2,45,0.25,,,,,,,,,,,,,0,47,47,44,1,,,,,,,,,,,,,,,,,,,,,,,,,,,,
,,,,,SPR24_004,21,F,2024-04-03_11h44.10.023,jersey_experiment_5_v0,2023.2.2,Win32,85.47008547,,,,,,,,,,,,,,,,804.2835,805.3304,805.3304,806.7305,return,0.2284,,99.21875,,,,,,FBP-RB-19.png,0.43,1.2,44,0.25,,,,,,,,,,,,,0,48,48,43,1,,,,,,,,,,,,,,,,,,,,,,,,,,,,
,,,,,SPR24_004,21,F,2024-04-03_11h44.10.023,jersey_experiment_5_v0,2023.2.2,Win32,85.47008547,,,,,,,,,,,,,,,,806.7308,807.7775,807.7776,809.2011,return,0.1652,,75.91145833,,,,,,FBP-RB-18.png,0.37,1.2,37,0.25,,,,,,,,,,,,,0,49,49,36,1,,,,,,,,,,,,,,,,,,,,,,,,,,,,
,,,,,SPR24_004,21,F,2024-04-03_11h44.10.023,jersey_experiment_5_v0,2023.2.2,Win32,85.47008547,,,,,,,,,,,,,,,,809.2013,810.2482,810.2482,811.307,return,0.2267,,99.21875,,,,,,FBP-OG-81.png,0.45,1.2,10,0.25,,,,,,,,,,,,,0,50,50,9,1,,,,,,,,,,,,,,,,,,,,,,,,,,,,
,,,,,SPR24_004,21,F,2024-04-03_11h44.10.023,jersey_experiment_5_v0,2023.2.2,Win32,85.47008547,,,,,,,,,,,,,,,,811.3073,812.6013,812.6013,814.0601,return,0.3091,,74.08854167,,,,,,FBP-PT-19.png,0.35,1.2,56,0.5,,,,,,,,,,,,,0,51,51,55,1,,,,,,,,,,,,,,,,,,,,,,,,,,,,
,,,,,SPR24_004,21,F,2024-04-03_11h44.10.023,jersey_experiment_5_v0,2023.2.2,Win32,85.47008547,,,,,,,,,,,,,,,,814.0603,815.1073,815.1073,818.2368,return,0.46,,74.08854167,,,,,,FBP-OG-91.png,0.4,1.2,13,0.25,,,,,,,,,,,,,0,52,52,12,1,,,,,,,,,,,,,,,,,,,,,,,,,,,,
,,,,,SPR24_004,21,F,2024-04-03_11h44.10.023,jersey_experiment_5_v0,2023.2.2,Win32,85.47008547,,,,,,,,,,,,,,,,818.2369,819.2838,819.2838,820.6722,return,0.2361,,99.47916667,,,,,,FBP-RB-18.png,0.4,1.2,38,0.25,,,,,,,,,,,,,0,53,53,37,1,,,,,,,,,,,,,,,,,,,,,,,,,,,,
,,,,,SPR24_004,21,F,2024-04-03_11h44.10.023,jersey_experiment_5_v0,2023.2.2,Win32,85.47008547,,,,,,,,,,,,,,,,820.6724,821.9663,821.9664,823.0016,return,0.1939,,74.34895833,,,,,,FBP-YG-17.png,0.4,1.2,18,0.5,,,,,,,,,,,,,0,54,54,17,1,,,,,,,,,,,,,,,,,,,,,,,,,,,,
,,,,,SPR24_004,21,F,2024-04-03_11h44.10.023,jersey_experiment_5_v0,2023.2.2,Win32,85.47008547,,,,,,,,,,,,,,,,823.002,824.296,824.296,825.5429,return,0.2436,,99.08854167,,,,,,FBP-PT-19.png,0.43,1.2,59,0.5,,,,,,,,,,,,,0,55,55,58,1,,,,,,,,,,,,,,,,,,,,,,,,,,,,
,,,,,SPR24_004,21,F,2024-04-03_11h44.10.023,jersey_experiment_5_v0,2023.2.2,Win32,85.47008547,,,,,,,,,,,,,,,,825.5431,826.8371,826.8372,827.8959,return,0.4875,,99.08854167,,,,,,FBP-YG-18.png,0.43,1.2,24,0.5,,,,,,,,,,,,,0,56,56,23,1,,,,,,,,,,,,,,,,,,,,,,,,,,,,
,,,,,SPR24_004,21,F,2024-04-03_11h44.10.023,jersey_experiment_5_v0,2023.2.2,Win32,85.47008547,,,,,,,,,,,,,,,,827.8962,828.9429,828.943,830.5079,return,0.2001,,99.47916667,,,,,,FBP-RB-17.png,0.43,1.2,34,0.25,,,,,,,,,,,,,0,57,57,33,1,,,,,,,,,,,,,,,,,,,,,,,,,,,,
,,,,,SPR24_004,21,F,2024-04-03_11h44.10.023,jersey_experiment_5_v0,2023.2.2,Win32,85.47008547,,,,,,,,,,,,,,,,830.508,831.802,831.802,832.5079,return,0.2626,,99.47916667,,,,,,FBP-PT-18.png,0.43,1.2,54,0.5,,,,,,,,,,,,,0,58,58,53,1,,,,,,,,,,,,,,,,,,,,,,,,,,,,
,,,,,SPR24_004,21,F,2024-04-03_11h44.10.023,jersey_experiment_5_v0,2023.2.2,Win32,85.47008547,,,,,,,,,,,,,,,,832.5082,833.5549,833.5549,834.3905,return,0.3621,,99.47916667,,,,,,FBP-RB-17.png,0.45,1.2,35,0.25,,,,,,,,,,,,,0,59,59,34,1,,,,,,,,,,,,,,,,,,,,,,,,,,,,
,,,,,SPR24_004,21,F,2024-04-03_11h44.10.023,jersey_experiment_5_v0,2023.2.2,Win32,85.47008547,,,,,,,,,,,,,,,,834.3925,835.4374,835.4375,836.3787,return,0.2513,,99.47916667,,,,,,FBP-RB-91.png,0.45,1.2,45,0.25,,,,,,,,,,,,,,,,,,0,0,0,44,1,,,,,,,,,,,,,,,,,,,,,,,
,,,,,SPR24_004,21,F,2024-04-03_11h44.10.023,jersey_experiment_5_v0,2023.2.2,Win32,85.47008547,,,,,,,,,,,,,,,,836.3789,837.6729,837.6729,839.2257,return,0.2994,,99.34895833,,,,,,FBP-YG-71.png,0.4,1.2,18,0.5,,,,,,,,,,,,,,,,,,0,1,1,17,1,,,,,,,,,,,,,,,,,,,,,,,
,,,,,SPR24_004,21,F,2024-04-03_11h44.10.023,jersey_experiment_5_v0,2023.2.2,Win32,85.47008547,,,,,,,,,,,,,,,,839.226,840.52,840.52,841.6258,return,0.2276,,73.69791667,,,,,,FBP-YG-81.png,0.37,1.2,22,0.5,,,,,,,,,,,,,,,,,,0,2,2,21,1,,,,,,,,,,,,,,,,,,,,,,,
,,,,,SPR24_004,21,F,2024-04-03_11h44.10.023,jersey_experiment_5_v0,2023.2.2,Win32,85.47008547,,,,,,,,,,,,,,,,841.6262,842.673,842.673,843.5436,return,0.29,,74.47916667,,,,,,FBP-RB-81.png,0.35,1.2,36,0.25,,,,,,,,,,,,,,,,,,0,3,3,35,1,,,,,,,,,,,,,,,,,,,,,,,
,,,,,SPR24_004,21,F,2024-04-03_11h44.10.023,jersey_experiment_5_v0,2023.2.2,Win32,85.47008547,,,,,,,,,,,,,,,,843.5438,844.8377,844.8377,846.2379,return,0.2009,,99.34895833,,,,,,FBP-PT-91.png,0.43,1.2,59,0.5,,,,,,,,,,,,,,,,,,0,4,4,58,1,,,,,,,,,,,,,,,,,,,,,,,
,,,,,SPR24_004,21,F,2024-04-03_11h44.10.023,jersey_experiment_5_v0,2023.2.2,Win32,85.47008547,,,,,,,,,,,,,,,,846.2381,847.5319,847.532,849.3086,return,0.6614,,74.73958333,,,,,,FBP-YG-91.png,0.35,1.2,26,0.5,,,,,,,,,,,,,,,,,,0,5,5,25,1,,,,,,,,,,,,,,,,,,,,,,,
,,,,,SPR24_004,21,F,2024-04-03_11h44.10.023,jersey_experiment_5_v0,2023.2.2,Win32,85.47008547,,,,,,,,,,,,,,,,849.3088,850.6029,850.6029,852.3322,return,0.2739,,99.34895833,,,,,,FBP-PT-71.png,0.43,1.2,49,0.5,,,,,,,,,,,,,,,,,,0,6,6,48,1,,,,,,,,,,,,,,,,,,,,,,,
,,,,,SPR24_004,21,F,2024-04-03_11h44.10.023,jersey_experiment_5_v0,2023.2.2,Win32,85.47008547,,,,,,,,,,,,,,,,852.3325,853.6263,853.6264,854.5557,return,0.192,,99.34895833,,,,,,FBP-PT-81.png,0.43,1.2,54,0.5,,,,,,,,,,,,,,,,,,0,7,7,53,1,,,,,,,,,,,,,,,,,,,,,,,
,,,,,SPR24_004,21,F,2024-04-03_11h44.10.023,jersey_experiment_5_v0,2023.2.2,Win32,85.47008547,,,,,,,,,,,,,,,,854.5559,855.6029,855.6029,856.3441,return,0.2412,,99.34895833,,,,,,FBP-RB-81.png,0.43,1.2,39,0.25,,,,,,,,,,,,,,,,,,0,8,8,38,1,,,,,,,,,,,,,,,,,,,,,,,
,,,,,SPR24_004,21,F,2024-04-03_11h44.10.023,jersey_experiment_5_v0,2023.2.2,Win32,85.47008547,,,,,,,,,,,,,,,,856.3442,857.3912,857.3913,858.297,return,0.2417,,99.47916667,,,,,,FBP-RB-81.png,0.4,1.2,38,0.25,,,,,,,,,,,,,,,,,,0,9,9,37,1,,,,,,,,,,,,,,,,,,,,,,,
,,,,,SPR24_004,21,F,2024-04-03_11h44.10.023,jersey_experiment_5_v0,2023.2.2,Win32,85.47008547,,,,,,,,,,,,,,,,858.2974,859.5911,859.5911,860.8737,return,0.1922,,73.828125,,,,,,FBP-YG-81.png,0.4,1.2,23,0.5,,,,,,,,,,,,,,,,,,0,10,10,22,1,,,,,,,,,,,,,,,,,,,,,,,
,,,,,SPR24_004,21,F,2024-04-03_11h44.10.023,jersey_experiment_5_v0,2023.2.2,Win32,85.47008547,,,,,,,,,,,,,,,,860.8739,861.9207,861.9208,863.0503,return,0.2031,,99.08854167,,,,,,FBP-OG-19.png,0.45,1.2,15,0.25,,,,,,,,,,,,,,,,,,0,11,11,14,1,,,,,,,,,,,,,,,,,,,,,,,
,,,,,SPR24_004,21,F,2024-04-03_11h44.10.023,jersey_experiment_5_v0,2023.2.2,Win32,85.47008547,,,,,,,,,,,,,,,,863.0505,864.0973,864.0974,865.368,return,0.207,,75.26041667,,,,,,FBP-OG-18.png,0.35,1.2,6,0.25,,,,,,,,,,,,,,,,,,0,12,12,5,1,,,,,,,,,,,,,,,,,,,,,,,
,,,,,SPR24_004,21,F,2024-04-03_11h44.10.023,jersey_experiment_5_v0,2023.2.2,Win32,85.47008547,,,,,,,,,,,,,,,,865.3683,866.415,866.4151,867.5329,return,0.6023,,75.26041667,,,,,,FBP-OG-17.png,0.37,1.2,2,0.25,,,,,,,,,,,,,,,,,,0,13,13,1,1,,,,,,,,,,,,,,,,,,,,,,,
,,,,,SPR24_004,21,F,2024-04-03_11h44.10.023,jersey_experiment_5_v0,2023.2.2,Win32,85.47008547,,,,,,,,,,,,,,,,867.5332,868.5798,868.5799,869.4974,return,0.3349,,75.26041667,,,,,,FBP-OG-19.png,0.35,1.2,11,0.25,,,,,,,,,,,,,,,,,,0,14,14,10,1,,,,,,,,,,,,,,,,,,,,,,,
,,,,,SPR24_004,21,F,2024-04-03_11h44.10.023,jersey_experiment_5_v0,2023.2.2,Win32,85.47008547,,,,,,,,,,,,,,,,869.4977,870.5446,870.5446,871.5329,return,0.3683,,75.26041667,,,,,,FBP-OG-18.png,0.4,1.2,8,0.25,,,,,,,,,,,,,,,,,,0,15,15,7,1,,,,,,,,,,,,,,,,,,,,,,,
,,,,,SPR24_004,21,F,2024-04-03_11h44.10.023,jersey_experiment_5_v0,2023.2.2,Win32,85.47008547,,,,,,,,,,,,,,,,871.5332,872.8271,872.8271,873.5211,return,0.2572,,75.26041667,,,,,,FBP-PT-91.png,0.35,1.2,56,0.5,,,,,,,,,,,,,,,,,,0,16,16,55,1,,,,,,,,,,,,,,,,,,,,,,,
,,,,,SPR24_004,21,F,2024-04-03_11h44.10.023,jersey_experiment_5_v0,2023.2.2,Win32,85.47008547,,,,,,,,,,,,,,,,873.5215,874.5682,874.5683,877.9214,return,0.1873,,74.21875,,,,,,FBP-RB-91.png,0.4,1.2,43,0.25,,,,,,,,,,,,,,,,,,0,17,17,42,1,,,,,,,,,,,,,,,,,,,,,,,
,,,,,SPR24_004,21,F,2024-04-03_11h44.10.023,jersey_experiment_5_v0,2023.2.2,Win32,85.47008547,,,,,,,,,,,,,,,,877.9216,879.2154,879.2155,881.0039,return,0.1683,,74.609375,,,,,,FBP-PT-81.png,0.4,1.2,53,0.5,,,,,,,,,,,,,,,,,,0,18,18,52,1,,,,,,,,,,,,,,,,,,,,,,,
,,,,,SPR24_004,21,F,2024-04-03_11h44.10.023,jersey_experiment_5_v0,2023.2.2,Win32,85.47008547,,,,,,,,,,,,,,,,881.004,882.298,882.298,883.1687,return,0.2593,,74.609375,,,,,,FBP-YG-81.png,0.35,1.2,21,0.5,,,,,,,,,,,,,,,,,,0,19,19,20,1,,,,,,,,,,,,,,,,,,,,,,,
,,,,,SPR24_004,21,F,2024-04-03_11h44.10.023,jersey_experiment_5_v0,2023.2.2,Win32,85.47008547,,,,,,,,,,,,,,,,883.1688,884.4628,884.4629,885.8158,return,0.218,,99.08854167,,,,,,FBP-PT-81.png,0.45,1.2,55,0.5,,,,,,,,,,,,,,,,,,0,20,20,54,1,,,,,,,,,,,,,,,,,,,,,,,
,,,,,SPR24_004,21,F,2024-04-03_11h44.10.023,jersey_experiment_5_v0,2023.2.2,Win32,85.47008547,,,,,,,,,,,,,,,,885.8161,886.8629,886.863,888.1687,return,0.1924,,74.08854167,,,,,,FBP-OG-19.png,0.37,1.2,12,0.25,,,,,,,,,,,,,,,,,,0,21,21,11,1,,,,,,,,,,,,,,,,,,,,,,,
,,,,,SPR24_004,21,F,2024-04-03_11h44.10.023,jersey_experiment_5_v0,2023.2.2,Win32,85.47008547,,,,,,,,,,,,,,,,888.1689,889.463,889.4631,890.9571,return,0.271,,74.21875,,,,,,FBP-PT-71.png,0.35,1.2,46,0.5,,,,,,,,,,,,,,,,,,0,22,22,45,1,,,,,,,,,,,,,,,,,,,,,,,
,,,,,SPR24_004,21,F,2024-04-03_11h44.10.023,jersey_experiment_5_v0,2023.2.2,Win32,85.47008547,,,,,,,,,,,,,,,,890.9574,892.0042,892.0042,892.8631,return,0.2231,,74.21875,,,,,,FBP-OG-18.png,0.37,1.2,7,0.25,,,,,,,,,,,,,,,,,,0,23,23,6,1,,,,,,,,,,,,,,,,,,,,,,,
,,,,,SPR24_004,21,F,2024-04-03_11h44.10.023,jersey_experiment_5_v0,2023.2.2,Win32,85.47008547,,,,,,,,,,,,,,,,892.8633,894.1573,894.1573,895.8398,return,0.2024,,99.47916667,,,,,,FBP-YG-81.png,0.43,1.2,24,0.5,,,,,,,,,,,,,,,,,,0,24,24,23,1,,,,,,,,,,,,,,,,,,,,,,,
,,,,,SPR24_004,21,F,2024-04-03_11h44.10.023,jersey_experiment_5_v0,2023.2.2,Win32,85.47008547,,,,,,,,,,,,,,,,895.84,897.1341,897.1341,898.5693,return,0.371,,73.046875,,,,,,FBP-YG-71.png,0.35,1.2,16,0.5,,,,,,,,,,,,,,,,,,0,25,25,15,1,,,,,,,,,,,,,,,,,,,,,,,
,,,,,SPR24_004,21,F,2024-04-03_11h44.10.023,jersey_experiment_5_v0,2023.2.2,Win32,85.47008547,,,,,,,,,,,,,,,,898.5695,899.8634,899.8634,901.6635,return,0.3394,,98.69791667,,,,,,FBP-PT-81.png,0.37,1.2,52,0.5,,,,,,,,,,,,,,,,,,0,26,26,51,1,,,,,,,,,,,,,,,,,,,,,,,
,,,,,SPR24_004,21,F,2024-04-03_11h44.10.023,jersey_experiment_5_v0,2023.2.2,Win32,85.47008547,,,,,,,,,,,,,,,,901.6637,902.7106,902.7107,904.1224,return,0.2754,,74.609375,,,,,,FBP-RB-71.png,0.37,1.2,32,0.25,,,,,,,,,,,,,,,,,,0,27,27,31,1,,,,,,,,,,,,,,,,,,,,,,,
,,,,,SPR24_004,21,F,2024-04-03_11h44.10.023,jersey_experiment_5_v0,2023.2.2,Win32,85.47008547,,,,,,,,,,,,,,,,904.1227,905.4167,905.4167,907.4871,return,0.388,,99.08854167,,,,,,FBP-YG-91.png,0.4,1.2,28,0.5,,,,,,,,,,,,,,,,,,0,28,28,27,1,,,,,,,,,,,,,,,,,,,,,,,
,,,,,SPR24_004,21,F,2024-04-03_11h44.10.023,jersey_experiment_5_v0,2023.2.2,Win32,85.47008547,,,,,,,,,,,,,,,,907.4874,908.5343,908.5344,909.546,return,0.3212,,99.08854167,,,,,,FBP-RB-71.png,0.45,1.2,35,0.25,,,,,,,,,,,,,,,,,,0,29,29,34,1,,,,,,,,,,,,,,,,,,,,,,,
,,,,,SPR24_004,21,F,2024-04-03_11h44.10.023,jersey_experiment_5_v0,2023.2.2,Win32,85.47008547,,,,,,,,,,,,,,,,909.5461,910.5932,910.5933,911.4168,return,0.3714,,99.08854167,,,,,,FBP-RB-71.png,0.4,1.2,33,0.25,,,,,,,,,,,,,,,,,,0,30,30,32,1,,,,,,,,,,,,,,,,,,,,,,,
,,,,,SPR24_004,21,F,2024-04-03_11h44.10.023,jersey_experiment_5_v0,2023.2.2,Win32,85.47008547,,,,,,,,,,,,,,,,911.4171,912.4639,912.4639,913.2169,return,0.2444,,99.08854167,,,,,,FBP-OG-17.png,0.43,1.2,4,0.25,,,,,,,,,,,,,,,,,,0,31,31,3,1,,,,,,,,,,,,,,,,,,,,,,,
,,,,,SPR24_004,21,F,2024-04-03_11h44.10.023,jersey_experiment_5_v0,2023.2.2,Win32,85.47008547,,,,,,,,,,,,,,,,913.2171,914.511,914.511,915.4521,return,0.4126,,98.95833333,,,,,,FBP-YG-71.png,0.43,1.2,19,0.5,,,,,,,,,,,,,,,,,,0,32,32,18,1,,,,,,,,,,,,,,,,,,,,,,,
,,,,,SPR24_004,21,F,2024-04-03_11h44.10.023,jersey_experiment_5_v0,2023.2.2,Win32,85.47008547,,,,,,,,,,,,,,,,915.4524,916.4994,916.4994,917.4641,return,0.4425,,98.95833333,,,,,,FBP-RB-91.png,0.43,1.2,44,0.25,,,,,,,,,,,,,,,,,,0,33,33,43,1,,,,,,,,,,,,,,,,,,,,,,,
,,,,,SPR24_004,21,F,2024-04-03_11h44.10.023,jersey_experiment_5_v0,2023.2.2,Win32,85.47008547,,,,,,,,,,,,,,,,917.4643,918.7583,918.7583,920.1229,return,0.1894,,72.39583333,,,,,,FBP-YG-91.png,0.37,1.2,27,0.5,,,,,,,,,,,,,,,,,,0,34,34,26,1,,,,,,,,,,,,,,,,,,,,,,,
,,,,,SPR24_004,21,F,2024-04-03_11h44.10.023,jersey_experiment_5_v0,2023.2.2,Win32,85.47008547,,,,,,,,,,,,,,,,920.1231,921.4173,921.4173,922.6525,return,0.2223,,98.17708333,,,,,,FBP-YG-71.png,0.45,1.2,20,0.5,,,,,,,,,,,,,,,,,,0,35,35,19,1,,,,,,,,,,,,,,,,,,,,,,,
,,,,,SPR24_004,21,F,2024-04-03_11h44.10.023,jersey_experiment_5_v0,2023.2.2,Win32,85.47008547,,,,,,,,,,,,,,,,922.6527,923.9465,923.9465,924.7819,return,0.3905,,98.046875,,,,,,FBP-PT-71.png,0.4,1.2,48,0.5,,,,,,,,,,,,,,,,,,0,36,36,47,1,,,,,,,,,,,,,,,,,,,,,,,
,,,,,SPR24_004,21,F,2024-04-03_11h44.10.023,jersey_experiment_5_v0,2023.2.2,Win32,85.47008547,,,,,,,,,,,,,,,,924.7822,926.0761,926.0761,927.0644,return,0.4422,,97.91666667,,,,,,FBP-YG-91.png,0.43,1.2,29,0.5,,,,,,,,,,,,,,,,,,0,37,37,28,1,,,,,,,,,,,,,,,,,,,,,,,
,,,,,SPR24_004,21,F,2024-04-03_11h44.10.023,jersey_experiment_5_v0,2023.2.2,Win32,85.47008547,,,,,,,,,,,,,,,,927.0646,928.1114,928.1115,929.0176,return,0.3924,,97.78645833,,,,,,FBP-OG-18.png,0.45,1.2,10,0.25,,,,,,,,,,,,,,,,,,0,38,38,9,1,,,,,,,,,,,,,,,,,,,,,,,
,,,,,SPR24_004,21,F,2024-04-03_11h44.10.023,jersey_experiment_5_v0,2023.2.2,Win32,85.47008547,,,,,,,,,,,,,,,,929.0179,930.0645,930.0645,931.0998,return,0.3564,,97.78645833,,,,,,FBP-OG-17.png,0.4,1.2,3,0.25,,,,,,,,,,,,,,,,,,0,39,39,2,1,,,,,,,,,,,,,,,,,,,,,,,
,,,,,SPR24_004,21,F,2024-04-03_11h44.10.023,jersey_experiment_5_v0,2023.2.2,Win32,85.47008547,,,,,,,,,,,,,,,,931.1,932.1469,932.1469,933.0999,return,0.3082,,97.78645833,,,,,,FBP-RB-81.png,0.45,1.2,40,0.25,,,,,,,,,,,,,,,,,,0,40,40,39,1,,,,,,,,,,,,,,,,,,,,,,,
,,,,,SPR24_004,21,F,2024-04-03_11h44.10.023,jersey_experiment_5_v0,2023.2.2,Win32,85.47008547,,,,,,,,,,,,,,,,933.1002,934.3941,934.3942,935.8412,return,0.1888,,98.30729167,,,,,,FBP-YG-71.png,0.37,1.2,17,0.5,,,,,,,,,,,,,,,,,,0,41,41,16,1,,,,,,,,,,,,,,,,,,,,,,,
,,,,,SPR24_004,21,F,2024-04-03_11h44.10.023,jersey_experiment_5_v0,2023.2.2,Win32,85.47008547,,,,,,,,,,,,,,,,935.8414,937.1354,937.1355,937.9001,return,0.3093,,98.30729167,,,,,,FBP-PT-71.png,0.45,1.2,50,0.5,,,,,,,,,,,,,,,,,,0,42,42,49,1,,,,,,,,,,,,,,,,,,,,,,,
,,,,,SPR24_004,21,F,2024-04-03_11h44.10.023,jersey_experiment_5_v0,2023.2.2,Win32,85.47008547,,,,,,,,,,,,,,,,937.9003,939.1942,939.1942,940.0178,return,0.246,,98.30729167,,,,,,FBP-PT-91.png,0.4,1.2,58,0.5,,,,,,,,,,,,,,,,,,0,43,43,57,1,,,,,,,,,,,,,,,,,,,,,,,
,,,,,SPR24_004,21,F,2024-04-03_11h44.10.023,jersey_experiment_5_v0,2023.2.2,Win32,85.47008547,,,,,,,,,,,,,,,,940.0181,941.0648,941.0649,942.9356,return,0.29,,75.78125,,,,,,FBP-RB-91.png,0.35,1.2,41,0.25,,,,,,,,,,,,,,,,,,0,44,44,40,1,,,,,,,,,,,,,,,,,,,,,,,
,,,,,SPR24_004,21,F,2024-04-03_11h44.10.023,jersey_experiment_5_v0,2023.2.2,Win32,85.47008547,,,,,,,,,,,,,,,,942.9357,944.2298,944.2299,945.265,return,0.2367,,98.828125,,,,,,FBP-YG-81.png,0.45,1.2,25,0.5,,,,,,,,,,,,,,,,,,0,45,45,24,1,,,,,,,,,,,,,,,,,,,,,,,
,,,,,SPR24_004,21,F,2024-04-03_11h44.10.023,jersey_experiment_5_v0,2023.2.2,Win32,85.47008547,,,,,,,,,,,,,,,,945.2653,946.3121,946.3121,947.371,return,0.3777,,98.828125,,,,,,FBP-OG-19.png,0.4,1.2,13,0.25,,,,,,,,,,,,,,,,,,0,46,46,12,1,,,,,,,,,,,,,,,,,,,,,,,
,,,,,SPR24_004,21,F,2024-04-03_11h44.10.023,jersey_experiment_5_v0,2023.2.2,Win32,85.47008547,,,,,,,,,,,,,,,,947.3712,948.6651,948.6651,950.171,return,0.5903,,81.38020833,,,,,,FBP-PT-81.png,0.35,1.2,51,0.5,,,,,,,,,,,,,,,,,,0,47,47,50,1,,,,,,,,,,,,,,,,,,,,,,,
,,,,,SPR24_004,21,F,2024-04-03_11h44.10.023,jersey_experiment_5_v0,2023.2.2,Win32,85.47008547,,,,,,,,,,,,,,,,950.1713,951.2182,951.2182,952.8772,return,0.2826,,77.08333333,,,,,,FBP-RB-71.png,0.35,1.2,31,0.25,,,,,,,,,,,,,,,,,,0,48,48,30,1,,,,,,,,,,,,,,,,,,,,,,,
,,,,,SPR24_004,21,F,2024-04-03_11h44.10.023,jersey_experiment_5_v0,2023.2.2,Win32,85.47008547,,,,,,,,,,,,,,,,952.8774,953.9242,953.9242,955.3596,return,0.2701,,98.56770833,,,,,,FBP-OG-17.png,0.45,1.2,5,0.25,,,,,,,,,,,,,,,,,,0,49,49,4,1,,,,,,,,,,,,,,,,,,,,,,,
,,,,,SPR24_004,21,F,2024-04-03_11h44.10.023,jersey_experiment_5_v0,2023.2.2,Win32,85.47008547,,,,,,,,,,,,,,,,955.3598,956.6537,956.6538,957.642,return,0.3214,,80.078125,,,,,,FBP-PT-71.png,0.37,1.2,47,0.5,,,,,,,,,,,,,,,,,,0,50,50,46,1,,,,,,,,,,,,,,,,,,,,,,,
,,,,,SPR24_004,21,F,2024-04-03_11h44.10.023,jersey_experiment_5_v0,2023.2.2,Win32,85.47008547,,,,,,,,,,,,,,,,957.6423,958.936,958.9361,960.2421,return,0.1881,,76.953125,,,,,,FBP-PT-91.png,0.37,1.2,57,0.5,,,,,,,,,,,,,,,,,,0,51,51,56,1,,,,,,,,,,,,,,,,,,,,,,,
,,,,,SPR24_004,21,F,2024-04-03_11h44.10.023,jersey_experiment_5_v0,2023.2.2,Win32,85.47008547,,,,,,,,,,,,,,,,960.2422,961.2891,961.2891,962.2658,return,0.262,,76.953125,,,,,,FBP-OG-17.png,0.35,1.2,1,0.25,,,,,,,,,,,,,,,,,,0,52,52,0,1,,,,,,,,,,,,,,,,,,,,,,,
,,,,,SPR24_004,21,F,2024-04-03_11h44.10.023,jersey_experiment_5_v0,2023.2.2,Win32,85.47008547,,,,,,,,,,,,,,,,962.2661,963.3127,963.3127,964.1717,return,0.3307,,76.953125,,,,,,FBP-RB-81.png,0.37,1.2,37,0.25,,,,,,,,,,,,,,,,,,0,53,53,36,1,,,,,,,,,,,,,,,,,,,,,,,
,,,,,SPR24_004,21,F,2024-04-03_11h44.10.023,jersey_experiment_5_v0,2023.2.2,Win32,85.47008547,,,,,,,,,,,,,,,,964.1719,965.2188,965.2188,966.607,return,0.1413,,98.69791667,,,,,,FBP-RB-71.png,0.43,1.2,34,0.25,,,,,,,,,,,,,,,,,,0,54,54,33,1,,,,,,,,,,,,,,,,,,,,,,,
,,,,,SPR24_004,21,F,2024-04-03_11h44.10.023,jersey_experiment_5_v0,2023.2.2,Win32,85.47008547,,,,,,,,,,,,,,,,966.6072,967.6542,967.6542,969.1953,return,0.3415,,98.828125,,,,,,FBP-RB-91.png,0.37,1.2,42,0.25,,,,,,,,,,,,,,,,,,0,55,55,41,1,,,,,,,,,,,,,,,,,,,,,,,
,,,,,SPR24_004,21,F,2024-04-03_11h44.10.023,jersey_experiment_5_v0,2023.2.2,Win32,85.47008547,,,,,,,,,,,,,,,,969.1954,970.4895,970.4896,971.3602,return,0.3624,,98.828125,,,,,,FBP-YG-91.png,0.45,1.2,30,0.5,,,,,,,,,,,,,,,,,,0,56,56,29,1,,,,,,,,,,,,,,,,,,,,,,,
,,,,,SPR24_004,21,F,2024-04-03_11h44.10.023,jersey_experiment_5_v0,2023.2.2,Win32,85.47008547,,,,,,,,,,,,,,,,971.3603,972.4073,972.4073,974.0309,return,0.165,,90.625,,,,,,FBP-OG-19.png,0.43,1.2,14,0.25,,,,,,,,,,,,,,,,,,0,57,57,13,1,,,,,,,,,,,,,,,,,,,,,,,
,,,,,SPR24_004,21,F,2024-04-03_11h44.10.023,jersey_experiment_5_v0,2023.2.2,Win32,85.47008547,,,,,,,,,,,,,,,,974.0312,975.3251,975.3252,976.4544,return,0.3599,,97.13541667,,,,,,FBP-PT-91.png,0.45,1.2,60,0.5,,,,,,,,,,,,,,,,,,0,58,58,59,1,,,,,,,,,,,,,,,,,,,,,,,
,,,,,SPR24_004,21,F,2024-04-03_11h44.10.023,jersey_experiment_5_v0,2023.2.2,Win32,85.47008547,,,,,,,,,,,,,,,,976.4546,977.5014,977.5015,978.737,return,0.3057,,96.875,,,,,,FBP-OG-18.png,0.43,1.2,9,0.25,,,,,,,,,,,,,,,,,,0,59,59,8,1,,,,,,,,,,,,,,,,,,,,,,,
,,,,,SPR24_004,21,F,2024-04-03_11h44.10.023,jersey_experiment_5_v0,2023.2.2,Win32,85.47008547,,,,,,,,,,,,,,,,,,,,,,,,,,,,,,,,,,,,,,,,,,,,,,,,,,,,,,,,978.7374,987.6317,return,8.8837,,,,,,,,,,,,,,,,,,,
,,,,,SPR24_004,21,F,2024-04-03_11h44.10.023,jersey_experiment_5_v0,2023.2.2,Win32,85.47008547,,,,,,,,,,,,,,,,,,,,,,,,,,,,,,,,,,,,,,,,,,,,,,,,,,,,,,,,,,,,,987.6318,998.6203,1,8.7541,return,2.2133,,,,,,,,,,,,
,,,,,SPR24_004,21,F,2024-04-03_11h44.10.023,jersey_experiment_5_v0,2023.2.2,Win32,85.47008547,,,,,,,,,,,,,,,,,,,,,,,,,,,,,,,,,,,,,,,,,,,,,,,,,,,,,,,,,,,,,,,,,,,,998.6204,1023.2144,No,right,11.0152,,,,,,
,,,,,SPR24_004,21,F,2024-04-03_11h44.10.023,jersey_experiment_5_v0,2023.2.2,Win32,85.47008547,,,,,,,,,,,,,,,,,,,,,,,,,,,,,,,,,,,,,,,,,,,,,,,,,,,,,,,,,,,,,,,,,,,,,,,,,,1023.2145,1027.6567,return,4.436,