requirements.started,requirements.stopped,key_resp_3.keys,key_resp_3.rt,key_resp_3.duration,Subject ID,Age,Gender,date,expName,psychopyVersion,OS,frameRate,instructions1.started,instructions1.stopped,key_resp.keys,key_resp.rt,key_resp.duration,example.started,example.stopped,enter_2.keys,enter_2.rt,enter_2.duration,instructions2.started,instructions2.stopped,enter_3.keys,enter_3.rt,enter_3.duration,image.started,image.stopped,slider_2.started,slider_2.stopped,next.keys,next.rt,next.duration,slider.response,trial_block_1.thisRepN,trial_block_1.thisTrialN,trial_block_1.thisN,trial_block_1.thisIndex,trial_block_1.ran,Path,Width,Height,Index,Duration,trial_block_2.thisRepN,trial_block_2.thisTrialN,trial_block_2.thisN,trial_block_2.thisIndex,trial_block_2.ran,rest_break.started,rest_break.stopped,end_break.started,end_break.stopped,key_resp_5.keys,key_resp_5.rt,key_resp_5.duration,trial_block_3.thisRepN,trial_block_3.thisTrialN,trial_block_3.thisN,trial_block_3.thisIndex,trial_block_3.ran,trial_block_4.thisRepN,trial_block_4.thisTrialN,trial_block_4.thisN,trial_block_4.thisIndex,trial_block_4.ran,questions_intro.started,questions_intro.stopped,enter_12.keys,enter_12.rt,enter_12.duration,question2.started,question2.stopped,question_doingbest.response,question_doingbest.rt,enter_15.keys,enter_15.rt,enter_15.duration,pattern.started,pattern.stopped,pattern_2.text,enter_17.keys,enter_17.rt,enter_17.duration,thankyou.started,thankyou.stopped,enter_14.keys,enter_14.rt,enter_14.duration
0.0001,11.6058,return,11.5994,,SRP24_040,18,female,2024-04-11_16h03.42.073,jersey_experiment_5_v0,2023.2.2,Win32,84.74576271,,,,,,,,,,,,,,,,,,,,,,,,,,,,,,,,,,,,,,,,,,,,,,,,,,,,,,,,,,,,,,,,,,,,,,,,,,,,,,
,,,,,SRP24_040,18,female,2024-04-11_16h03.42.073,jersey_experiment_5_v0,2023.2.2,Win32,84.74576271,11.6059,19.334,return,7.7192,,,,,,,,,,,,,,,,,,,,,,,,,,,,,,,,,,,,,,,,,,,,,,,,,,,,,,,,,,,,,,,,,,,,,,,,,,
,,,,,SRP24_040,18,female,2024-04-11_16h03.42.073,jersey_experiment_5_v0,2023.2.2,Win32,84.74576271,,,,,,19.3341,28.3461,return,8.9785,,,,,,,,,,,,,,,,,,,,,,,,,,,,,,,,,,,,,,,,,,,,,,,,,,,,,,,,,,,,,,,,,,,,,
,,,,,SRP24_040,18,female,2024-04-11_16h03.42.073,jersey_experiment_5_v0,2023.2.2,Win32,84.74576271,,,,,,,,,,,28.3461,48.1937,return,19.8418,,,,,,,,,,,,,,,,,,,,,,,,,,,,,,,,,,,,,,,,,,,,,,,,,,,,,,,,,,,,,,,,
,,,,,SRP24_040,18,female,2024-04-11_16h03.42.073,jersey_experiment_5_v0,2023.2.2,Win32,84.74576271,,,,,,,,,,,,,,,,48.2005,49.4995,49.4995,63.6176,return,1.7823,,58.07291667,0,0,0,41,1,FBP-RB-19.png,0.37,1.2,42,0.5,,,,,,,,,,,,,,,,,,,,,,,,,,,,,,,,,,,,,,,,,,,,,
,,,,,SRP24_040,18,female,2024-04-11_16h03.42.073,jersey_experiment_5_v0,2023.2.2,Win32,84.74576271,,,,,,,,,,,,,,,,63.6179,64.6647,64.6647,67.8766,return,0.9092,,35.80729167,0,1,1,55,1,FBP-PT-19.png,0.35,1.2,56,0.25,,,,,,,,,,,,,,,,,,,,,,,,,,,,,,,,,,,,,,,,,,,,,
,,,,,SRP24_040,18,female,2024-04-11_16h03.42.073,jersey_experiment_5_v0,2023.2.2,Win32,84.74576271,,,,,,,,,,,,,,,,67.8768,69.1707,69.1708,72.3944,return,0.8942,,75.26041667,0,2,2,3,1,FBP-OG-71.png,0.43,1.2,4,0.5,,,,,,,,,,,,,,,,,,,,,,,,,,,,,,,,,,,,,,,,,,,,,
,,,,,SRP24_040,18,female,2024-04-11_16h03.42.073,jersey_experiment_5_v0,2023.2.2,Win32,84.74576271,,,,,,,,,,,,,,,,72.3946,73.4414,73.4415,77.1593,return,2.3768,,41.40625,0,3,3,46,1,FBP-PT-17.png,0.37,1.2,47,0.25,,,,,,,,,,,,,,,,,,,,,,,,,,,,,,,,,,,,,,,,,,,,,
,,,,,SRP24_040,18,female,2024-04-11_16h03.42.073,jersey_experiment_5_v0,2023.2.2,Win32,84.74576271,,,,,,,,,,,,,,,,77.1595,78.2065,78.2065,80.5358,return,0.8357,,73.4375,0,4,4,18,1,FBP-YG-17.png,0.43,1.2,19,0.25,,,,,,,,,,,,,,,,,,,,,,,,,,,,,,,,,,,,,,,,,,,,,
,,,,,SRP24_040,18,female,2024-04-11_16h03.42.073,jersey_experiment_5_v0,2023.2.2,Win32,84.74576271,,,,,,,,,,,,,,,,80.536,81.83,81.83,85.0654,return,1.1661,,38.54166667,0,5,5,30,1,FBP-RB-17.png,0.35,1.2,31,0.5,,,,,,,,,,,,,,,,,,,,,,,,,,,,,,,,,,,,,,,,,,,,,
,,,,,SRP24_040,18,female,2024-04-11_16h03.42.073,jersey_experiment_5_v0,2023.2.2,Win32,84.74576271,,,,,,,,,,,,,,,,85.0656,86.1125,86.1126,88.2889,return,0.36,,43.359375,0,6,6,20,1,FBP-YG-18.png,0.35,1.2,21,0.25,,,,,,,,,,,,,,,,,,,,,,,,,,,,,,,,,,,,,,,,,,,,,
,,,,,SRP24_040,18,female,2024-04-11_16h03.42.073,jersey_experiment_5_v0,2023.2.2,Win32,84.74576271,,,,,,,,,,,,,,,,88.2892,89.3361,89.3361,91.3126,return,0.3004,,62.23958333,0,7,7,57,1,FBP-PT-19.png,0.4,1.2,58,0.25,,,,,,,,,,,,,,,,,,,,,,,,,,,,,,,,,,,,,,,,,,,,,
,,,,,SRP24_040,18,female,2024-04-11_16h03.42.073,jersey_experiment_5_v0,2023.2.2,Win32,84.74576271,,,,,,,,,,,,,,,,91.3128,92.3598,92.3598,94.2305,return,0.1913,,42.1875,0,8,8,45,1,FBP-PT-17.png,0.35,1.2,46,0.25,,,,,,,,,,,,,,,,,,,,,,,,,,,,,,,,,,,,,,,,,,,,,
,,,,,SRP24_040,18,female,2024-04-11_16h03.42.073,jersey_experiment_5_v0,2023.2.2,Win32,84.74576271,,,,,,,,,,,,,,,,94.2306,95.5246,95.5246,96.9364,return,0.3068,,47.65625,0,9,9,5,1,FBP-OG-81.png,0.35,1.2,6,0.5,,,,,,,,,,,,,,,,,,,,,,,,,,,,,,,,,,,,,,,,,,,,,
,,,,,SRP24_040,18,female,2024-04-11_16h03.42.073,jersey_experiment_5_v0,2023.2.2,Win32,84.74576271,,,,,,,,,,,,,,,,96.9366,98.2306,98.2307,99.9601,return,0.2485,,70.57291667,0,10,10,32,1,FBP-RB-17.png,0.4,1.2,33,0.5,,,,,,,,,,,,,,,,,,,,,,,,,,,,,,,,,,,,,,,,,,,,,
,,,,,SRP24_040,18,female,2024-04-11_16h03.42.073,jersey_experiment_5_v0,2023.2.2,Win32,84.74576271,,,,,,,,,,,,,,,,99.9603,101.0072,101.0072,102.7248,return,0.3813,,66.796875,0,11,11,21,1,FBP-YG-18.png,0.37,1.2,22,0.25,,,,,,,,,,,,,,,,,,,,,,,,,,,,,,,,,,,,,,,,,,,,,
,,,,,SRP24_040,18,female,2024-04-11_16h03.42.073,jersey_experiment_5_v0,2023.2.2,Win32,84.74576271,,,,,,,,,,,,,,,,102.7251,103.7722,103.7722,105.1367,return,0.1952,,60.80729167,0,12,12,26,1,FBP-YG-19.png,0.37,1.2,27,0.25,,,,,,,,,,,,,,,,,,,,,,,,,,,,,,,,,,,,,,,,,,,,,
,,,,,SRP24_040,18,female,2024-04-11_16h03.42.073,jersey_experiment_5_v0,2023.2.2,Win32,84.74576271,,,,,,,,,,,,,,,,105.1369,106.1839,106.1839,107.9368,return,0.3265,,54.6875,0,13,13,25,1,FBP-YG-19.png,0.35,1.2,26,0.25,,,,,,,,,,,,,,,,,,,,,,,,,,,,,,,,,,,,,,,,,,,,,
,,,,,SRP24_040,18,female,2024-04-11_16h03.42.073,jersey_experiment_5_v0,2023.2.2,Win32,84.74576271,,,,,,,,,,,,,,,,107.937,108.984,108.984,110.7721,return,0.2876,,58.984375,0,14,14,52,1,FBP-PT-18.png,0.4,1.2,53,0.25,,,,,,,,,,,,,,,,,,,,,,,,,,,,,,,,,,,,,,,,,,,,,
,,,,,SRP24_040,18,female,2024-04-11_16h03.42.073,jersey_experiment_5_v0,2023.2.2,Win32,84.74576271,,,,,,,,,,,,,,,,110.7724,111.8194,111.8194,113.29,return,0.175,,76.171875,0,15,15,53,1,FBP-PT-18.png,0.43,1.2,54,0.25,,,,,,,,,,,,,,,,,,,,,,,,,,,,,,,,,,,,,,,,,,,,,
,,,,,SRP24_040,18,female,2024-04-11_16h03.42.073,jersey_experiment_5_v0,2023.2.2,Win32,84.74576271,,,,,,,,,,,,,,,,113.2902,114.5843,114.5844,116.8195,return,0.1467,,49.73958333,0,16,16,10,1,FBP-OG-91.png,0.35,1.2,11,0.5,,,,,,,,,,,,,,,,,,,,,,,,,,,,,,,,,,,,,,,,,,,,,
,,,,,SRP24_040,18,female,2024-04-11_16h03.42.073,jersey_experiment_5_v0,2023.2.2,Win32,84.74576271,,,,,,,,,,,,,,,,116.8197,117.8668,117.8669,119.4667,return,0.1885,,88.54166667,0,17,17,24,1,FBP-YG-18.png,0.45,1.2,25,0.25,,,,,,,,,,,,,,,,,,,,,,,,,,,,,,,,,,,,,,,,,,,,,
,,,,,SRP24_040,18,female,2024-04-11_16h03.42.073,jersey_experiment_5_v0,2023.2.2,Win32,84.74576271,,,,,,,,,,,,,,,,119.4669,120.7609,120.7609,122.808,return,0.2959,,59.63541667,0,18,18,12,1,FBP-OG-91.png,0.4,1.2,13,0.5,,,,,,,,,,,,,,,,,,,,,,,,,,,,,,,,,,,,,,,,,,,,,
,,,,,SRP24_040,18,female,2024-04-11_16h03.42.073,jersey_experiment_5_v0,2023.2.2,Win32,84.74576271,,,,,,,,,,,,,,,,122.8082,124.1022,124.1022,125.6433,return,0.4941,,59.63541667,0,19,19,31,1,FBP-RB-17.png,0.37,1.2,32,0.5,,,,,,,,,,,,,,,,,,,,,,,,,,,,,,,,,,,,,,,,,,,,,
,,,,,SRP24_040,18,female,2024-04-11_16h03.42.073,jersey_experiment_5_v0,2023.2.2,Win32,84.74576271,,,,,,,,,,,,,,,,125.6434,126.9375,126.9375,128.6317,return,0.3175,,55.33854167,0,20,20,6,1,FBP-OG-81.png,0.37,1.2,7,0.5,,,,,,,,,,,,,,,,,,,,,,,,,,,,,,,,,,,,,,,,,,,,,
,,,,,SRP24_040,18,female,2024-04-11_16h03.42.073,jersey_experiment_5_v0,2023.2.2,Win32,84.74576271,,,,,,,,,,,,,,,,128.6319,129.9258,129.9258,131.0317,return,0.237,,52.60416667,0,21,21,1,1,FBP-OG-71.png,0.37,1.2,2,0.5,,,,,,,,,,,,,,,,,,,,,,,,,,,,,,,,,,,,,,,,,,,,,
,,,,,SRP24_040,18,female,2024-04-11_16h03.42.073,jersey_experiment_5_v0,2023.2.2,Win32,84.74576271,,,,,,,,,,,,,,,,131.0319,132.3259,132.3259,133.7378,return,0.2111,,86.06770833,0,22,22,4,1,FBP-OG-71.png,0.45,1.2,5,0.5,,,,,,,,,,,,,,,,,,,,,,,,,,,,,,,,,,,,,,,,,,,,,
,,,,,SRP24_040,18,female,2024-04-11_16h03.42.073,jersey_experiment_5_v0,2023.2.2,Win32,84.74576271,,,,,,,,,,,,,,,,133.738,135.0319,135.0319,136.3731,return,0.2503,,86.58854167,0,23,23,9,1,FBP-OG-81.png,0.45,1.2,10,0.5,,,,,,,,,,,,,,,,,,,,,,,,,,,,,,,,,,,,,,,,,,,,,
,,,,,SRP24_040,18,female,2024-04-11_16h03.42.073,jersey_experiment_5_v0,2023.2.2,Win32,84.74576271,,,,,,,,,,,,,,,,136.3733,137.6673,137.6673,139.432,return,0.3416,,28.90625,0,24,24,40,1,FBP-RB-19.png,0.35,1.2,41,0.5,,,,,,,,,,,,,,,,,,,,,,,,,,,,,,,,,,,,,,,,,,,,,
,,,,,SRP24_040,18,female,2024-04-11_16h03.42.073,jersey_experiment_5_v0,2023.2.2,Win32,84.74576271,,,,,,,,,,,,,,,,139.4322,140.4793,140.4793,142.0558,return,0.2358,,46.35416667,0,25,25,22,1,FBP-YG-18.png,0.4,1.2,23,0.25,,,,,,,,,,,,,,,,,,,,,,,,,,,,,,,,,,,,,,,,,,,,,
,,,,,SRP24_040,18,female,2024-04-11_16h03.42.073,jersey_experiment_5_v0,2023.2.2,Win32,84.74576271,,,,,,,,,,,,,,,,142.056,143.1028,143.1028,144.4088,return,0.2013,,42.70833333,0,26,26,56,1,FBP-PT-19.png,0.37,1.2,57,0.25,,,,,,,,,,,,,,,,,,,,,,,,,,,,,,,,,,,,,,,,,,,,,
,,,,,SRP24_040,18,female,2024-04-11_16h03.42.073,jersey_experiment_5_v0,2023.2.2,Win32,84.74576271,,,,,,,,,,,,,,,,144.409,145.4558,145.4558,146.5029,return,0.1789,,44.140625,0,27,27,16,1,FBP-YG-17.png,0.37,1.2,17,0.25,,,,,,,,,,,,,,,,,,,,,,,,,,,,,,,,,,,,,,,,,,,,,
,,,,,SRP24_040,18,female,2024-04-11_16h03.42.073,jersey_experiment_5_v0,2023.2.2,Win32,84.74576271,,,,,,,,,,,,,,,,146.5031,147.55,147.55,148.9147,return,0.2655,,72.39583333,0,28,28,49,1,FBP-PT-17.png,0.45,1.2,50,0.25,,,,,,,,,,,,,,,,,,,,,,,,,,,,,,,,,,,,,,,,,,,,,
,,,,,SRP24_040,18,female,2024-04-11_16h03.42.073,jersey_experiment_5_v0,2023.2.2,Win32,84.74576271,,,,,,,,,,,,,,,,148.9149,150.2089,150.209,151.4089,return,0.3014,,86.97916667,0,29,29,43,1,FBP-RB-19.png,0.43,1.2,44,0.5,,,,,,,,,,,,,,,,,,,,,,,,,,,,,,,,,,,,,,,,,,,,,
,,,,,SRP24_040,18,female,2024-04-11_16h03.42.073,jersey_experiment_5_v0,2023.2.2,Win32,84.74576271,,,,,,,,,,,,,,,,151.409,152.4562,152.4562,154.0326,return,0.4679,,73.828125,0,30,30,58,1,FBP-PT-19.png,0.43,1.2,59,0.25,,,,,,,,,,,,,,,,,,,,,,,,,,,,,,,,,,,,,,,,,,,,,
,,,,,SRP24_040,18,female,2024-04-11_16h03.42.073,jersey_experiment_5_v0,2023.2.2,Win32,84.74576271,,,,,,,,,,,,,,,,154.0328,155.3268,155.3269,157.6916,return,0.8941,,68.61979167,0,31,31,37,1,FBP-RB-18.png,0.4,1.2,38,0.5,,,,,,,,,,,,,,,,,,,,,,,,,,,,,,,,,,,,,,,,,,,,,
,,,,,SRP24_040,18,female,2024-04-11_16h03.42.073,jersey_experiment_5_v0,2023.2.2,Win32,84.74576271,,,,,,,,,,,,,,,,157.6918,158.9856,158.9856,165.0449,return,5.1568,,63.93229167,0,32,32,42,1,FBP-RB-19.png,0.4,1.2,43,0.5,,,,,,,,,,,,,,,,,,,,,,,,,,,,,,,,,,,,,,,,,,,,,
,,,,,SRP24_040,18,female,2024-04-11_16h03.42.073,jersey_experiment_5_v0,2023.2.2,Win32,84.74576271,,,,,,,,,,,,,,,,165.0495,166.0919,166.0919,167.433,return,0.3062,,78.515625,0,33,33,23,1,FBP-YG-18.png,0.43,1.2,24,0.25,,,,,,,,,,,,,,,,,,,,,,,,,,,,,,,,,,,,,,,,,,,,,
,,,,,SRP24_040,18,female,2024-04-11_16h03.42.073,jersey_experiment_5_v0,2023.2.2,Win32,84.74576271,,,,,,,,,,,,,,,,167.4332,168.7273,168.7273,169.845,return,0.3792,,69.140625,0,34,34,36,1,FBP-RB-18.png,0.37,1.2,37,0.5,,,,,,,,,,,,,,,,,,,,,,,,,,,,,,,,,,,,,,,,,,,,,
,,,,,SRP24_040,18,female,2024-04-11_16h03.42.073,jersey_experiment_5_v0,2023.2.2,Win32,84.74576271,,,,,,,,,,,,,,,,169.8452,171.1391,171.1392,172.598,return,0.3552,,77.734375,0,35,35,33,1,FBP-RB-17.png,0.43,1.2,34,0.5,,,,,,,,,,,,,,,,,,,,,,,,,,,,,,,,,,,,,,,,,,,,,
,,,,,SRP24_040,18,female,2024-04-11_16h03.42.073,jersey_experiment_5_v0,2023.2.2,Win32,84.74576271,,,,,,,,,,,,,,,,172.5983,173.645,173.645,175.2334,return,0.3024,,40.36458333,0,36,36,50,1,FBP-PT-18.png,0.35,1.2,51,0.25,,,,,,,,,,,,,,,,,,,,,,,,,,,,,,,,,,,,,,,,,,,,,
,,,,,SRP24_040,18,female,2024-04-11_16h03.42.073,jersey_experiment_5_v0,2023.2.2,Win32,84.74576271,,,,,,,,,,,,,,,,175.2337,176.5275,176.5276,179.1394,return,0.1825,,79.16666667,0,37,37,8,1,FBP-OG-81.png,0.43,1.2,9,0.5,,,,,,,,,,,,,,,,,,,,,,,,,,,,,,,,,,,,,,,,,,,,,
,,,,,SRP24_040,18,female,2024-04-11_16h03.42.073,jersey_experiment_5_v0,2023.2.2,Win32,84.74576271,,,,,,,,,,,,,,,,179.1396,180.1865,180.1865,181.61,return,0.3305,,90.88541667,0,38,38,48,1,FBP-PT-17.png,0.43,1.2,49,0.25,,,,,,,,,,,,,,,,,,,,,,,,,,,,,,,,,,,,,,,,,,,,,
,,,,,SRP24_040,18,female,2024-04-11_16h03.42.073,jersey_experiment_5_v0,2023.2.2,Win32,84.74576271,,,,,,,,,,,,,,,,181.6102,182.9043,182.9044,184.0808,return,0.1147,,75.78125,0,39,39,13,1,FBP-OG-91.png,0.43,1.2,14,0.5,,,,,,,,,,,,,,,,,,,,,,,,,,,,,,,,,,,,,,,,,,,,,
,,,,,SRP24_040,18,female,2024-04-11_16h03.42.073,jersey_experiment_5_v0,2023.2.2,Win32,84.74576271,,,,,,,,,,,,,,,,184.081,185.1278,185.1278,186.3869,return,0.1925,,91.27604167,0,40,40,19,1,FBP-YG-17.png,0.45,1.2,20,0.25,,,,,,,,,,,,,,,,,,,,,,,,,,,,,,,,,,,,,,,,,,,,,
,,,,,SRP24_040,18,female,2024-04-11_16h03.42.073,jersey_experiment_5_v0,2023.2.2,Win32,84.74576271,,,,,,,,,,,,,,,,186.3871,187.6809,187.681,189.1281,return,0.129,,22.65625,0,41,41,35,1,FBP-RB-18.png,0.35,1.2,36,0.5,,,,,,,,,,,,,,,,,,,,,,,,,,,,,,,,,,,,,,,,,,,,,
,,,,,SRP24_040,18,female,2024-04-11_16h03.42.073,jersey_experiment_5_v0,2023.2.2,Win32,84.74576271,,,,,,,,,,,,,,,,189.1283,190.1751,190.1752,191.3634,return,0.1238,,29.6875,0,42,42,15,1,FBP-YG-17.png,0.35,1.2,16,0.25,,,,,,,,,,,,,,,,,,,,,,,,,,,,,,,,,,,,,,,,,,,,,
,,,,,SRP24_040,18,female,2024-04-11_16h03.42.073,jersey_experiment_5_v0,2023.2.2,Win32,84.74576271,,,,,,,,,,,,,,,,191.3635,192.6575,192.6575,193.7162,return,0.2032,,72.265625,0,43,43,39,1,FBP-RB-18.png,0.45,1.2,40,0.5,,,,,,,,,,,,,,,,,,,,,,,,,,,,,,,,,,,,,,,,,,,,,
,,,,,SRP24_040,18,female,2024-04-11_16h03.42.073,jersey_experiment_5_v0,2023.2.2,Win32,84.74576271,,,,,,,,,,,,,,,,193.7164,194.7635,194.7636,195.8811,return,0.165,,77.734375,0,44,44,59,1,FBP-PT-19.png,0.45,1.2,60,0.25,,,,,,,,,,,,,,,,,,,,,,,,,,,,,,,,,,,,,,,,,,,,,
,,,,,SRP24_040,18,female,2024-04-11_16h03.42.073,jersey_experiment_5_v0,2023.2.2,Win32,84.74576271,,,,,,,,,,,,,,,,195.8814,197.1755,197.1755,199.8107,return,0.501,,86.45833333,0,45,45,44,1,FBP-RB-19.png,0.45,1.2,45,0.5,,,,,,,,,,,,,,,,,,,,,,,,,,,,,,,,,,,,,,,,,,,,,
,,,,,SRP24_040,18,female,2024-04-11_16h03.42.073,jersey_experiment_5_v0,2023.2.2,Win32,84.74576271,,,,,,,,,,,,,,,,199.8108,201.1049,201.105,203.7051,return,1.0022,,50.13020833,0,46,46,2,1,FBP-OG-71.png,0.4,1.2,3,0.5,,,,,,,,,,,,,,,,,,,,,,,,,,,,,,,,,,,,,,,,,,,,,
,,,,,SRP24_040,18,female,2024-04-11_16h03.42.073,jersey_experiment_5_v0,2023.2.2,Win32,84.74576271,,,,,,,,,,,,,,,,203.7052,204.7521,204.7521,206.6816,return,0.7529,,38.93229167,0,47,47,51,1,FBP-PT-18.png,0.37,1.2,52,0.25,,,,,,,,,,,,,,,,,,,,,,,,,,,,,,,,,,,,,,,,,,,,,
,,,,,SRP24_040,18,female,2024-04-11_16h03.42.073,jersey_experiment_5_v0,2023.2.2,Win32,84.74576271,,,,,,,,,,,,,,,,206.6818,207.9757,207.9757,209.1875,return,0.1696,,25,0,48,48,0,1,FBP-OG-71.png,0.35,1.2,1,0.5,,,,,,,,,,,,,,,,,,,,,,,,,,,,,,,,,,,,,,,,,,,,,
,,,,,SRP24_040,18,female,2024-04-11_16h03.42.073,jersey_experiment_5_v0,2023.2.2,Win32,84.74576271,,,,,,,,,,,,,,,,209.1878,210.2346,210.2347,212.3641,return,0.2483,,46.61458333,0,49,49,27,1,FBP-YG-19.png,0.4,1.2,28,0.25,,,,,,,,,,,,,,,,,,,,,,,,,,,,,,,,,,,,,,,,,,,,,
,,,,,SRP24_040,18,female,2024-04-11_16h03.42.073,jersey_experiment_5_v0,2023.2.2,Win32,84.74576271,,,,,,,,,,,,,,,,212.3644,213.6583,213.6583,215.5054,return,1.1714,,52.60416667,0,50,50,7,1,FBP-OG-81.png,0.4,1.2,8,0.5,,,,,,,,,,,,,,,,,,,,,,,,,,,,,,,,,,,,,,,,,,,,,
,,,,,SRP24_040,18,female,2024-04-11_16h03.42.073,jersey_experiment_5_v0,2023.2.2,Win32,84.74576271,,,,,,,,,,,,,,,,215.5055,216.7995,216.7996,218.0702,return,0.3092,,77.08333333,0,51,51,38,1,FBP-RB-18.png,0.43,1.2,39,0.5,,,,,,,,,,,,,,,,,,,,,,,,,,,,,,,,,,,,,,,,,,,,,
,,,,,SRP24_040,18,female,2024-04-11_16h03.42.073,jersey_experiment_5_v0,2023.2.2,Win32,84.74576271,,,,,,,,,,,,,,,,218.0705,219.3644,219.3644,220.5527,return,0.6349,,77.08333333,0,52,52,34,1,FBP-RB-17.png,0.45,1.2,35,0.5,,,,,,,,,,,,,,,,,,,,,,,,,,,,,,,,,,,,,,,,,,,,,
,,,,,SRP24_040,18,female,2024-04-11_16h03.42.073,jersey_experiment_5_v0,2023.2.2,Win32,84.74576271,,,,,,,,,,,,,,,,220.5529,221.5996,221.5996,222.9292,return,0.265,,68.22916667,0,53,53,17,1,FBP-YG-17.png,0.4,1.2,18,0.25,,,,,,,,,,,,,,,,,,,,,,,,,,,,,,,,,,,,,,,,,,,,,
,,,,,SRP24_040,18,female,2024-04-11_16h03.42.073,jersey_experiment_5_v0,2023.2.2,Win32,84.74576271,,,,,,,,,,,,,,,,222.9294,223.9763,223.9763,230.7764,return,0.1418,,58.07291667,0,54,54,29,1,FBP-YG-19.png,0.45,1.2,30,0.25,,,,,,,,,,,,,,,,,,,,,,,,,,,,,,,,,,,,,,,,,,,,,
,,,,,SRP24_040,18,female,2024-04-11_16h03.42.073,jersey_experiment_5_v0,2023.2.2,Win32,84.74576271,,,,,,,,,,,,,,,,230.7766,231.8237,231.8237,233.0119,return,0.1938,,77.99479167,0,55,55,28,1,FBP-YG-19.png,0.43,1.2,29,0.25,,,,,,,,,,,,,,,,,,,,,,,,,,,,,,,,,,,,,,,,,,,,,
,,,,,SRP24_040,18,female,2024-04-11_16h03.42.073,jersey_experiment_5_v0,2023.2.2,Win32,84.74576271,,,,,,,,,,,,,,,,233.0121,234.059,234.0591,235.1532,return,0.1593,,76.5625,0,56,56,54,1,FBP-PT-18.png,0.45,1.2,55,0.25,,,,,,,,,,,,,,,,,,,,,,,,,,,,,,,,,,,,,,,,,,,,,
,,,,,SRP24_040,18,female,2024-04-11_16h03.42.073,jersey_experiment_5_v0,2023.2.2,Win32,84.74576271,,,,,,,,,,,,,,,,235.1533,236.4473,236.4473,237.6004,return,0.1835,,49.86979167,0,57,57,11,1,FBP-OG-91.png,0.37,1.2,12,0.5,,,,,,,,,,,,,,,,,,,,,,,,,,,,,,,,,,,,,,,,,,,,,
,,,,,SRP24_040,18,female,2024-04-11_16h03.42.073,jersey_experiment_5_v0,2023.2.2,Win32,84.74576271,,,,,,,,,,,,,,,,237.6006,238.6474,238.6475,239.6239,return,0.1188,,52.734375,0,58,58,47,1,FBP-PT-17.png,0.4,1.2,48,0.25,,,,,,,,,,,,,,,,,,,,,,,,,,,,,,,,,,,,,,,,,,,,,
,,,,,SRP24_040,18,female,2024-04-11_16h03.42.073,jersey_experiment_5_v0,2023.2.2,Win32,84.74576271,,,,,,,,,,,,,,,,239.6241,240.918,240.918,241.765,return,0.1551,,73.95833333,0,59,59,14,1,FBP-OG-91.png,0.45,1.2,15,0.5,,,,,,,,,,,,,,,,,,,,,,,,,,,,,,,,,,,,,,,,,,,,,
,,,,,SRP24_040,18,female,2024-04-11_16h03.42.073,jersey_experiment_5_v0,2023.2.2,Win32,84.74576271,,,,,,,,,,,,,,,,241.7664,242.8123,242.8123,243.8828,return,0.1648,,51.171875,,,,,,FBP-PT-81.png,0.43,1.2,54,0.25,0,0,0,53,1,,,,,,,,,,,,,,,,,,,,,,,,,,,,,,,,,,,,,,,,
,,,,,SRP24_040,18,female,2024-04-11_16h03.42.073,jersey_experiment_5_v0,2023.2.2,Win32,84.74576271,,,,,,,,,,,,,,,,243.883,245.1772,245.1773,246.4712,return,0.3315,,22.265625,,,,,,FBP-RB-71.png,0.37,1.2,32,0.5,0,1,1,31,1,,,,,,,,,,,,,,,,,,,,,,,,,,,,,,,,,,,,,,,,
,,,,,SRP24_040,18,female,2024-04-11_16h03.42.073,jersey_experiment_5_v0,2023.2.2,Win32,84.74576271,,,,,,,,,,,,,,,,246.4714,247.7654,247.7655,248.7772,return,0.4573,,22.265625,,,,,,FBP-RB-81.png,0.37,1.2,37,0.5,0,2,2,36,1,,,,,,,,,,,,,,,,,,,,,,,,,,,,,,,,,,,,,,,,
,,,,,SRP24_040,18,female,2024-04-11_16h03.42.073,jersey_experiment_5_v0,2023.2.2,Win32,84.74576271,,,,,,,,,,,,,,,,248.7775,249.8243,249.8243,251.2008,return,0.1498,,51.43229167,,,,,,FBP-YG-81.png,0.4,1.2,23,0.25,0,3,3,22,1,,,,,,,,,,,,,,,,,,,,,,,,,,,,,,,,,,,,,,,,
,,,,,SRP24_040,18,female,2024-04-11_16h03.42.073,jersey_experiment_5_v0,2023.2.2,Win32,84.74576271,,,,,,,,,,,,,,,,251.2009,252.2479,252.2479,253.8246,return,0.8441,,51.43229167,,,,,,FBP-YG-71.png,0.37,1.2,17,0.25,0,4,4,16,1,,,,,,,,,,,,,,,,,,,,,,,,,,,,,,,,,,,,,,,,
,,,,,SRP24_040,18,female,2024-04-11_16h03.42.073,jersey_experiment_5_v0,2023.2.2,Win32,84.74576271,,,,,,,,,,,,,,,,253.8248,254.8715,254.8715,256.4245,return,0.2934,,74.34895833,,,,,,FBP-YG-91.png,0.45,1.2,30,0.25,0,5,5,29,1,,,,,,,,,,,,,,,,,,,,,,,,,,,,,,,,,,,,,,,,
,,,,,SRP24_040,18,female,2024-04-11_16h03.42.073,jersey_experiment_5_v0,2023.2.2,Win32,84.74576271,,,,,,,,,,,,,,,,256.4247,257.4718,257.4718,258.6127,return,0.4513,,74.609375,,,,,,FBP-PT-81.png,0.45,1.2,55,0.25,0,6,6,54,1,,,,,,,,,,,,,,,,,,,,,,,,,,,,,,,,,,,,,,,,
,,,,,SRP24_040,18,female,2024-04-11_16h03.42.073,jersey_experiment_5_v0,2023.2.2,Win32,84.74576271,,,,,,,,,,,,,,,,258.613,259.907,259.907,260.9189,return,0.1544,,89.32291667,,,,,,FBP-RB-71.png,0.43,1.2,34,0.5,0,7,7,33,1,,,,,,,,,,,,,,,,,,,,,,,,,,,,,,,,,,,,,,,,
,,,,,SRP24_040,18,female,2024-04-11_16h03.42.073,jersey_experiment_5_v0,2023.2.2,Win32,84.74576271,,,,,,,,,,,,,,,,260.9191,262.2129,262.2129,263.2248,return,0.0584,,51.82291667,,,,,,FBP-OG-18.png,0.37,1.2,7,0.5,0,8,8,6,1,,,,,,,,,,,,,,,,,,,,,,,,,,,,,,,,,,,,,,,,
,,,,,SRP24_040,18,female,2024-04-11_16h03.42.073,jersey_experiment_5_v0,2023.2.2,Win32,84.74576271,,,,,,,,,,,,,,,,263.2249,264.2719,264.2719,265.2719,return,0.0827,,71.61458333,,,,,,FBP-YG-81.png,0.43,1.2,24,0.25,0,9,9,23,1,,,,,,,,,,,,,,,,,,,,,,,,,,,,,,,,,,,,,,,,
,,,,,SRP24_040,18,female,2024-04-11_16h03.42.073,jersey_experiment_5_v0,2023.2.2,Win32,84.74576271,,,,,,,,,,,,,,,,265.2721,266.319,266.319,267.719,return,0.2612,,48.17708333,,,,,,FBP-PT-71.png,0.4,1.2,48,0.25,0,10,10,47,1,,,,,,,,,,,,,,,,,,,,,,,,,,,,,,,,,,,,,,,,
,,,,,SRP24_040,18,female,2024-04-11_16h03.42.073,jersey_experiment_5_v0,2023.2.2,Win32,84.74576271,,,,,,,,,,,,,,,,267.7192,268.7661,268.7662,269.9544,return,0.1246,,24.21875,,,,,,FBP-YG-81.png,0.37,1.2,22,0.25,0,11,11,21,1,,,,,,,,,,,,,,,,,,,,,,,,,,,,,,,,,,,,,,,,
,,,,,SRP24_040,18,female,2024-04-11_16h03.42.073,jersey_experiment_5_v0,2023.2.2,Win32,84.74576271,,,,,,,,,,,,,,,,269.9546,271.2485,271.2485,272.531,return,0.3477,,6.510416667,,,,,,FBP-RB-91.png,0.35,1.2,41,0.5,0,12,12,40,1,,,,,,,,,,,,,,,,,,,,,,,,,,,,,,,,,,,,,,,,
,,,,,SRP24_040,18,female,2024-04-11_16h03.42.073,jersey_experiment_5_v0,2023.2.2,Win32,84.74576271,,,,,,,,,,,,,,,,272.5312,273.8252,273.8252,275.1782,return,0.3156,,51.43229167,,,,,,FBP-OG-17.png,0.43,1.2,4,0.5,0,13,13,3,1,,,,,,,,,,,,,,,,,,,,,,,,,,,,,,,,,,,,,,,,
,,,,,SRP24_040,18,female,2024-04-11_16h03.42.073,jersey_experiment_5_v0,2023.2.2,Win32,84.74576271,,,,,,,,,,,,,,,,275.1784,276.2253,276.2253,277.7784,return,0.5942,,28.64583333,,,,,,FBP-YG-91.png,0.37,1.2,27,0.25,0,14,14,26,1,,,,,,,,,,,,,,,,,,,,,,,,,,,,,,,,,,,,,,,,
,,,,,SRP24_040,18,female,2024-04-11_16h03.42.073,jersey_experiment_5_v0,2023.2.2,Win32,84.74576271,,,,,,,,,,,,,,,,277.7786,278.8253,278.8253,280.4842,return,0.6629,,11.328125,,,,,,FBP-YG-91.png,0.35,1.2,26,0.25,0,15,15,25,1,,,,,,,,,,,,,,,,,,,,,,,,,,,,,,,,,,,,,,,,
,,,,,SRP24_040,18,female,2024-04-11_16h03.42.073,jersey_experiment_5_v0,2023.2.2,Win32,84.74576271,,,,,,,,,,,,,,,,280.4844,281.5313,281.5313,283.7078,return,0.3303,,46.875,,,,,,FBP-PT-91.png,0.4,1.2,58,0.25,0,16,16,57,1,,,,,,,,,,,,,,,,,,,,,,,,,,,,,,,,,,,,,,,,
,,,,,SRP24_040,18,female,2024-04-11_16h03.42.073,jersey_experiment_5_v0,2023.2.2,Win32,84.74576271,,,,,,,,,,,,,,,,283.7081,285.002,285.002,285.8609,return,0.0752,,72.39583333,,,,,,FBP-RB-91.png,0.43,1.2,44,0.5,0,17,17,43,1,,,,,,,,,,,,,,,,,,,,,,,,,,,,,,,,,,,,,,,,
,,,,,SRP24_040,18,female,2024-04-11_16h03.42.073,jersey_experiment_5_v0,2023.2.2,Win32,84.74576271,,,,,,,,,,,,,,,,285.861,287.155,287.155,288.7552,return,0.5108,,43.75,,,,,,FBP-RB-91.png,0.37,1.2,42,0.5,0,18,18,41,1,,,,,,,,,,,,,,,,,,,,,,,,,,,,,,,,,,,,,,,,
,,,,,SRP24_040,18,female,2024-04-11_16h03.42.073,jersey_experiment_5_v0,2023.2.2,Win32,84.74576271,,,,,,,,,,,,,,,,288.7554,290.0493,290.0493,291.0611,return,0.2727,,68.22916667,,,,,,FBP-OG-19.png,0.45,1.2,15,0.5,0,19,19,14,1,,,,,,,,,,,,,,,,,,,,,,,,,,,,,,,,,,,,,,,,
,,,,,SRP24_040,18,female,2024-04-11_16h03.42.073,jersey_experiment_5_v0,2023.2.2,Win32,84.74576271,,,,,,,,,,,,,,,,291.0612,292.3552,292.3552,293.2728,return,0.0814,,27.08333333,,,,,,FBP-OG-18.png,0.35,1.2,6,0.5,0,20,20,5,1,,,,,,,,,,,,,,,,,,,,,,,,,,,,,,,,,,,,,,,,
,,,,,SRP24_040,18,female,2024-04-11_16h03.42.073,jersey_experiment_5_v0,2023.2.2,Win32,84.74576271,,,,,,,,,,,,,,,,293.2731,294.32,294.32,297.2849,return,0.9439,,52.734375,,,,,,FBP-YG-91.png,0.43,1.2,29,0.25,0,21,21,28,1,,,,,,,,,,,,,,,,,,,,,,,,,,,,,,,,,,,,,,,,
,,,,,SRP24_040,18,female,2024-04-11_16h03.42.073,jersey_experiment_5_v0,2023.2.2,Win32,84.74576271,,,,,,,,,,,,,,,,297.2851,298.579,298.579,301.0026,return,0.5778,,51.953125,,,,,,FBP-OG-19.png,0.37,1.2,12,0.5,0,22,22,11,1,,,,,,,,,,,,,,,,,,,,,,,,,,,,,,,,,,,,,,,,
,,,,,SRP24_040,18,female,2024-04-11_16h03.42.073,jersey_experiment_5_v0,2023.2.2,Win32,84.74576271,,,,,,,,,,,,,,,,301.0028,302.2967,302.2967,304.2027,return,0.8714,,78.77604167,,,,,,FBP-RB-81.png,0.43,1.2,39,0.5,0,23,23,38,1,,,,,,,,,,,,,,,,,,,,,,,,,,,,,,,,,,,,,,,,
,,,,,SRP24_040,18,female,2024-04-11_16h03.42.073,jersey_experiment_5_v0,2023.2.2,Win32,84.74576271,,,,,,,,,,,,,,,,304.203,305.4969,305.4969,306.6262,return,0.3715,,54.55729167,,,,,,FBP-OG-19.png,0.4,1.2,13,0.5,0,24,24,12,1,,,,,,,,,,,,,,,,,,,,,,,,,,,,,,,,,,,,,,,,
,,,,,SRP24_040,18,female,2024-04-11_16h03.42.073,jersey_experiment_5_v0,2023.2.2,Win32,84.74576271,,,,,,,,,,,,,,,,306.6265,307.6733,307.6733,309.5087,return,0.1456,,25.26041667,,,,,,FBP-PT-91.png,0.35,1.2,56,0.25,0,25,25,55,1,,,,,,,,,,,,,,,,,,,,,,,,,,,,,,,,,,,,,,,,
,,,,,SRP24_040,18,female,2024-04-11_16h03.42.073,jersey_experiment_5_v0,2023.2.2,Win32,84.74576271,,,,,,,,,,,,,,,,309.5089,310.5558,310.5558,311.65,return,0.4071,,25.26041667,,,,,,FBP-PT-81.png,0.35,1.2,51,0.25,0,26,26,50,1,,,,,,,,,,,,,,,,,,,,,,,,,,,,,,,,,,,,,,,,
,,,,,SRP24_040,18,female,2024-04-11_16h03.42.073,jersey_experiment_5_v0,2023.2.2,Win32,84.74576271,,,,,,,,,,,,,,,,311.6503,312.6972,312.6972,314.0265,return,0.2587,,24.86979167,,,,,,FBP-PT-71.png,0.37,1.2,47,0.25,0,27,27,46,1,,,,,,,,,,,,,,,,,,,,,,,,,,,,,,,,,,,,,,,,
,,,,,SRP24_040,18,female,2024-04-11_16h03.42.073,jersey_experiment_5_v0,2023.2.2,Win32,84.74576271,,,,,,,,,,,,,,,,314.0267,315.0736,315.0737,315.9797,return,0.2454,,24.86979167,,,,,,FBP-PT-71.png,0.35,1.2,46,0.25,0,28,28,45,1,,,,,,,,,,,,,,,,,,,,,,,,,,,,,,,,,,,,,,,,
,,,,,SRP24_040,18,female,2024-04-11_16h03.42.073,jersey_experiment_5_v0,2023.2.2,Win32,84.74576271,,,,,,,,,,,,,,,,315.9798,317.2738,317.2739,318.6502,return,0.2112,,10.41666667,,,,,,FBP-RB-81.png,0.35,1.2,36,0.5,0,29,29,35,1,,,,,,,,,,,,,,,,,,,,,,,,,,,,,,,,,,,,,,,,
,,,,,SRP24_040,18,female,2024-04-11_16h03.42.073,jersey_experiment_5_v0,2023.2.2,Win32,84.74576271,,,,,,,,,,,,,,,,318.6504,319.9444,319.9445,324.3446,return,1.9054,,31.90104167,,,,,,FBP-OG-17.png,0.35,1.2,1,0.5,0,30,30,0,1,,,,,,,,,,,,,,,,,,,,,,,,,,,,,,,,,,,,,,,,
,,,,,SRP24_040,18,female,2024-04-11_16h03.42.073,jersey_experiment_5_v0,2023.2.2,Win32,84.74576271,,,,,,,,,,,,,,,,324.3448,325.3917,325.3917,327.4035,return,0.7062,,18.48958333,,,,,,FBP-PT-81.png,0.37,1.2,52,0.25,0,31,31,51,1,,,,,,,,,,,,,,,,,,,,,,,,,,,,,,,,,,,,,,,,
,,,,,SRP24_040,18,female,2024-04-11_16h03.42.073,jersey_experiment_5_v0,2023.2.2,Win32,84.74576271,,,,,,,,,,,,,,,,327.4036,328.6976,328.6977,330.4037,return,0.6276,,70.703125,,,,,,FBP-OG-19.png,0.43,1.2,14,0.5,0,32,32,13,1,,,,,,,,,,,,,,,,,,,,,,,,,,,,,,,,,,,,,,,,
,,,,,SRP24_040,18,female,2024-04-11_16h03.42.073,jersey_experiment_5_v0,2023.2.2,Win32,84.74576271,,,,,,,,,,,,,,,,330.4039,331.4509,331.4509,333.3685,return,0.5654,,32.8125,,,,,,FBP-YG-71.png,0.4,1.2,18,0.25,0,33,33,17,1,,,,,,,,,,,,,,,,,,,,,,,,,,,,,,,,,,,,,,,,
,,,,,SRP24_040,18,female,2024-04-11_16h03.42.073,jersey_experiment_5_v0,2023.2.2,Win32,84.74576271,,,,,,,,,,,,,,,,333.3688,334.4157,334.4157,336.0509,return,0.6045,,5.338541667,,,,,,FBP-YG-81.png,0.35,1.2,21,0.25,0,34,34,20,1,,,,,,,,,,,,,,,,,,,,,,,,,,,,,,,,,,,,,,,,
,,,,,SRP24_040,18,female,2024-04-11_16h03.42.073,jersey_experiment_5_v0,2023.2.2,Win32,84.74576271,,,,,,,,,,,,,,,,336.0512,337.098,337.0981,339.8982,return,0.6014,,49.609375,,,,,,FBP-PT-91.png,0.43,1.2,59,0.25,0,35,35,58,1,,,,,,,,,,,,,,,,,,,,,,,,,,,,,,,,,,,,,,,,
,,,,,SRP24_040,18,female,2024-04-11_16h03.42.073,jersey_experiment_5_v0,2023.2.2,Win32,84.74576271,,,,,,,,,,,,,,,,339.8985,341.1922,341.1923,342.8865,return,0.5793,,22.13541667,,,,,,FBP-OG-19.png,0.35,1.2,11,0.5,0,36,36,10,1,,,,,,,,,,,,,,,,,,,,,,,,,,,,,,,,,,,,,,,,
,,,,,SRP24_040,18,female,2024-04-11_16h03.42.073,jersey_experiment_5_v0,2023.2.2,Win32,84.74576271,,,,,,,,,,,,,,,,342.8867,343.9334,343.9334,345.2866,return,0.6368,,22.13541667,,,,,,FBP-YG-91.png,0.4,1.2,28,0.25,0,37,37,27,1,,,,,,,,,,,,,,,,,,,,,,,,,,,,,,,,,,,,,,,,
,,,,,SRP24_040,18,female,2024-04-11_16h03.42.073,jersey_experiment_5_v0,2023.2.2,Win32,84.74576271,,,,,,,,,,,,,,,,345.2867,346.5808,346.5808,348.2515,return,0.6358,,75.78125,,,,,,FBP-RB-81.png,0.45,1.2,40,0.5,0,38,38,39,1,,,,,,,,,,,,,,,,,,,,,,,,,,,,,,,,,,,,,,,,
,,,,,SRP24_040,18,female,2024-04-11_16h03.42.073,jersey_experiment_5_v0,2023.2.2,Win32,84.74576271,,,,,,,,,,,,,,,,348.2518,349.2984,349.2984,351.3691,return,0.659,,75.78125,,,,,,FBP-PT-91.png,0.45,1.2,60,0.25,0,39,39,59,1,,,,,,,,,,,,,,,,,,,,,,,,,,,,,,,,,,,,,,,,
,,,,,SRP24_040,18,female,2024-04-11_16h03.42.073,jersey_experiment_5_v0,2023.2.2,Win32,84.74576271,,,,,,,,,,,,,,,,351.3692,352.6634,352.6634,353.9456,return,0.589,,49.609375,,,,,,FBP-RB-81.png,0.4,1.2,38,0.5,0,40,40,37,1,,,,,,,,,,,,,,,,,,,,,,,,,,,,,,,,,,,,,,,,
,,,,,SRP24_040,18,female,2024-04-11_16h03.42.073,jersey_experiment_5_v0,2023.2.2,Win32,84.74576271,,,,,,,,,,,,,,,,353.9459,354.9927,354.9928,358.7929,return,0.5884,,23.95833333,,,,,,FBP-YG-71.png,0.35,1.2,16,0.25,0,41,41,15,1,,,,,,,,,,,,,,,,,,,,,,,,,,,,,,,,,,,,,,,,
,,,,,SRP24_040,18,female,2024-04-11_16h03.42.073,jersey_experiment_5_v0,2023.2.2,Win32,84.74576271,,,,,,,,,,,,,,,,358.7931,360.087,360.0871,372.5817,return,2.7548,,47.00520833,,,,,,FBP-RB-71.png,0.35,1.2,31,0.5,0,42,42,30,1,,,,,,,,,,,,,,,,,,,,,,,,,,,,,,,,,,,,,,,,
,,,,,SRP24_040,18,female,2024-04-11_16h03.42.073,jersey_experiment_5_v0,2023.2.2,Win32,84.74576271,,,,,,,,,,,,,,,,372.5819,373.6287,373.6287,375.7817,return,0.755,,72.13541667,,,,,,FBP-YG-81.png,0.45,1.2,25,0.25,0,43,43,24,1,,,,,,,,,,,,,,,,,,,,,,,,,,,,,,,,,,,,,,,,
,,,,,SRP24_040,18,female,2024-04-11_16h03.42.073,jersey_experiment_5_v0,2023.2.2,Win32,84.74576271,,,,,,,,,,,,,,,,375.7819,376.8288,376.8289,378.5819,return,0.5901,,22.65625,,,,,,FBP-PT-91.png,0.37,1.2,57,0.25,0,44,44,56,1,,,,,,,,,,,,,,,,,,,,,,,,,,,,,,,,,,,,,,,,
,,,,,SRP24_040,18,female,2024-04-11_16h03.42.073,jersey_experiment_5_v0,2023.2.2,Win32,84.74576271,,,,,,,,,,,,,,,,378.5822,379.8759,379.876,381.4171,return,0.5649,,75.78125,,,,,,FBP-RB-91.png,0.45,1.2,45,0.5,0,45,45,44,1,,,,,,,,,,,,,,,,,,,,,,,,,,,,,,,,,,,,,,,,
,,,,,SRP24_040,18,female,2024-04-11_16h03.42.073,jersey_experiment_5_v0,2023.2.2,Win32,84.74576271,,,,,,,,,,,,,,,,381.4174,382.4644,382.4644,384.2762,return,0.4742,,55.46875,,,,,,FBP-PT-71.png,0.43,1.2,49,0.25,0,46,46,48,1,,,,,,,,,,,,,,,,,,,,,,,,,,,,,,,,,,,,,,,,
,,,,,SRP24_040,18,female,2024-04-11_16h03.42.073,jersey_experiment_5_v0,2023.2.2,Win32,84.74576271,,,,,,,,,,,,,,,,384.2765,385.5703,385.5703,386.3586,return,0.1295,,55.33854167,,,,,,FBP-OG-18.png,0.43,1.2,9,0.5,0,47,47,8,1,,,,,,,,,,,,,,,,,,,,,,,,,,,,,,,,,,,,,,,,
,,,,,SRP24_040,18,female,2024-04-11_16h03.42.073,jersey_experiment_5_v0,2023.2.2,Win32,84.74576271,,,,,,,,,,,,,,,,386.3588,387.6528,387.6529,388.7705,return,0.1361,,28.64583333,,,,,,FBP-RB-71.png,0.4,1.2,33,0.5,0,48,48,32,1,,,,,,,,,,,,,,,,,,,,,,,,,,,,,,,,,,,,,,,,
,,,,,SRP24_040,18,female,2024-04-11_16h03.42.073,jersey_experiment_5_v0,2023.2.2,Win32,84.74576271,,,,,,,,,,,,,,,,388.7706,389.8176,389.8176,391.3,return,0.1466,,44.921875,,,,,,FBP-PT-81.png,0.4,1.2,53,0.25,0,49,49,52,1,,,,,,,,,,,,,,,,,,,,,,,,,,,,,,,,,,,,,,,,
,,,,,SRP24_040,18,female,2024-04-11_16h03.42.073,jersey_experiment_5_v0,2023.2.2,Win32,84.74576271,,,,,,,,,,,,,,,,391.3,392.3471,392.3471,393.4765,return,0.1575,,67.31770833,,,,,,FBP-YG-71.png,0.45,1.2,20,0.25,0,50,50,19,1,,,,,,,,,,,,,,,,,,,,,,,,,,,,,,,,,,,,,,,,
,,,,,SRP24_040,18,female,2024-04-11_16h03.42.073,jersey_experiment_5_v0,2023.2.2,Win32,84.74576271,,,,,,,,,,,,,,,,393.4768,394.5236,394.5236,395.6649,return,0.1483,,75,,,,,,FBP-YG-71.png,0.43,1.2,19,0.25,0,51,51,18,1,,,,,,,,,,,,,,,,,,,,,,,,,,,,,,,,,,,,,,,,
,,,,,SRP24_040,18,female,2024-04-11_16h03.42.073,jersey_experiment_5_v0,2023.2.2,Win32,84.74576271,,,,,,,,,,,,,,,,395.6651,396.9589,396.9589,397.9119,return,0.1658,,91.27604167,,,,,,FBP-RB-71.png,0.45,1.2,35,0.5,0,52,52,34,1,,,,,,,,,,,,,,,,,,,,,,,,,,,,,,,,,,,,,,,,
,,,,,SRP24_040,18,female,2024-04-11_16h03.42.073,jersey_experiment_5_v0,2023.2.2,Win32,84.74576271,,,,,,,,,,,,,,,,397.9121,398.959,398.9591,399.8767,return,0.181,,91.015625,,,,,,FBP-PT-71.png,0.45,1.2,50,0.25,0,53,53,49,1,,,,,,,,,,,,,,,,,,,,,,,,,,,,,,,,,,,,,,,,
,,,,,SRP24_040,18,female,2024-04-11_16h03.42.073,jersey_experiment_5_v0,2023.2.2,Win32,84.74576271,,,,,,,,,,,,,,,,399.8769,401.171,401.171,402.5238,return,0.3155,,69.40104167,,,,,,FBP-OG-17.png,0.4,1.2,3,0.5,0,54,54,2,1,,,,,,,,,,,,,,,,,,,,,,,,,,,,,,,,,,,,,,,,
,,,,,SRP24_040,18,female,2024-04-11_16h03.42.073,jersey_experiment_5_v0,2023.2.2,Win32,84.74576271,,,,,,,,,,,,,,,,402.524,403.818,403.818,407.477,return,0.4031,,67.44791667,,,,,,FBP-RB-91.png,0.4,1.2,43,0.5,0,55,55,42,1,,,,,,,,,,,,,,,,,,,,,,,,,,,,,,,,,,,,,,,,
,,,,,SRP24_040,18,female,2024-04-11_16h03.42.073,jersey_experiment_5_v0,2023.2.2,Win32,84.74576271,,,,,,,,,,,,,,,,407.4773,408.7711,408.7711,410.0653,return,0.1942,,74.86979167,,,,,,FBP-OG-18.png,0.45,1.2,10,0.5,0,56,56,9,1,,,,,,,,,,,,,,,,,,,,,,,,,,,,,,,,,,,,,,,,
,,,,,SRP24_040,18,female,2024-04-11_16h03.42.073,jersey_experiment_5_v0,2023.2.2,Win32,84.74576271,,,,,,,,,,,,,,,,410.0655,411.3594,411.3594,412.2418,return,0.323,,74.86979167,,,,,,FBP-OG-17.png,0.45,1.2,5,0.5,0,57,57,4,1,,,,,,,,,,,,,,,,,,,,,,,,,,,,,,,,,,,,,,,,
,,,,,SRP24_040,18,female,2024-04-11_16h03.42.073,jersey_experiment_5_v0,2023.2.2,Win32,84.74576271,,,,,,,,,,,,,,,,412.242,413.5359,413.5359,414.795,return,0.1661,,41.14583333,,,,,,FBP-OG-17.png,0.37,1.2,2,0.5,0,58,58,1,1,,,,,,,,,,,,,,,,,,,,,,,,,,,,,,,,,,,,,,,,
,,,,,SRP24_040,18,female,2024-04-11_16h03.42.073,jersey_experiment_5_v0,2023.2.2,Win32,84.74576271,,,,,,,,,,,,,,,,414.7951,416.0891,416.0891,416.9363,return,0.2827,,41.14583333,,,,,,FBP-OG-18.png,0.4,1.2,8,0.5,0,59,59,7,1,,,,,,,,,,,,,,,,,,,,,,,,,,,,,,,,,,,,,,,,
,,,,,SRP24_040,18,female,2024-04-11_16h03.42.073,jersey_experiment_5_v0,2023.2.2,Win32,84.74576271,,,,,,,,,,,,,,,,,,,,,,,,,,,,,,,,,,,,,,,416.9368,536.9289,,,,,,,,,,,,,,,,,,,,,,,,,,,,,,,,,,,,,,
,,,,,SRP24_040,18,female,2024-04-11_16h03.42.073,jersey_experiment_5_v0,2023.2.2,Win32,84.74576271,,,,,,,,,,,,,,,,,,,,,,,,,,,,,,,,,,,,,,,,,536.929,538.9876,return,2.0473,,,,,,,,,,,,,,,,,,,,,,,,,,,,,,,,,,
,,,,,SRP24_040,18,female,2024-04-11_16h03.42.073,jersey_experiment_5_v0,2023.2.2,Win32,84.74576271,,,,,,,,,,,,,,,,538.9935,540.2934,540.2934,541.5406,return,0.2736,,72.65625,,,,,,FBP-YG-19.png,0.45,1.2,30,0.5,,,,,,,,,,,,,0,0,0,29,1,,,,,,,,,,,,,,,,,,,,,,,,,,,,
,,,,,SRP24_040,18,female,2024-04-11_16h03.42.073,jersey_experiment_5_v0,2023.2.2,Win32,84.74576271,,,,,,,,,,,,,,,,541.5408,542.5877,542.5878,543.3643,return,0.1576,,72.65625,,,,,,FBP-RB-17.png,0.45,1.2,35,0.25,,,,,,,,,,,,,0,1,1,34,1,,,,,,,,,,,,,,,,,,,,,,,,,,,,
,,,,,SRP24_040,18,female,2024-04-11_16h03.42.073,jersey_experiment_5_v0,2023.2.2,Win32,84.74576271,,,,,,,,,,,,,,,,543.3645,544.4112,544.4112,545.2348,return,0.1343,,72.65625,,,,,,FBP-OG-81.png,0.43,1.2,9,0.25,,,,,,,,,,,,,0,2,2,8,1,,,,,,,,,,,,,,,,,,,,,,,,,,,,
,,,,,SRP24_040,18,female,2024-04-11_16h03.42.073,jersey_experiment_5_v0,2023.2.2,Win32,84.74576271,,,,,,,,,,,,,,,,545.2351,546.2819,546.282,547.6584,return,0.1411,,87.76041667,,,,,,FBP-OG-71.png,0.45,1.2,5,0.25,,,,,,,,,,,,,0,3,3,4,1,,,,,,,,,,,,,,,,,,,,,,,,,,,,
,,,,,SRP24_040,18,female,2024-04-11_16h03.42.073,jersey_experiment_5_v0,2023.2.2,Win32,84.74576271,,,,,,,,,,,,,,,,547.6585,548.7055,548.7055,549.5291,return,0.2023,,87.76041667,,,,,,FBP-OG-91.png,0.45,1.2,15,0.25,,,,,,,,,,,,,0,4,4,14,1,,,,,,,,,,,,,,,,,,,,,,,,,,,,
,,,,,SRP24_040,18,female,2024-04-11_16h03.42.073,jersey_experiment_5_v0,2023.2.2,Win32,84.74576271,,,,,,,,,,,,,,,,549.5294,550.576,550.5761,552.0822,return,0.0644,,38.93229167,,,,,,FBP-OG-91.png,0.37,1.2,12,0.25,,,,,,,,,,,,,0,5,5,11,1,,,,,,,,,,,,,,,,,,,,,,,,,,,,
,,,,,SRP24_040,18,female,2024-04-11_16h03.42.073,jersey_experiment_5_v0,2023.2.2,Win32,84.74576271,,,,,,,,,,,,,,,,552.0824,553.3763,553.3763,554.3058,return,0.1222,,28.515625,,,,,,FBP-YG-19.png,0.37,1.2,27,0.5,,,,,,,,,,,,,0,6,6,26,1,,,,,,,,,,,,,,,,,,,,,,,,,,,,
,,,,,SRP24_040,18,female,2024-04-11_16h03.42.073,jersey_experiment_5_v0,2023.2.2,Win32,84.74576271,,,,,,,,,,,,,,,,554.3061,555.5999,555.6,556.6469,return,0.1058,,55.859375,,,,,,FBP-YG-17.png,0.4,1.2,18,0.5,,,,,,,,,,,,,0,7,7,17,1,,,,,,,,,,,,,,,,,,,,,,,,,,,,
,,,,,SRP24_040,18,female,2024-04-11_16h03.42.073,jersey_experiment_5_v0,2023.2.2,Win32,84.74576271,,,,,,,,,,,,,,,,556.6471,557.6941,557.6942,559.1295,return,0.1166,,35.9375,,,,,,FBP-OG-81.png,0.35,1.2,6,0.25,,,,,,,,,,,,,0,8,8,5,1,,,,,,,,,,,,,,,,,,,,,,,,,,,,
,,,,,SRP24_040,18,female,2024-04-11_16h03.42.073,jersey_experiment_5_v0,2023.2.2,Win32,84.74576271,,,,,,,,,,,,,,,,559.1297,560.1765,560.1765,561.6708,return,0.1551,,26.171875,,,,,,FBP-OG-91.png,0.35,1.2,11,0.25,,,,,,,,,,,,,0,9,9,10,1,,,,,,,,,,,,,,,,,,,,,,,,,,,,
,,,,,SRP24_040,18,female,2024-04-11_16h03.42.073,jersey_experiment_5_v0,2023.2.2,Win32,84.74576271,,,,,,,,,,,,,,,,561.671,562.965,562.965,564.1061,return,0.1035,,69.53125,,,,,,FBP-PT-18.png,0.43,1.2,54,0.5,,,,,,,,,,,,,0,10,10,53,1,,,,,,,,,,,,,,,,,,,,,,,,,,,,
,,,,,SRP24_040,18,female,2024-04-11_16h03.42.073,jersey_experiment_5_v0,2023.2.2,Win32,84.74576271,,,,,,,,,,,,,,,,564.1062,565.4002,565.4003,566.565,return,0.1204,,25.65104167,,,,,,FBP-PT-19.png,0.35,1.2,56,0.5,,,,,,,,,,,,,0,11,11,55,1,,,,,,,,,,,,,,,,,,,,,,,,,,,,
,,,,,SRP24_040,18,female,2024-04-11_16h03.42.073,jersey_experiment_5_v0,2023.2.2,Win32,84.74576271,,,,,,,,,,,,,,,,566.5653,567.8593,567.8593,569.3652,return,0.144,,61.19791667,,,,,,FBP-PT-18.png,0.45,1.2,55,0.5,,,,,,,,,,,,,0,12,12,54,1,,,,,,,,,,,,,,,,,,,,,,,,,,,,
,,,,,SRP24_040,18,female,2024-04-11_16h03.42.073,jersey_experiment_5_v0,2023.2.2,Win32,84.74576271,,,,,,,,,,,,,,,,569.3654,570.6593,570.6593,571.7064,return,0.2224,,42.31770833,,,,,,FBP-PT-19.png,0.37,1.2,57,0.5,,,,,,,,,,,,,0,13,13,56,1,,,,,,,,,,,,,,,,,,,,,,,,,,,,
,,,,,SRP24_040,18,female,2024-04-11_16h03.42.073,jersey_experiment_5_v0,2023.2.2,Win32,84.74576271,,,,,,,,,,,,,,,,571.7065,572.7535,572.7535,573.9066,return,0.0993,,26.43229167,,,,,,FBP-RB-17.png,0.37,1.2,32,0.25,,,,,,,,,,,,,0,14,14,31,1,,,,,,,,,,,,,,,,,,,,,,,,,,,,
,,,,,SRP24_040,18,female,2024-04-11_16h03.42.073,jersey_experiment_5_v0,2023.2.2,Win32,84.74576271,,,,,,,,,,,,,,,,573.9069,574.9535,574.9535,575.7654,return,0.1564,,26.43229167,,,,,,FBP-RB-18.png,0.37,1.2,37,0.25,,,,,,,,,,,,,0,15,15,36,1,,,,,,,,,,,,,,,,,,,,,,,,,,,,
,,,,,SRP24_040,18,female,2024-04-11_16h03.42.073,jersey_experiment_5_v0,2023.2.2,Win32,84.74576271,,,,,,,,,,,,,,,,575.7656,576.8123,576.8124,577.7301,return,0.1807,,26.43229167,,,,,,FBP-RB-17.png,0.35,1.2,31,0.25,,,,,,,,,,,,,0,16,16,30,1,,,,,,,,,,,,,,,,,,,,,,,,,,,,
,,,,,SRP24_040,18,female,2024-04-11_16h03.42.073,jersey_experiment_5_v0,2023.2.2,Win32,84.74576271,,,,,,,,,,,,,,,,577.7303,579.0242,579.0242,580.1656,return,0.1184,,76.43229167,,,,,,FBP-PT-17.png,0.43,1.2,49,0.5,,,,,,,,,,,,,0,17,17,48,1,,,,,,,,,,,,,,,,,,,,,,,,,,,,
,,,,,SRP24_040,18,female,2024-04-11_16h03.42.073,jersey_experiment_5_v0,2023.2.2,Win32,84.74576271,,,,,,,,,,,,,,,,580.1658,581.4598,581.4598,582.1775,return,0.1489,,76.43229167,,,,,,FBP-YG-18.png,0.45,1.2,25,0.5,,,,,,,,,,,,,0,18,18,24,1,,,,,,,,,,,,,,,,,,,,,,,,,,,,
,,,,,SRP24_040,18,female,2024-04-11_16h03.42.073,jersey_experiment_5_v0,2023.2.2,Win32,84.74576271,,,,,,,,,,,,,,,,582.1777,583.4713,583.4713,584.248,return,0.3173,,76.43229167,,,,,,FBP-PT-17.png,0.45,1.2,50,0.5,,,,,,,,,,,,,0,19,19,49,1,,,,,,,,,,,,,,,,,,,,,,,,,,,,
,,,,,SRP24_040,18,female,2024-04-11_16h03.42.073,jersey_experiment_5_v0,2023.2.2,Win32,84.74576271,,,,,,,,,,,,,,,,584.2482,585.5422,585.5422,586.3775,return,0.2346,,76.43229167,,,,,,FBP-PT-19.png,0.43,1.2,59,0.5,,,,,,,,,,,,,0,20,20,58,1,,,,,,,,,,,,,,,,,,,,,,,,,,,,
,,,,,SRP24_040,18,female,2024-04-11_16h03.42.073,jersey_experiment_5_v0,2023.2.2,Win32,84.74576271,,,,,,,,,,,,,,,,586.3778,587.4246,587.4246,588.5188,return,0.0139,,23.95833333,,,,,,FBP-RB-18.png,0.35,1.2,36,0.25,,,,,,,,,,,,,0,21,21,35,1,,,,,,,,,,,,,,,,,,,,,,,,,,,,
,,,,,SRP24_040,18,female,2024-04-11_16h03.42.073,jersey_experiment_5_v0,2023.2.2,Win32,84.74576271,,,,,,,,,,,,,,,,588.5189,589.5658,589.5658,591.86,return,0.4272,,53.90625,,,,,,FBP-RB-19.png,0.43,1.2,44,0.25,,,,,,,,,,,,,0,22,22,43,1,,,,,,,,,,,,,,,,,,,,,,,,,,,,
,,,,,SRP24_040,18,female,2024-04-11_16h03.42.073,jersey_experiment_5_v0,2023.2.2,Win32,84.74576271,,,,,,,,,,,,,,,,591.8603,592.9071,592.9072,594.5307,return,0.2886,,56.11979167,,,,,,FBP-OG-71.png,0.4,1.2,3,0.25,,,,,,,,,,,,,0,23,23,2,1,,,,,,,,,,,,,,,,,,,,,,,,,,,,
,,,,,SRP24_040,18,female,2024-04-11_16h03.42.073,jersey_experiment_5_v0,2023.2.2,Win32,84.74576271,,,,,,,,,,,,,,,,594.5309,595.5779,595.578,596.5661,return,0.3529,,56.11979167,,,,,,FBP-OG-71.png,0.43,1.2,4,0.25,,,,,,,,,,,,,0,24,24,3,1,,,,,,,,,,,,,,,,,,,,,,,,,,,,
,,,,,SRP24_040,18,female,2024-04-11_16h03.42.073,jersey_experiment_5_v0,2023.2.2,Win32,84.74576271,,,,,,,,,,,,,,,,596.5664,597.613,597.6131,598.5663,return,0.3774,,56.11979167,,,,,,FBP-RB-18.png,0.43,1.2,39,0.25,,,,,,,,,,,,,0,25,25,38,1,,,,,,,,,,,,,,,,,,,,,,,,,,,,
,,,,,SRP24_040,18,female,2024-04-11_16h03.42.073,jersey_experiment_5_v0,2023.2.2,Win32,84.74576271,,,,,,,,,,,,,,,,598.5665,599.8604,599.8605,600.5192,return,0.1545,,56.11979167,,,,,,FBP-YG-18.png,0.43,1.2,24,0.5,,,,,,,,,,,,,0,26,26,23,1,,,,,,,,,,,,,,,,,,,,,,,,,,,,
,,,,,SRP24_040,18,female,2024-04-11_16h03.42.073,jersey_experiment_5_v0,2023.2.2,Win32,84.74576271,,,,,,,,,,,,,,,,600.5195,601.8135,601.8135,602.6486,return,0.0815,,34.63541667,,,,,,FBP-YG-18.png,0.37,1.2,22,0.5,,,,,,,,,,,,,0,27,27,21,1,,,,,,,,,,,,,,,,,,,,,,,,,,,,
,,,,,SRP24_040,18,female,2024-04-11_16h03.42.073,jersey_experiment_5_v0,2023.2.2,Win32,84.74576271,,,,,,,,,,,,,,,,602.6487,603.6958,603.6959,604.7075,return,0.0876,,59.765625,,,,,,FBP-RB-18.png,0.45,1.2,40,0.25,,,,,,,,,,,,,0,28,28,39,1,,,,,,,,,,,,,,,,,,,,,,,,,,,,
,,,,,SRP24_040,18,female,2024-04-11_16h03.42.073,jersey_experiment_5_v0,2023.2.2,Win32,84.74576271,,,,,,,,,,,,,,,,604.7078,606.0016,606.0017,606.6487,return,0.1751,,59.765625,,,,,,FBP-PT-19.png,0.45,1.2,60,0.5,,,,,,,,,,,,,0,29,29,59,1,,,,,,,,,,,,,,,,,,,,,,,,,,,,
,,,,,SRP24_040,18,female,2024-04-11_16h03.42.073,jersey_experiment_5_v0,2023.2.2,Win32,84.74576271,,,,,,,,,,,,,,,,606.6489,607.9429,607.9429,608.837,return,0.0742,,33.59375,,,,,,FBP-PT-18.png,0.4,1.2,53,0.5,,,,,,,,,,,,,0,30,30,52,1,,,,,,,,,,,,,,,,,,,,,,,,,,,,
,,,,,SRP24_040,18,female,2024-04-11_16h03.42.073,jersey_experiment_5_v0,2023.2.2,Win32,84.74576271,,,,,,,,,,,,,,,,608.8372,610.1313,610.1313,610.9667,return,0.0946,,26.43229167,,,,,,FBP-PT-18.png,0.37,1.2,52,0.5,,,,,,,,,,,,,0,31,31,51,1,,,,,,,,,,,,,,,,,,,,,,,,,,,,
,,,,,SRP24_040,18,female,2024-04-11_16h03.42.073,jersey_experiment_5_v0,2023.2.2,Win32,84.74576271,,,,,,,,,,,,,,,,610.9668,612.2608,612.2609,613.296,return,0.2085,,58.72395833,,,,,,FBP-YG-17.png,0.43,1.2,19,0.5,,,,,,,,,,,,,0,32,32,18,1,,,,,,,,,,,,,,,,,,,,,,,,,,,,
,,,,,SRP24_040,18,female,2024-04-11_16h03.42.073,jersey_experiment_5_v0,2023.2.2,Win32,84.74576271,,,,,,,,,,,,,,,,613.2961,614.5903,614.5904,615.4726,return,0.1726,,69.79166667,,,,,,FBP-YG-17.png,0.45,1.2,20,0.5,,,,,,,,,,,,,0,33,33,19,1,,,,,,,,,,,,,,,,,,,,,,,,,,,,
,,,,,SRP24_040,18,female,2024-04-11_16h03.42.073,jersey_experiment_5_v0,2023.2.2,Win32,84.74576271,,,,,,,,,,,,,,,,615.4727,616.5198,616.5199,617.8257,return,0.2425,,23.95833333,,,,,,FBP-RB-19.png,0.37,1.2,42,0.25,,,,,,,,,,,,,0,34,34,41,1,,,,,,,,,,,,,,,,,,,,,,,,,,,,
,,,,,SRP24_040,18,female,2024-04-11_16h03.42.073,jersey_experiment_5_v0,2023.2.2,Win32,84.74576271,,,,,,,,,,,,,,,,617.8259,619.1198,619.1198,619.7552,return,0.165,,23.95833333,,,,,,FBP-YG-19.png,0.35,1.2,26,0.5,,,,,,,,,,,,,0,35,35,25,1,,,,,,,,,,,,,,,,,,,,,,,,,,,,
,,,,,SRP24_040,18,female,2024-04-11_16h03.42.073,jersey_experiment_5_v0,2023.2.2,Win32,84.74576271,,,,,,,,,,,,,,,,619.7554,621.0493,621.0493,622.0494,return,0.099,,71.484375,,,,,,FBP-YG-19.png,0.43,1.2,29,0.5,,,,,,,,,,,,,0,36,36,28,1,,,,,,,,,,,,,,,,,,,,,,,,,,,,
,,,,,SRP24_040,18,female,2024-04-11_16h03.42.073,jersey_experiment_5_v0,2023.2.2,Win32,84.74576271,,,,,,,,,,,,,,,,622.0496,623.0965,623.0965,624.8848,return,0.098,,51.43229167,,,,,,FBP-OG-81.png,0.4,1.2,8,0.25,,,,,,,,,,,,,0,37,37,7,1,,,,,,,,,,,,,,,,,,,,,,,,,,,,
,,,,,SRP24_040,18,female,2024-04-11_16h03.42.073,jersey_experiment_5_v0,2023.2.2,Win32,84.74576271,,,,,,,,,,,,,,,,624.8849,625.9319,625.9319,627.179,return,0.1559,,24.47916667,,,,,,FBP-OG-71.png,0.35,1.2,1,0.25,,,,,,,,,,,,,0,38,38,0,1,,,,,,,,,,,,,,,,,,,,,,,,,,,,
,,,,,SRP24_040,18,female,2024-04-11_16h03.42.073,jersey_experiment_5_v0,2023.2.2,Win32,84.74576271,,,,,,,,,,,,,,,,627.1792,628.4731,628.4731,633.5794,return,0.6965,,42.44791667,,,,,,FBP-PT-19.png,0.4,1.2,58,0.5,,,,,,,,,,,,,0,39,39,57,1,,,,,,,,,,,,,,,,,,,,,,,,,,,,
,,,,,SRP24_040,18,female,2024-04-11_16h03.42.073,jersey_experiment_5_v0,2023.2.2,Win32,84.74576271,,,,,,,,,,,,,,,,633.5796,634.6263,634.6263,636.4381,return,0.1539,,42.44791667,,,,,,FBP-OG-91.png,0.43,1.2,14,0.25,,,,,,,,,,,,,0,40,40,13,1,,,,,,,,,,,,,,,,,,,,,,,,,,,,
,,,,,SRP24_040,18,female,2024-04-11_16h03.42.073,jersey_experiment_5_v0,2023.2.2,Win32,84.74576271,,,,,,,,,,,,,,,,636.4383,637.4852,637.4852,638.45,return,0.0989,,30.078125,,,,,,FBP-RB-19.png,0.4,1.2,43,0.25,,,,,,,,,,,,,0,41,41,42,1,,,,,,,,,,,,,,,,,,,,,,,,,,,,
,,,,,SRP24_040,18,female,2024-04-11_16h03.42.073,jersey_experiment_5_v0,2023.2.2,Win32,84.74576271,,,,,,,,,,,,,,,,638.4501,639.4969,639.4969,640.4501,return,0.0984,,47.78645833,,,,,,FBP-OG-91.png,0.4,1.2,13,0.25,,,,,,,,,,,,,0,42,42,12,1,,,,,,,,,,,,,,,,,,,,,,,,,,,,
,,,,,SRP24_040,18,female,2024-04-11_16h03.42.073,jersey_experiment_5_v0,2023.2.2,Win32,84.74576271,,,,,,,,,,,,,,,,640.4502,641.497,641.4971,643.4971,return,0.1411,,68.61979167,,,,,,FBP-RB-19.png,0.45,1.2,45,0.25,,,,,,,,,,,,,0,43,43,44,1,,,,,,,,,,,,,,,,,,,,,,,,,,,,
,,,,,SRP24_040,18,female,2024-04-11_16h03.42.073,jersey_experiment_5_v0,2023.2.2,Win32,84.74576271,,,,,,,,,,,,,,,,643.4974,644.7913,644.7913,645.4031,return,0.1048,,68.61979167,,,,,,FBP-YG-18.png,0.4,1.2,23,0.5,,,,,,,,,,,,,0,44,44,22,1,,,,,,,,,,,,,,,,,,,,,,,,,,,,
,,,,,SRP24_040,18,female,2024-04-11_16h03.42.073,jersey_experiment_5_v0,2023.2.2,Win32,84.74576271,,,,,,,,,,,,,,,,645.4033,646.4502,646.4503,647.1562,return,0.1207,,68.61979167,,,,,,FBP-RB-17.png,0.4,1.2,33,0.25,,,,,,,,,,,,,0,45,45,32,1,,,,,,,,,,,,,,,,,,,,,,,,,,,,
,,,,,SRP24_040,18,female,2024-04-11_16h03.42.073,jersey_experiment_5_v0,2023.2.2,Win32,84.74576271,,,,,,,,,,,,,,,,647.1565,648.4503,648.4503,649.5209,return,0.1018,,47.265625,,,,,,FBP-PT-17.png,0.37,1.2,47,0.5,,,,,,,,,,,,,0,46,46,46,1,,,,,,,,,,,,,,,,,,,,,,,,,,,,
,,,,,SRP24_040,18,female,2024-04-11_16h03.42.073,jersey_experiment_5_v0,2023.2.2,Win32,84.74576271,,,,,,,,,,,,,,,,649.5211,650.8151,650.8151,651.6033,return,0.0742,,44.66145833,,,,,,FBP-YG-17.png,0.37,1.2,17,0.5,,,,,,,,,,,,,0,47,47,16,1,,,,,,,,,,,,,,,,,,,,,,,,,,,,
,,,,,SRP24_040,18,female,2024-04-11_16h03.42.073,jersey_experiment_5_v0,2023.2.2,Win32,84.74576271,,,,,,,,,,,,,,,,651.6036,652.6504,652.6504,653.9915,return,0.1656,,69.40104167,,,,,,FBP-OG-81.png,0.45,1.2,10,0.25,,,,,,,,,,,,,0,48,48,9,1,,,,,,,,,,,,,,,,,,,,,,,,,,,,
,,,,,SRP24_040,18,female,2024-04-11_16h03.42.073,jersey_experiment_5_v0,2023.2.2,Win32,84.74576271,,,,,,,,,,,,,,,,653.9917,655.0388,655.0388,659.5682,return,0.7142,,58.46354167,,,,,,FBP-RB-19.png,0.35,1.2,41,0.25,,,,,,,,,,,,,0,49,49,40,1,,,,,,,,,,,,,,,,,,,,,,,,,,,,
,,,,,SRP24_040,18,female,2024-04-11_16h03.42.073,jersey_experiment_5_v0,2023.2.2,Win32,84.74576271,,,,,,,,,,,,,,,,659.5684,660.8625,660.8626,661.9096,return,0.4855,,58.46354167,,,,,,FBP-PT-17.png,0.4,1.2,48,0.5,,,,,,,,,,,,,0,50,50,47,1,,,,,,,,,,,,,,,,,,,,,,,,,,,,
,,,,,SRP24_040,18,female,2024-04-11_16h03.42.073,jersey_experiment_5_v0,2023.2.2,Win32,84.74576271,,,,,,,,,,,,,,,,661.9098,663.2038,663.2038,664.498,return,0.0988,,32.94270833,,,,,,FBP-YG-17.png,0.35,1.2,16,0.5,,,,,,,,,,,,,0,51,51,15,1,,,,,,,,,,,,,,,,,,,,,,,,,,,,
,,,,,SRP24_040,18,female,2024-04-11_16h03.42.073,jersey_experiment_5_v0,2023.2.2,Win32,84.74576271,,,,,,,,,,,,,,,,664.4983,665.545,665.5451,666.9686,return,0.484,,57.8125,,,,,,FBP-RB-17.png,0.43,1.2,34,0.25,,,,,,,,,,,,,0,52,52,33,1,,,,,,,,,,,,,,,,,,,,,,,,,,,,
,,,,,SRP24_040,18,female,2024-04-11_16h03.42.073,jersey_experiment_5_v0,2023.2.2,Win32,84.74576271,,,,,,,,,,,,,,,,666.9689,668.0157,668.0157,669.6981,return,1.0407,,57.8125,,,,,,FBP-OG-81.png,0.37,1.2,7,0.25,,,,,,,,,,,,,0,53,53,6,1,,,,,,,,,,,,,,,,,,,,,,,,,,,,
,,,,,SRP24_040,18,female,2024-04-11_16h03.42.073,jersey_experiment_5_v0,2023.2.2,Win32,84.74576271,,,,,,,,,,,,,,,,669.6983,670.9923,670.9923,671.8511,return,0.1176,,39.58333333,,,,,,FBP-PT-17.png,0.35,1.2,46,0.5,,,,,,,,,,,,,0,54,54,45,1,,,,,,,,,,,,,,,,,,,,,,,,,,,,
,,,,,SRP24_040,18,female,2024-04-11_16h03.42.073,jersey_experiment_5_v0,2023.2.2,Win32,84.74576271,,,,,,,,,,,,,,,,671.8513,673.1453,673.1453,674.0395,return,0.1759,,30.98958333,,,,,,FBP-YG-18.png,0.35,1.2,21,0.5,,,,,,,,,,,,,0,55,55,20,1,,,,,,,,,,,,,,,,,,,,,,,,,,,,
,,,,,SRP24_040,18,female,2024-04-11_16h03.42.073,jersey_experiment_5_v0,2023.2.2,Win32,84.74576271,,,,,,,,,,,,,,,,674.0396,675.3335,675.3335,675.8749,return,0.0765,,30.98958333,,,,,,FBP-PT-18.png,0.35,1.2,51,0.5,,,,,,,,,,,,,0,56,56,50,1,,,,,,,,,,,,,,,,,,,,,,,,,,,,
,,,,,SRP24_040,18,female,2024-04-11_16h03.42.073,jersey_experiment_5_v0,2023.2.2,Win32,84.74576271,,,,,,,,,,,,,,,,675.8751,676.922,676.922,677.9454,return,0.0333,,45.703125,,,,,,FBP-OG-71.png,0.37,1.2,2,0.25,,,,,,,,,,,,,0,57,57,1,1,,,,,,,,,,,,,,,,,,,,,,,,,,,,
,,,,,SRP24_040,18,female,2024-04-11_16h03.42.073,jersey_experiment_5_v0,2023.2.2,Win32,84.74576271,,,,,,,,,,,,,,,,677.9456,678.9924,678.9925,679.9692,return,0.0784,,64.97395833,,,,,,FBP-RB-18.png,0.4,1.2,38,0.25,,,,,,,,,,,,,0,58,58,37,1,,,,,,,,,,,,,,,,,,,,,,,,,,,,
,,,,,SRP24_040,18,female,2024-04-11_16h03.42.073,jersey_experiment_5_v0,2023.2.2,Win32,84.74576271,,,,,,,,,,,,,,,,679.9695,681.2632,681.2632,682.2634,return,0.084,,75.78125,,,,,,FBP-YG-19.png,0.4,1.2,28,0.5,,,,,,,,,,,,,0,59,59,27,1,,,,,,,,,,,,,,,,,,,,,,,,,,,,
,,,,,SRP24_040,18,female,2024-04-11_16h03.42.073,jersey_experiment_5_v0,2023.2.2,Win32,84.74576271,,,,,,,,,,,,,,,,682.2647,683.3104,683.3104,684.3927,return,0.0339,,92.83854167,,,,,,FBP-RB-91.png,0.45,1.2,45,0.25,,,,,,,,,,,,,,,,,,0,0,0,44,1,,,,,,,,,,,,,,,,,,,,,,,
,,,,,SRP24_040,18,female,2024-04-11_16h03.42.073,jersey_experiment_5_v0,2023.2.2,Win32,84.74576271,,,,,,,,,,,,,,,,684.393,685.6869,685.6869,687.4398,return,1.3489,,86.19791667,,,,,,FBP-PT-81.png,0.43,1.2,54,0.5,,,,,,,,,,,,,,,,,,0,1,1,53,1,,,,,,,,,,,,,,,,,,,,,,,
,,,,,SRP24_040,18,female,2024-04-11_16h03.42.073,jersey_experiment_5_v0,2023.2.2,Win32,84.74576271,,,,,,,,,,,,,,,,687.44,688.7341,688.7342,689.6636,return,0.1374,,79.296875,,,,,,FBP-YG-71.png,0.4,1.2,18,0.5,,,,,,,,,,,,,,,,,,0,2,2,17,1,,,,,,,,,,,,,,,,,,,,,,,
,,,,,SRP24_040,18,female,2024-04-11_16h03.42.073,jersey_experiment_5_v0,2023.2.2,Win32,84.74576271,,,,,,,,,,,,,,,,689.6638,690.9576,690.9576,691.8283,return,0.1794,,88.28125,,,,,,FBP-YG-91.png,0.45,1.2,30,0.5,,,,,,,,,,,,,,,,,,0,3,3,29,1,,,,,,,,,,,,,,,,,,,,,,,
,,,,,SRP24_040,18,female,2024-04-11_16h03.42.073,jersey_experiment_5_v0,2023.2.2,Win32,84.74576271,,,,,,,,,,,,,,,,691.8285,692.8754,692.8755,693.8638,return,0.1179,,94.79166667,,,,,,FBP-OG-19.png,0.45,1.2,15,0.25,,,,,,,,,,,,,,,,,,0,4,4,14,1,,,,,,,,,,,,,,,,,,,,,,,
,,,,,SRP24_040,18,female,2024-04-11_16h03.42.073,jersey_experiment_5_v0,2023.2.2,Win32,84.74576271,,,,,,,,,,,,,,,,693.864,695.1579,695.1579,696.1461,return,0.1212,,74.609375,,,,,,FBP-YG-91.png,0.4,1.2,28,0.5,,,,,,,,,,,,,,,,,,0,5,5,27,1,,,,,,,,,,,,,,,,,,,,,,,
,,,,,SRP24_040,18,female,2024-04-11_16h03.42.073,jersey_experiment_5_v0,2023.2.2,Win32,84.74576271,,,,,,,,,,,,,,,,696.1463,697.4403,697.4404,698.2169,return,0.3777,,74.609375,,,,,,FBP-PT-91.png,0.43,1.2,59,0.5,,,,,,,,,,,,,,,,,,0,6,6,58,1,,,,,,,,,,,,,,,,,,,,,,,
,,,,,SRP24_040,18,female,2024-04-11_16h03.42.073,jersey_experiment_5_v0,2023.2.2,Win32,84.74576271,,,,,,,,,,,,,,,,698.2171,699.2638,699.2639,700.9345,return,0.1289,,47.13541667,,,,,,FBP-OG-17.png,0.35,1.2,1,0.25,,,,,,,,,,,,,,,,,,0,7,7,0,1,,,,,,,,,,,,,,,,,,,,,,,
,,,,,SRP24_040,18,female,2024-04-11_16h03.42.073,jersey_experiment_5_v0,2023.2.2,Win32,84.74576271,,,,,,,,,,,,,,,,700.9346,702.2287,702.2287,703.2874,return,0.1185,,71.74479167,,,,,,FBP-PT-71.png,0.45,1.2,50,0.5,,,,,,,,,,,,,,,,,,0,8,8,49,1,,,,,,,,,,,,,,,,,,,,,,,
,,,,,SRP24_040,18,female,2024-04-11_16h03.42.073,jersey_experiment_5_v0,2023.2.2,Win32,84.74576271,,,,,,,,,,,,,,,,703.2876,704.5817,704.5817,705.323,return,0.1661,,71.74479167,,,,,,FBP-YG-91.png,0.43,1.2,29,0.5,,,,,,,,,,,,,,,,,,0,9,9,28,1,,,,,,,,,,,,,,,,,,,,,,,
,,,,,SRP24_040,18,female,2024-04-11_16h03.42.073,jersey_experiment_5_v0,2023.2.2,Win32,84.74576271,,,,,,,,,,,,,,,,705.3232,706.6172,706.6172,708.7701,return,0.1574,,54.16666667,,,,,,FBP-PT-91.png,0.4,1.2,58,0.5,,,,,,,,,,,,,,,,,,0,10,10,57,1,,,,,,,,,,,,,,,,,,,,,,,
,,,,,SRP24_040,18,female,2024-04-11_16h03.42.073,jersey_experiment_5_v0,2023.2.2,Win32,84.74576271,,,,,,,,,,,,,,,,708.7703,709.8173,709.8173,711.2996,return,0.1684,,31.51041667,,,,,,FBP-OG-18.png,0.35,1.2,6,0.25,,,,,,,,,,,,,,,,,,0,11,11,5,1,,,,,,,,,,,,,,,,,,,,,,,
,,,,,SRP24_040,18,female,2024-04-11_16h03.42.073,jersey_experiment_5_v0,2023.2.2,Win32,84.74576271,,,,,,,,,,,,,,,,711.2998,712.3465,712.3466,713.8173,return,0.4378,,70.83333333,,,,,,FBP-OG-18.png,0.45,1.2,10,0.25,,,,,,,,,,,,,,,,,,0,12,12,9,1,,,,,,,,,,,,,,,,,,,,,,,
,,,,,SRP24_040,18,female,2024-04-11_16h03.42.073,jersey_experiment_5_v0,2023.2.2,Win32,84.74576271,,,,,,,,,,,,,,,,713.8175,715.1115,715.1116,717.1468,return,0.4239,,28.77604167,,,,,,FBP-YG-91.png,0.35,1.2,26,0.5,,,,,,,,,,,,,,,,,,0,13,13,25,1,,,,,,,,,,,,,,,,,,,,,,,
,,,,,SRP24_040,18,female,2024-04-11_16h03.42.073,jersey_experiment_5_v0,2023.2.2,Win32,84.74576271,,,,,,,,,,,,,,,,717.147,718.1941,718.1941,719.394,return,0.1694,,71.484375,,,,,,FBP-RB-91.png,0.43,1.2,44,0.25,,,,,,,,,,,,,,,,,,0,14,14,43,1,,,,,,,,,,,,,,,,,,,,,,,
,,,,,SRP24_040,18,female,2024-04-11_16h03.42.073,jersey_experiment_5_v0,2023.2.2,Win32,84.74576271,,,,,,,,,,,,,,,,719.3943,720.6882,720.6882,721.7707,return,0.0837,,50,,,,,,FBP-PT-81.png,0.37,1.2,52,0.5,,,,,,,,,,,,,,,,,,0,15,15,51,1,,,,,,,,,,,,,,,,,,,,,,,
,,,,,SRP24_040,18,female,2024-04-11_16h03.42.073,jersey_experiment_5_v0,2023.2.2,Win32,84.74576271,,,,,,,,,,,,,,,,721.7708,722.8177,722.8177,724.1117,return,0.1136,,74.08854167,,,,,,FBP-RB-71.png,0.45,1.2,35,0.25,,,,,,,,,,,,,,,,,,0,16,16,34,1,,,,,,,,,,,,,,,,,,,,,,,
,,,,,SRP24_040,18,female,2024-04-11_16h03.42.073,jersey_experiment_5_v0,2023.2.2,Win32,84.74576271,,,,,,,,,,,,,,,,724.1118,725.159,725.159,731.9592,return,0.8937,,52.86458333,,,,,,FBP-OG-19.png,0.37,1.2,12,0.25,,,,,,,,,,,,,,,,,,0,17,17,11,1,,,,,,,,,,,,,,,,,,,,,,,
,,,,,SRP24_040,18,female,2024-04-11_16h03.42.073,jersey_experiment_5_v0,2023.2.2,Win32,84.74576271,,,,,,,,,,,,,,,,731.9593,733.2534,733.2534,734.6298,return,0.578,,30.20833333,,,,,,FBP-PT-71.png,0.37,1.2,47,0.5,,,,,,,,,,,,,,,,,,0,18,18,46,1,,,,,,,,,,,,,,,,,,,,,,,
,,,,,SRP24_040,18,female,2024-04-11_16h03.42.073,jersey_experiment_5_v0,2023.2.2,Win32,84.74576271,,,,,,,,,,,,,,,,734.63,735.9241,735.9241,737.1712,return,0.5079,,70.703125,,,,,,FBP-YG-71.png,0.45,1.2,20,0.5,,,,,,,,,,,,,,,,,,0,19,19,19,1,,,,,,,,,,,,,,,,,,,,,,,
,,,,,SRP24_040,18,female,2024-04-11_16h03.42.073,jersey_experiment_5_v0,2023.2.2,Win32,84.74576271,,,,,,,,,,,,,,,,737.1713,738.4652,738.4653,739.7948,return,0.4989,,66.40625,,,,,,FBP-YG-81.png,0.4,1.2,23,0.5,,,,,,,,,,,,,,,,,,0,20,20,22,1,,,,,,,,,,,,,,,,,,,,,,,
,,,,,SRP24_040,18,female,2024-04-11_16h03.42.073,jersey_experiment_5_v0,2023.2.2,Win32,84.74576271,,,,,,,,,,,,,,,,739.795,741.0888,741.0889,742.183,return,0.529,,63.671875,,,,,,FBP-PT-71.png,0.4,1.2,48,0.5,,,,,,,,,,,,,,,,,,0,21,21,47,1,,,,,,,,,,,,,,,,,,,,,,,
,,,,,SRP24_040,18,female,2024-04-11_16h03.42.073,jersey_experiment_5_v0,2023.2.2,Win32,84.74576271,,,,,,,,,,,,,,,,742.1831,743.2302,743.2303,744.7948,return,0.6458,,73.95833333,,,,,,FBP-RB-71.png,0.4,1.2,33,0.25,,,,,,,,,,,,,,,,,,0,22,22,32,1,,,,,,,,,,,,,,,,,,,,,,,
,,,,,SRP24_040,18,female,2024-04-11_16h03.42.073,jersey_experiment_5_v0,2023.2.2,Win32,84.74576271,,,,,,,,,,,,,,,,744.7951,745.8419,745.842,747.0185,return,0.5307,,73.30729167,,,,,,FBP-OG-17.png,0.45,1.2,5,0.25,,,,,,,,,,,,,,,,,,0,23,23,4,1,,,,,,,,,,,,,,,,,,,,,,,
,,,,,SRP24_040,18,female,2024-04-11_16h03.42.073,jersey_experiment_5_v0,2023.2.2,Win32,84.74576271,,,,,,,,,,,,,,,,747.0188,748.3127,748.3127,749.4894,return,0.5603,,50.78125,,,,,,FBP-YG-71.png,0.37,1.2,17,0.5,,,,,,,,,,,,,,,,,,0,24,24,16,1,,,,,,,,,,,,,,,,,,,,,,,
,,,,,SRP24_040,18,female,2024-04-11_16h03.42.073,jersey_experiment_5_v0,2023.2.2,Win32,84.74576271,,,,,,,,,,,,,,,,749.4896,750.7834,750.7835,751.9716,return,0.5225,,43.359375,,,,,,FBP-PT-91.png,0.35,1.2,56,0.5,,,,,,,,,,,,,,,,,,0,25,25,55,1,,,,,,,,,,,,,,,,,,,,,,,
,,,,,SRP24_040,18,female,2024-04-11_16h03.42.073,jersey_experiment_5_v0,2023.2.2,Win32,84.74576271,,,,,,,,,,,,,,,,751.9718,753.0187,753.0188,754.4659,return,0.5479,,29.81770833,,,,,,FBP-RB-81.png,0.35,1.2,36,0.25,,,,,,,,,,,,,,,,,,0,26,26,35,1,,,,,,,,,,,,,,,,,,,,,,,
,,,,,SRP24_040,18,female,2024-04-11_16h03.42.073,jersey_experiment_5_v0,2023.2.2,Win32,84.74576271,,,,,,,,,,,,,,,,754.466,755.76,755.76,757.0424,return,0.4885,,51.43229167,,,,,,FBP-YG-91.png,0.37,1.2,27,0.5,,,,,,,,,,,,,,,,,,0,27,27,26,1,,,,,,,,,,,,,,,,,,,,,,,
,,,,,SRP24_040,18,female,2024-04-11_16h03.42.073,jersey_experiment_5_v0,2023.2.2,Win32,84.74576271,,,,,,,,,,,,,,,,757.0426,758.0895,758.0895,759.3954,return,0.5688,,49.86979167,,,,,,FBP-OG-17.png,0.43,1.2,4,0.25,,,,,,,,,,,,,,,,,,0,28,28,3,1,,,,,,,,,,,,,,,,,,,,,,,
,,,,,SRP24_040,18,female,2024-04-11_16h03.42.073,jersey_experiment_5_v0,2023.2.2,Win32,84.74576271,,,,,,,,,,,,,,,,759.3957,760.4424,760.4425,761.5132,return,0.5081,,49.86979167,,,,,,FBP-OG-17.png,0.4,1.2,3,0.25,,,,,,,,,,,,,,,,,,0,29,29,2,1,,,,,,,,,,,,,,,,,,,,,,,
,,,,,SRP24_040,18,female,2024-04-11_16h03.42.073,jersey_experiment_5_v0,2023.2.2,Win32,84.74576271,,,,,,,,,,,,,,,,761.5134,762.8073,762.8073,763.7956,return,0.5109,,49.86979167,,,,,,FBP-PT-91.png,0.37,1.2,57,0.5,,,,,,,,,,,,,,,,,,0,30,30,56,1,,,,,,,,,,,,,,,,,,,,,,,
,,,,,SRP24_040,18,female,2024-04-11_16h03.42.073,jersey_experiment_5_v0,2023.2.2,Win32,84.74576271,,,,,,,,,,,,,,,,763.7959,765.0897,765.0898,766.2309,return,0.6605,,49.86979167,,,,,,FBP-PT-81.png,0.4,1.2,53,0.5,,,,,,,,,,,,,,,,,,0,31,31,52,1,,,,,,,,,,,,,,,,,,,,,,,
,,,,,SRP24_040,18,female,2024-04-11_16h03.42.073,jersey_experiment_5_v0,2023.2.2,Win32,84.74576271,,,,,,,,,,,,,,,,766.2312,767.525,767.5251,770.137,return,0.5648,,45.44270833,,,,,,FBP-PT-71.png,0.35,1.2,46,0.5,,,,,,,,,,,,,,,,,,0,32,32,45,1,,,,,,,,,,,,,,,,,,,,,,,
,,,,,SRP24_040,18,female,2024-04-11_16h03.42.073,jersey_experiment_5_v0,2023.2.2,Win32,84.74576271,,,,,,,,,,,,,,,,770.1372,771.4311,771.4311,772.5489,return,0.496,,47.65625,,,,,,FBP-YG-81.png,0.35,1.2,21,0.5,,,,,,,,,,,,,,,,,,0,33,33,20,1,,,,,,,,,,,,,,,,,,,,,,,
,,,,,SRP24_040,18,female,2024-04-11_16h03.42.073,jersey_experiment_5_v0,2023.2.2,Win32,84.74576271,,,,,,,,,,,,,,,,772.5491,773.8429,773.8429,774.8079,return,0.4844,,47.65625,,,,,,FBP-PT-81.png,0.35,1.2,51,0.5,,,,,,,,,,,,,,,,,,0,34,34,50,1,,,,,,,,,,,,,,,,,,,,,,,
,,,,,SRP24_040,18,female,2024-04-11_16h03.42.073,jersey_experiment_5_v0,2023.2.2,Win32,84.74576271,,,,,,,,,,,,,,,,774.808,775.8548,775.8548,777.4077,return,0.5135,,68.359375,,,,,,FBP-OG-18.png,0.43,1.2,9,0.25,,,,,,,,,,,,,,,,,,0,35,35,8,1,,,,,,,,,,,,,,,,,,,,,,,
,,,,,SRP24_040,18,female,2024-04-11_16h03.42.073,jersey_experiment_5_v0,2023.2.2,Win32,84.74576271,,,,,,,,,,,,,,,,777.4079,778.455,778.4551,779.749,return,0.4859,,52.08333333,,,,,,FBP-OG-17.png,0.37,1.2,2,0.25,,,,,,,,,,,,,,,,,,0,36,36,1,1,,,,,,,,,,,,,,,,,,,,,,,
,,,,,SRP24_040,18,female,2024-04-11_16h03.42.073,jersey_experiment_5_v0,2023.2.2,Win32,84.74576271,,,,,,,,,,,,,,,,779.7493,781.0433,781.0433,782.4551,return,0.5085,,73.046875,,,,,,FBP-YG-81.png,0.43,1.2,24,0.5,,,,,,,,,,,,,,,,,,0,37,37,23,1,,,,,,,,,,,,,,,,,,,,,,,
,,,,,SRP24_040,18,female,2024-04-11_16h03.42.073,jersey_experiment_5_v0,2023.2.2,Win32,84.74576271,,,,,,,,,,,,,,,,782.4552,783.5023,783.5023,788.6788,return,1.0604,,54.55729167,,,,,,FBP-RB-71.png,0.37,1.2,32,0.25,,,,,,,,,,,,,,,,,,0,38,38,31,1,,,,,,,,,,,,,,,,,,,,,,,
,,,,,SRP24_040,18,female,2024-04-11_16h03.42.073,jersey_experiment_5_v0,2023.2.2,Win32,84.74576271,,,,,,,,,,,,,,,,788.679,789.7259,789.726,791.2672,return,0.5464,,72.39583333,,,,,,FBP-OG-19.png,0.4,1.2,13,0.25,,,,,,,,,,,,,,,,,,0,39,39,12,1,,,,,,,,,,,,,,,,,,,,,,,
,,,,,SRP24_040,18,female,2024-04-11_16h03.42.073,jersey_experiment_5_v0,2023.2.2,Win32,84.74576271,,,,,,,,,,,,,,,,791.2673,792.3143,792.3143,793.7613,return,0.548,,49.609375,,,,,,FBP-OG-19.png,0.35,1.2,11,0.25,,,,,,,,,,,,,,,,,,0,40,40,10,1,,,,,,,,,,,,,,,,,,,,,,,
,,,,,SRP24_040,18,female,2024-04-11_16h03.42.073,jersey_experiment_5_v0,2023.2.2,Win32,84.74576271,,,,,,,,,,,,,,,,793.7615,794.8085,794.8086,796.2556,return,0.5264,,44.921875,,,,,,FBP-RB-81.png,0.37,1.2,37,0.25,,,,,,,,,,,,,,,,,,0,41,41,36,1,,,,,,,,,,,,,,,,,,,,,,,
,,,,,SRP24_040,18,female,2024-04-11_16h03.42.073,jersey_experiment_5_v0,2023.2.2,Win32,84.74576271,,,,,,,,,,,,,,,,796.2557,797.3027,797.3027,798.832,return,0.538,,70.44270833,,,,,,FBP-OG-18.png,0.4,1.2,8,0.25,,,,,,,,,,,,,,,,,,0,42,42,7,1,,,,,,,,,,,,,,,,,,,,,,,
,,,,,SRP24_040,18,female,2024-04-11_16h03.42.073,jersey_experiment_5_v0,2023.2.2,Win32,84.74576271,,,,,,,,,,,,,,,,798.8323,799.8792,799.8792,801.5146,return,0.5643,,37.76041667,,,,,,FBP-RB-71.png,0.35,1.2,31,0.25,,,,,,,,,,,,,,,,,,0,43,43,30,1,,,,,,,,,,,,,,,,,,,,,,,
,,,,,SRP24_040,18,female,2024-04-11_16h03.42.073,jersey_experiment_5_v0,2023.2.2,Win32,84.74576271,,,,,,,,,,,,,,,,801.5148,802.8089,802.8089,804.0911,return,0.5174,,73.17708333,,,,,,FBP-YG-71.png,0.43,1.2,19,0.5,,,,,,,,,,,,,,,,,,0,44,44,18,1,,,,,,,,,,,,,,,,,,,,,,,
,,,,,SRP24_040,18,female,2024-04-11_16h03.42.073,jersey_experiment_5_v0,2023.2.2,Win32,84.74576271,,,,,,,,,,,,,,,,804.0912,805.3853,805.3853,806.9148,return,0.5703,,39.97395833,,,,,,FBP-YG-71.png,0.35,1.2,16,0.5,,,,,,,,,,,,,,,,,,0,45,45,15,1,,,,,,,,,,,,,,,,,,,,,,,
,,,,,SRP24_040,18,female,2024-04-11_16h03.42.073,jersey_experiment_5_v0,2023.2.2,Win32,84.74576271,,,,,,,,,,,,,,,,806.9151,807.9618,807.9618,809.5736,return,0.6003,,71.875,,,,,,FBP-OG-19.png,0.43,1.2,14,0.25,,,,,,,,,,,,,,,,,,0,46,46,13,1,,,,,,,,,,,,,,,,,,,,,,,
,,,,,SRP24_040,18,female,2024-04-11_16h03.42.073,jersey_experiment_5_v0,2023.2.2,Win32,84.74576271,,,,,,,,,,,,,,,,809.5738,810.6209,810.6209,811.856,return,0.5263,,71.09375,,,,,,FBP-RB-81.png,0.43,1.2,39,0.25,,,,,,,,,,,,,,,,,,0,47,47,38,1,,,,,,,,,,,,,,,,,,,,,,,
,,,,,SRP24_040,18,female,2024-04-11_16h03.42.073,jersey_experiment_5_v0,2023.2.2,Win32,84.74576271,,,,,,,,,,,,,,,,811.8562,812.9033,812.9033,814.1032,return,0.4944,,71.09375,,,,,,FBP-RB-81.png,0.4,1.2,38,0.25,,,,,,,,,,,,,,,,,,0,48,48,37,1,,,,,,,,,,,,,,,,,,,,,,,
,,,,,SRP24_040,18,female,2024-04-11_16h03.42.073,jersey_experiment_5_v0,2023.2.2,Win32,84.74576271,,,,,,,,,,,,,,,,814.1035,815.1504,815.1504,816.5622,return,0.5238,,49.73958333,,,,,,FBP-RB-91.png,0.37,1.2,42,0.25,,,,,,,,,,,,,,,,,,0,49,49,41,1,,,,,,,,,,,,,,,,,,,,,,,
,,,,,SRP24_040,18,female,2024-04-11_16h03.42.073,jersey_experiment_5_v0,2023.2.2,Win32,84.74576271,,,,,,,,,,,,,,,,816.5624,817.6092,817.6092,818.9153,return,0.5328,,36.71875,,,,,,FBP-RB-91.png,0.35,1.2,41,0.25,,,,,,,,,,,,,,,,,,0,50,50,40,1,,,,,,,,,,,,,,,,,,,,,,,
,,,,,SRP24_040,18,female,2024-04-11_16h03.42.073,jersey_experiment_5_v0,2023.2.2,Win32,84.74576271,,,,,,,,,,,,,,,,818.9155,819.9624,819.9624,821.5035,return,0.4899,,87.36979167,,,,,,FBP-RB-81.png,0.45,1.2,40,0.25,,,,,,,,,,,,,,,,,,0,51,51,39,1,,,,,,,,,,,,,,,,,,,,,,,
,,,,,SRP24_040,18,female,2024-04-11_16h03.42.073,jersey_experiment_5_v0,2023.2.2,Win32,84.74576271,,,,,,,,,,,,,,,,821.5037,822.7977,822.7977,823.833,return,0.4811,,87.5,,,,,,FBP-PT-81.png,0.45,1.2,55,0.5,,,,,,,,,,,,,,,,,,0,52,52,54,1,,,,,,,,,,,,,,,,,,,,,,,
,,,,,SRP24_040,18,female,2024-04-11_16h03.42.073,jersey_experiment_5_v0,2023.2.2,Win32,84.74576271,,,,,,,,,,,,,,,,823.8332,824.8802,824.8802,826.186,return,0.4708,,69.140625,,,,,,FBP-RB-91.png,0.4,1.2,43,0.25,,,,,,,,,,,,,,,,,,0,53,53,42,1,,,,,,,,,,,,,,,,,,,,,,,
,,,,,SRP24_040,18,female,2024-04-11_16h03.42.073,jersey_experiment_5_v0,2023.2.2,Win32,84.74576271,,,,,,,,,,,,,,,,826.1862,827.2332,827.2332,828.5861,return,0.5648,,43.09895833,,,,,,FBP-OG-18.png,0.37,1.2,7,0.25,,,,,,,,,,,,,,,,,,0,54,54,6,1,,,,,,,,,,,,,,,,,,,,,,,
,,,,,SRP24_040,18,female,2024-04-11_16h03.42.073,jersey_experiment_5_v0,2023.2.2,Win32,84.74576271,,,,,,,,,,,,,,,,828.5864,829.8805,829.8805,830.9861,return,0.4578,,75.13020833,,,,,,FBP-PT-91.png,0.45,1.2,60,0.5,,,,,,,,,,,,,,,,,,0,55,55,59,1,,,,,,,,,,,,,,,,,,,,,,,
,,,,,SRP24_040,18,female,2024-04-11_16h03.42.073,jersey_experiment_5_v0,2023.2.2,Win32,84.74576271,,,,,,,,,,,,,,,,830.9862,832.2803,832.2803,833.1863,return,0.5465,,75.13020833,,,,,,FBP-YG-81.png,0.45,1.2,25,0.5,,,,,,,,,,,,,,,,,,0,56,56,24,1,,,,,,,,,,,,,,,,,,,,,,,
,,,,,SRP24_040,18,female,2024-04-11_16h03.42.073,jersey_experiment_5_v0,2023.2.2,Win32,84.74576271,,,,,,,,,,,,,,,,833.1865,834.4805,834.4805,836.1512,return,0.5315,,77.21354167,,,,,,FBP-PT-71.png,0.43,1.2,49,0.5,,,,,,,,,,,,,,,,,,0,57,57,48,1,,,,,,,,,,,,,,,,,,,,,,,
,,,,,SRP24_040,18,female,2024-04-11_16h03.42.073,jersey_experiment_5_v0,2023.2.2,Win32,84.74576271,,,,,,,,,,,,,,,,836.1514,837.1981,837.1982,838.3041,return,0.5359,,77.21354167,,,,,,FBP-RB-71.png,0.43,1.2,34,0.25,,,,,,,,,,,,,,,,,,0,58,58,33,1,,,,,,,,,,,,,,,,,,,,,,,
,,,,,SRP24_040,18,female,2024-04-11_16h03.42.073,jersey_experiment_5_v0,2023.2.2,Win32,84.74576271,,,,,,,,,,,,,,,,838.3042,839.5984,839.5985,840.7747,return,0.5429,,43.75,,,,,,FBP-YG-81.png,0.37,1.2,22,0.5,,,,,,,,,,,,,,,,,,0,59,59,21,1,,,,,,,,,,,,,,,,,,,,,,,
,,,,,SRP24_040,18,female,2024-04-11_16h03.42.073,jersey_experiment_5_v0,2023.2.2,Win32,84.74576271,,,,,,,,,,,,,,,,,,,,,,,,,,,,,,,,,,,,,,,,,,,,,,,,,,,,,,,,840.7751,847.7519,return,6.9646,,,,,,,,,,,,,,,,,,,
,,,,,SRP24_040,18,female,2024-04-11_16h03.42.073,jersey_experiment_5_v0,2023.2.2,Win32,84.74576271,,,,,,,,,,,,,,,,,,,,,,,,,,,,,,,,,,,,,,,,,,,,,,,,,,,,,,,,,,,,,847.7519,853.0812,1,3.7949,return,1.5159,,,,,,,,,,,,
,,,,,SRP24_040,18,female,2024-04-11_16h03.42.073,jersey_experiment_5_v0,2023.2.2,Win32,84.74576271,,,,,,,,,,,,,,,,,,,,,,,,,,,,,,,,,,,,,,,,,,,,,,,,,,,,,,,,,,,,,,,,,,,,853.0813,905.4887,"I recognized that the images repeated themselves throughout the experiment. I also notices that race was involved, and so that might have to do with that the study is about.",right,47.4934,,,,,,
,,,,,SRP24_040,18,female,2024-04-11_16h03.42.073,jersey_experiment_5_v0,2023.2.2,Win32,84.74576271,,,,,,,,,,,,,,,,,,,,,,,,,,,,,,,,,,,,,,,,,,,,,,,,,,,,,,,,,,,,,,,,,,,,,,,,,,905.4887,909.189,return,3.6905,