requirements.started,requirements.stopped,key_resp_3.keys,key_resp_3.rt,key_resp_3.duration,Subject ID,Age,Gender,date,expName,psychopyVersion,OS,frameRate,instructions1.started,instructions1.stopped,key_resp.keys,key_resp.rt,key_resp.duration,example.started,example.stopped,enter_2.keys,enter_2.rt,enter_2.duration,instructions2.started,instructions2.stopped,enter_3.keys,enter_3.rt,enter_3.duration,image.started,image.stopped,slider_2.started,slider_2.stopped,next.keys,next.rt,next.duration,slider.response,trial_block_1.thisRepN,trial_block_1.thisTrialN,trial_block_1.thisN,trial_block_1.thisIndex,trial_block_1.ran,Path,Width,Height,Index,Duration,trial_block_2.thisRepN,trial_block_2.thisTrialN,trial_block_2.thisN,trial_block_2.thisIndex,trial_block_2.ran,rest_break.started,rest_break.stopped,end_break.started,end_break.stopped,key_resp_5.keys,key_resp_5.rt,key_resp_5.duration,trial_block_3.thisRepN,trial_block_3.thisTrialN,trial_block_3.thisN,trial_block_3.thisIndex,trial_block_3.ran,trial_block_4.thisRepN,trial_block_4.thisTrialN,trial_block_4.thisN,trial_block_4.thisIndex,trial_block_4.ran,questions_intro.started,questions_intro.stopped,enter_12.keys,enter_12.rt,enter_12.duration,question2.started,question2.stopped,question_doingbest.response,question_doingbest.rt,enter_15.keys,enter_15.rt,enter_15.duration,pattern.started,pattern.stopped,pattern_2.text,enter_17.keys,enter_17.rt,enter_17.duration,thankyou.started,thankyou.stopped,enter_14.keys,enter_14.rt,enter_14.duration
9.99999E-05,9.7157,return,9.7041,,SRP24_024,19,F,2024-04-09_16h57.21.291,jersey_experiment_5_v0,2023.2.2,Win32,84.74576271,,,,,,,,,,,,,,,,,,,,,,,,,,,,,,,,,,,,,,,,,,,,,,,,,,,,,,,,,,,,,,,,,,,,,,,,,,,,,,
,,,,,SRP24_024,19,F,2024-04-09_16h57.21.291,jersey_experiment_5_v0,2023.2.2,Win32,84.74576271,9.7159,17.2248,return,7.493,,,,,,,,,,,,,,,,,,,,,,,,,,,,,,,,,,,,,,,,,,,,,,,,,,,,,,,,,,,,,,,,,,,,,,,,,,
,,,,,SRP24_024,19,F,2024-04-09_16h57.21.291,jersey_experiment_5_v0,2023.2.2,Win32,84.74576271,,,,,,17.2248,30.1282,return,12.8752,,,,,,,,,,,,,,,,,,,,,,,,,,,,,,,,,,,,,,,,,,,,,,,,,,,,,,,,,,,,,,,,,,,,,
,,,,,SRP24_024,19,F,2024-04-09_16h57.21.291,jersey_experiment_5_v0,2023.2.2,Win32,84.74576271,,,,,,,,,,,30.1282,47.9876,return,17.847,,,,,,,,,,,,,,,,,,,,,,,,,,,,,,,,,,,,,,,,,,,,,,,,,,,,,,,,,,,,,,,,
,,,,,SRP24_024,19,F,2024-04-09_16h57.21.291,jersey_experiment_5_v0,2023.2.2,Win32,84.74576271,,,,,,,,,,,,,,,,47.9948,49.0462,49.0463,71.5059,return,3.5211,,65.75520833,0,0,0,27,1,FBP-YG-19.png,0.4,1.2,28,0.25,,,,,,,,,,,,,,,,,,,,,,,,,,,,,,,,,,,,,,,,,,,,,
,,,,,SRP24_024,19,F,2024-04-09_16h57.21.291,jersey_experiment_5_v0,2023.2.2,Win32,84.74576271,,,,,,,,,,,,,,,,71.5063,72.5529,72.5529,78.3179,return,1.3723,,25.13020833,0,1,1,45,1,FBP-PT-17.png,0.35,1.2,46,0.25,,,,,,,,,,,,,,,,,,,,,,,,,,,,,,,,,,,,,,,,,,,,,
,,,,,SRP24_024,19,F,2024-04-09_16h57.21.291,jersey_experiment_5_v0,2023.2.2,Win32,84.74576271,,,,,,,,,,,,,,,,78.3182,79.3648,79.3649,85.0945,return,2.9038,,74.609375,0,2,2,29,1,FBP-YG-19.png,0.45,1.2,30,0.25,,,,,,,,,,,,,,,,,,,,,,,,,,,,,,,,,,,,,,,,,,,,,
,,,,,SRP24_024,19,F,2024-04-09_16h57.21.291,jersey_experiment_5_v0,2023.2.2,Win32,84.74576271,,,,,,,,,,,,,,,,85.0947,86.1417,86.1417,90.6712,return,1.3705,,74.86979167,0,3,3,51,1,FBP-PT-18.png,0.37,1.2,52,0.25,,,,,,,,,,,,,,,,,,,,,,,,,,,,,,,,,,,,,,,,,,,,,
,,,,,SRP24_024,19,F,2024-04-09_16h57.21.291,jersey_experiment_5_v0,2023.2.2,Win32,84.74576271,,,,,,,,,,,,,,,,90.6714,91.7183,91.7184,98.0127,return,3.4294,,92.31770833,0,4,4,24,1,FBP-YG-18.png,0.45,1.2,25,0.25,,,,,,,,,,,,,,,,,,,,,,,,,,,,,,,,,,,,,,,,,,,,,
,,,,,SRP24_024,19,F,2024-04-09_16h57.21.291,jersey_experiment_5_v0,2023.2.2,Win32,84.74576271,,,,,,,,,,,,,,,,98.0169,99.06,99.0601,108.0483,return,6.0495,,93.22916667,0,5,5,19,1,FBP-YG-17.png,0.45,1.2,20,0.25,,,,,,,,,,,,,,,,,,,,,,,,,,,,,,,,,,,,,,,,,,,,,
,,,,,SRP24_024,19,F,2024-04-09_16h57.21.291,jersey_experiment_5_v0,2023.2.2,Win32,84.74576271,,,,,,,,,,,,,,,,108.0486,109.0953,109.0954,114.2957,return,1.0352,,73.56770833,0,6,6,52,1,FBP-PT-18.png,0.4,1.2,53,0.25,,,,,,,,,,,,,,,,,,,,,,,,,,,,,,,,,,,,,,,,,,,,,
,,,,,SRP24_024,19,F,2024-04-09_16h57.21.291,jersey_experiment_5_v0,2023.2.2,Win32,84.74576271,,,,,,,,,,,,,,,,114.2959,115.3426,115.3427,118.6135,return,0.9408,,93.359375,0,7,7,18,1,FBP-YG-17.png,0.43,1.2,19,0.25,,,,,,,,,,,,,,,,,,,,,,,,,,,,,,,,,,,,,,,,,,,,,
,,,,,SRP24_024,19,F,2024-04-09_16h57.21.291,jersey_experiment_5_v0,2023.2.2,Win32,84.74576271,,,,,,,,,,,,,,,,118.6137,119.9077,119.9077,124.1196,return,1.9209,,19.66145833,0,8,8,0,1,FBP-OG-71.png,0.35,1.2,1,0.5,,,,,,,,,,,,,,,,,,,,,,,,,,,,,,,,,,,,,,,,,,,,,
,,,,,SRP24_024,19,F,2024-04-09_16h57.21.291,jersey_experiment_5_v0,2023.2.2,Win32,84.74576271,,,,,,,,,,,,,,,,124.1199,125.4137,125.4138,128.0845,return,0.989,,99.609375,0,9,9,33,1,FBP-RB-17.png,0.43,1.2,34,0.5,,,,,,,,,,,,,,,,,,,,,,,,,,,,,,,,,,,,,,,,,,,,,
,,,,,SRP24_024,19,F,2024-04-09_16h57.21.291,jersey_experiment_5_v0,2023.2.2,Win32,84.74576271,,,,,,,,,,,,,,,,128.0847,129.1313,129.1314,134.261,return,3.0825,,87.5,0,10,10,25,1,FBP-YG-19.png,0.35,1.2,26,0.25,,,,,,,,,,,,,,,,,,,,,,,,,,,,,,,,,,,,,,,,,,,,,
,,,,,SRP24_024,19,F,2024-04-09_16h57.21.291,jersey_experiment_5_v0,2023.2.2,Win32,84.74576271,,,,,,,,,,,,,,,,134.2612,135.3082,135.3082,141.1672,return,1.9678,,95.18229167,0,11,11,59,1,FBP-PT-19.png,0.45,1.2,60,0.25,,,,,,,,,,,,,,,,,,,,,,,,,,,,,,,,,,,,,,,,,,,,,
,,,,,SRP24_024,19,F,2024-04-09_16h57.21.291,jersey_experiment_5_v0,2023.2.2,Win32,84.74576271,,,,,,,,,,,,,,,,141.1675,142.4614,142.4615,146.4381,return,1.5161,,93.88020833,0,12,12,8,1,FBP-OG-81.png,0.43,1.2,9,0.5,,,,,,,,,,,,,,,,,,,,,,,,,,,,,,,,,,,,,,,,,,,,,
,,,,,SRP24_024,19,F,2024-04-09_16h57.21.291,jersey_experiment_5_v0,2023.2.2,Win32,84.74576271,,,,,,,,,,,,,,,,146.4383,147.7321,147.7322,152.2383,return,2.6164,,24.86979167,0,13,13,5,1,FBP-OG-81.png,0.35,1.2,6,0.5,,,,,,,,,,,,,,,,,,,,,,,,,,,,,,,,,,,,,,,,,,,,,
,,,,,SRP24_024,19,F,2024-04-09_16h57.21.291,jersey_experiment_5_v0,2023.2.2,Win32,84.74576271,,,,,,,,,,,,,,,,152.2425,153.544,153.544,161.4151,return,2.4375,,25.78125,0,14,14,41,1,FBP-RB-19.png,0.37,1.2,42,0.5,,,,,,,,,,,,,,,,,,,,,,,,,,,,,,,,,,,,,,,,,,,,,
,,,,,SRP24_024,19,F,2024-04-09_16h57.21.291,jersey_experiment_5_v0,2023.2.2,Win32,84.74576271,,,,,,,,,,,,,,,,161.4153,162.7093,162.7093,168.733,return,1.5583,,25.13020833,0,15,15,11,1,FBP-OG-91.png,0.37,1.2,12,0.5,,,,,,,,,,,,,,,,,,,,,,,,,,,,,,,,,,,,,,,,,,,,,
,,,,,SRP24_024,19,F,2024-04-09_16h57.21.291,jersey_experiment_5_v0,2023.2.2,Win32,84.74576271,,,,,,,,,,,,,,,,168.7333,169.78,169.78,184.4629,return,10.9811,,59.375,0,16,16,22,1,FBP-YG-18.png,0.4,1.2,23,0.25,,,,,,,,,,,,,,,,,,,,,,,,,,,,,,,,,,,,,,,,,,,,,
,,,,,SRP24_024,19,F,2024-04-09_16h57.21.291,jersey_experiment_5_v0,2023.2.2,Win32,84.74576271,,,,,,,,,,,,,,,,184.4631,185.7571,185.7571,193.4281,return,5.4603,,49.08854167,0,17,17,2,1,FBP-OG-71.png,0.4,1.2,3,0.5,,,,,,,,,,,,,,,,,,,,,,,,,,,,,,,,,,,,,,,,,,,,,
,,,,,SRP24_024,19,F,2024-04-09_16h57.21.291,jersey_experiment_5_v0,2023.2.2,Win32,84.74576271,,,,,,,,,,,,,,,,193.4283,194.4751,194.4751,197.4752,return,0.7416,,74.86979167,0,18,18,53,1,FBP-PT-18.png,0.43,1.2,54,0.25,,,,,,,,,,,,,,,,,,,,,,,,,,,,,,,,,,,,,,,,,,,,,
,,,,,SRP24_024,19,F,2024-04-09_16h57.21.291,jersey_experiment_5_v0,2023.2.2,Win32,84.74576271,,,,,,,,,,,,,,,,197.4754,198.7693,198.7693,207.4403,return,2.4264,,65.49479167,0,19,19,12,1,FBP-OG-91.png,0.4,1.2,13,0.5,,,,,,,,,,,,,,,,,,,,,,,,,,,,,,,,,,,,,,,,,,,,,
,,,,,SRP24_024,19,F,2024-04-09_16h57.21.291,jersey_experiment_5_v0,2023.2.2,Win32,84.74576271,,,,,,,,,,,,,,,,207.4405,208.7345,208.7346,211.1228,return,0.7793,,25,0,20,20,30,1,FBP-RB-17.png,0.35,1.2,31,0.5,,,,,,,,,,,,,,,,,,,,,,,,,,,,,,,,,,,,,,,,,,,,,
,,,,,SRP24_024,19,F,2024-04-09_16h57.21.291,jersey_experiment_5_v0,2023.2.2,Win32,84.74576271,,,,,,,,,,,,,,,,211.123,212.417,212.417,217.9585,return,1.765,,27.47395833,0,21,21,42,1,FBP-RB-19.png,0.4,1.2,43,0.5,,,,,,,,,,,,,,,,,,,,,,,,,,,,,,,,,,,,,,,,,,,,,
,,,,,SRP24_024,19,F,2024-04-09_16h57.21.291,jersey_experiment_5_v0,2023.2.2,Win32,84.74576271,,,,,,,,,,,,,,,,217.9587,219.2525,219.2525,221.8761,return,0.7309,,59.11458333,0,22,22,37,1,FBP-RB-18.png,0.4,1.2,38,0.5,,,,,,,,,,,,,,,,,,,,,,,,,,,,,,,,,,,,,,,,,,,,,
,,,,,SRP24_024,19,F,2024-04-09_16h57.21.291,jersey_experiment_5_v0,2023.2.2,Win32,84.74576271,,,,,,,,,,,,,,,,221.8764,223.1704,223.1704,226.8763,return,1.268,,76.953125,0,23,23,44,1,FBP-RB-19.png,0.45,1.2,45,0.5,,,,,,,,,,,,,,,,,,,,,,,,,,,,,,,,,,,,,,,,,,,,,
,,,,,SRP24_024,19,F,2024-04-09_16h57.21.291,jersey_experiment_5_v0,2023.2.2,Win32,84.74576271,,,,,,,,,,,,,,,,226.8765,227.9235,227.9235,233.1591,return,2.8236,,50.52083333,0,24,24,21,1,FBP-YG-18.png,0.37,1.2,22,0.25,,,,,,,,,,,,,,,,,,,,,,,,,,,,,,,,,,,,,,,,,,,,,
,,,,,SRP24_024,19,F,2024-04-09_16h57.21.291,jersey_experiment_5_v0,2023.2.2,Win32,84.74576271,,,,,,,,,,,,,,,,233.1594,234.4531,234.4531,237.1237,return,0.8347,,17.05729167,0,25,25,35,1,FBP-RB-18.png,0.35,1.2,36,0.5,,,,,,,,,,,,,,,,,,,,,,,,,,,,,,,,,,,,,,,,,,,,,
,,,,,SRP24_024,19,F,2024-04-09_16h57.21.291,jersey_experiment_5_v0,2023.2.2,Win32,84.74576271,,,,,,,,,,,,,,,,237.1239,238.4179,238.4179,243.2181,return,3.3206,,24.86979167,0,26,26,40,1,FBP-RB-19.png,0.35,1.2,41,0.5,,,,,,,,,,,,,,,,,,,,,,,,,,,,,,,,,,,,,,,,,,,,,
,,,,,SRP24_024,19,F,2024-04-09_16h57.21.291,jersey_experiment_5_v0,2023.2.2,Win32,84.74576271,,,,,,,,,,,,,,,,243.2184,244.5123,244.5124,248.4771,return,2.3366,,49.08854167,0,27,27,36,1,FBP-RB-18.png,0.37,1.2,37,0.5,,,,,,,,,,,,,,,,,,,,,,,,,,,,,,,,,,,,,,,,,,,,,
,,,,,SRP24_024,19,F,2024-04-09_16h57.21.291,jersey_experiment_5_v0,2023.2.2,Win32,84.74576271,,,,,,,,,,,,,,,,248.4774,249.5242,249.5243,266.6426,return,15.5315,,62.36979167,0,28,28,16,1,FBP-YG-17.png,0.37,1.2,17,0.25,,,,,,,,,,,,,,,,,,,,,,,,,,,,,,,,,,,,,,,,,,,,,
,,,,,SRP24_024,19,F,2024-04-09_16h57.21.291,jersey_experiment_5_v0,2023.2.2,Win32,84.74576271,,,,,,,,,,,,,,,,266.6472,267.6895,267.6895,270.9251,return,1.1128,,89.58333333,0,29,29,49,1,FBP-PT-17.png,0.45,1.2,50,0.25,,,,,,,,,,,,,,,,,,,,,,,,,,,,,,,,,,,,,,,,,,,,,
,,,,,SRP24_024,19,F,2024-04-09_16h57.21.291,jersey_experiment_5_v0,2023.2.2,Win32,84.74576271,,,,,,,,,,,,,,,,270.9253,271.9721,271.9722,275.0547,return,1.7954,,92.96875,0,30,30,58,1,FBP-PT-19.png,0.43,1.2,59,0.25,,,,,,,,,,,,,,,,,,,,,,,,,,,,,,,,,,,,,,,,,,,,,
,,,,,SRP24_024,19,F,2024-04-09_16h57.21.291,jersey_experiment_5_v0,2023.2.2,Win32,84.74576271,,,,,,,,,,,,,,,,275.0548,276.3488,276.3489,278.8665,return,1.2969,,94.140625,0,31,31,14,1,FBP-OG-91.png,0.45,1.2,15,0.5,,,,,,,,,,,,,,,,,,,,,,,,,,,,,,,,,,,,,,,,,,,,,
,,,,,SRP24_024,19,F,2024-04-09_16h57.21.291,jersey_experiment_5_v0,2023.2.2,Win32,84.74576271,,,,,,,,,,,,,,,,278.8668,279.9137,279.9137,286.8198,return,4.5295,,50.13020833,0,32,32,55,1,FBP-PT-19.png,0.35,1.2,56,0.25,,,,,,,,,,,,,,,,,,,,,,,,,,,,,,,,,,,,,,,,,,,,,
,,,,,SRP24_024,19,F,2024-04-09_16h57.21.291,jersey_experiment_5_v0,2023.2.2,Win32,84.74576271,,,,,,,,,,,,,,,,286.8201,287.8669,287.867,290.9495,return,1.0496,,54.296875,0,33,33,47,1,FBP-PT-17.png,0.4,1.2,48,0.25,,,,,,,,,,,,,,,,,,,,,,,,,,,,,,,,,,,,,,,,,,,,,
,,,,,SRP24_024,19,F,2024-04-09_16h57.21.291,jersey_experiment_5_v0,2023.2.2,Win32,84.74576271,,,,,,,,,,,,,,,,290.9498,292.2435,292.2436,297.432,return,2.5178,,51.43229167,0,34,34,7,1,FBP-OG-81.png,0.4,1.2,8,0.5,,,,,,,,,,,,,,,,,,,,,,,,,,,,,,,,,,,,,,,,,,,,,
,,,,,SRP24_024,19,F,2024-04-09_16h57.21.291,jersey_experiment_5_v0,2023.2.2,Win32,84.74576271,,,,,,,,,,,,,,,,297.4322,298.4791,298.4791,303.4557,return,2.8056,,73.95833333,0,35,35,17,1,FBP-YG-17.png,0.4,1.2,18,0.25,,,,,,,,,,,,,,,,,,,,,,,,,,,,,,,,,,,,,,,,,,,,,
,,,,,SRP24_024,19,F,2024-04-09_16h57.21.291,jersey_experiment_5_v0,2023.2.2,Win32,84.74576271,,,,,,,,,,,,,,,,303.4602,304.7616,304.7616,307.3618,return,0.7663,,91.015625,0,36,36,34,1,FBP-RB-17.png,0.45,1.2,35,0.5,,,,,,,,,,,,,,,,,,,,,,,,,,,,,,,,,,,,,,,,,,,,,
,,,,,SRP24_024,19,F,2024-04-09_16h57.21.291,jersey_experiment_5_v0,2023.2.2,Win32,84.74576271,,,,,,,,,,,,,,,,307.362,308.4089,308.4089,315.009,return,1.3798,,29.42708333,0,37,37,20,1,FBP-YG-18.png,0.35,1.2,21,0.25,,,,,,,,,,,,,,,,,,,,,,,,,,,,,,,,,,,,,,,,,,,,,
,,,,,SRP24_024,19,F,2024-04-09_16h57.21.291,jersey_experiment_5_v0,2023.2.2,Win32,84.74576271,,,,,,,,,,,,,,,,315.0092,316.3032,316.3032,320.0445,return,2.5367,,28.77604167,0,38,38,1,1,FBP-OG-71.png,0.37,1.2,2,0.5,,,,,,,,,,,,,,,,,,,,,,,,,,,,,,,,,,,,,,,,,,,,,
,,,,,SRP24_024,19,F,2024-04-09_16h57.21.291,jersey_experiment_5_v0,2023.2.2,Win32,84.74576271,,,,,,,,,,,,,,,,320.0446,321.0918,321.0919,323.4212,return,0.9712,,20.05208333,0,39,39,50,1,FBP-PT-18.png,0.35,1.2,51,0.25,,,,,,,,,,,,,,,,,,,,,,,,,,,,,,,,,,,,,,,,,,,,,
,,,,,SRP24_024,19,F,2024-04-09_16h57.21.291,jersey_experiment_5_v0,2023.2.2,Win32,84.74576271,,,,,,,,,,,,,,,,323.4215,324.4683,324.4684,326.645,return,0.6589,,23.69791667,0,40,40,15,1,FBP-YG-17.png,0.35,1.2,16,0.25,,,,,,,,,,,,,,,,,,,,,,,,,,,,,,,,,,,,,,,,,,,,,
,,,,,SRP24_024,19,F,2024-04-09_16h57.21.291,jersey_experiment_5_v0,2023.2.2,Win32,84.74576271,,,,,,,,,,,,,,,,326.6452,327.6919,327.6919,330.598,return,0.9551,,74.73958333,0,41,41,57,1,FBP-PT-19.png,0.4,1.2,58,0.25,,,,,,,,,,,,,,,,,,,,,,,,,,,,,,,,,,,,,,,,,,,,,
,,,,,SRP24_024,19,F,2024-04-09_16h57.21.291,jersey_experiment_5_v0,2023.2.2,Win32,84.74576271,,,,,,,,,,,,,,,,330.5982,331.645,331.645,333.8216,return,0.7353,,88.02083333,0,42,42,28,1,FBP-YG-19.png,0.43,1.2,29,0.25,,,,,,,,,,,,,,,,,,,,,,,,,,,,,,,,,,,,,,,,,,,,,
,,,,,SRP24_024,19,F,2024-04-09_16h57.21.291,jersey_experiment_5_v0,2023.2.2,Win32,84.74576271,,,,,,,,,,,,,,,,333.8219,335.1158,335.1158,338.2454,return,0.7673,,90.49479167,0,43,43,39,1,FBP-RB-18.png,0.45,1.2,40,0.5,,,,,,,,,,,,,,,,,,,,,,,,,,,,,,,,,,,,,,,,,,,,,
,,,,,SRP24_024,19,F,2024-04-09_16h57.21.291,jersey_experiment_5_v0,2023.2.2,Win32,84.74576271,,,,,,,,,,,,,,,,338.2456,339.5394,339.5394,341.4219,return,0.9467,,92.70833333,0,44,44,3,1,FBP-OG-71.png,0.43,1.2,4,0.5,,,,,,,,,,,,,,,,,,,,,,,,,,,,,,,,,,,,,,,,,,,,,
,,,,,SRP24_024,19,F,2024-04-09_16h57.21.291,jersey_experiment_5_v0,2023.2.2,Win32,84.74576271,,,,,,,,,,,,,,,,341.4222,342.4689,342.469,348.7045,return,4.3682,,60.02604167,0,45,45,56,1,FBP-PT-19.png,0.37,1.2,57,0.25,,,,,,,,,,,,,,,,,,,,,,,,,,,,,,,,,,,,,,,,,,,,,
,,,,,SRP24_024,19,F,2024-04-09_16h57.21.291,jersey_experiment_5_v0,2023.2.2,Win32,84.74576271,,,,,,,,,,,,,,,,348.7087,350.0104,350.0104,351.9988,return,0.6184,,58.984375,0,46,46,32,1,FBP-RB-17.png,0.4,1.2,33,0.5,,,,,,,,,,,,,,,,,,,,,,,,,,,,,,,,,,,,,,,,,,,,,
,,,,,SRP24_024,19,F,2024-04-09_16h57.21.291,jersey_experiment_5_v0,2023.2.2,Win32,84.74576271,,,,,,,,,,,,,,,,351.9991,353.2929,353.2929,355.3284,return,0.6857,,74.47916667,0,47,47,9,1,FBP-OG-81.png,0.45,1.2,10,0.5,,,,,,,,,,,,,,,,,,,,,,,,,,,,,,,,,,,,,,,,,,,,,
,,,,,SRP24_024,19,F,2024-04-09_16h57.21.291,jersey_experiment_5_v0,2023.2.2,Win32,84.74576271,,,,,,,,,,,,,,,,355.3286,356.6224,356.6224,359.0697,return,0.6077,,38.28125,0,48,48,10,1,FBP-OG-91.png,0.35,1.2,11,0.5,,,,,,,,,,,,,,,,,,,,,,,,,,,,,,,,,,,,,,,,,,,,,
,,,,,SRP24_024,19,F,2024-04-09_16h57.21.291,jersey_experiment_5_v0,2023.2.2,Win32,84.74576271,,,,,,,,,,,,,,,,359.0699,360.1167,360.1167,362.1992,return,0.8846,,40.234375,0,49,49,46,1,FBP-PT-17.png,0.37,1.2,47,0.25,,,,,,,,,,,,,,,,,,,,,,,,,,,,,,,,,,,,,,,,,,,,,
,,,,,SRP24_024,19,F,2024-04-09_16h57.21.291,jersey_experiment_5_v0,2023.2.2,Win32,84.74576271,,,,,,,,,,,,,,,,362.1994,363.4933,363.4933,367.2228,return,1.7412,,71.484375,0,50,50,43,1,FBP-RB-19.png,0.43,1.2,44,0.5,,,,,,,,,,,,,,,,,,,,,,,,,,,,,,,,,,,,,,,,,,,,,
,,,,,SRP24_024,19,F,2024-04-09_16h57.21.291,jersey_experiment_5_v0,2023.2.2,Win32,84.74576271,,,,,,,,,,,,,,,,367.223,368.5169,368.5169,370.3759,return,0.5883,,86.45833333,0,51,51,4,1,FBP-OG-71.png,0.45,1.2,5,0.5,,,,,,,,,,,,,,,,,,,,,,,,,,,,,,,,,,,,,,,,,,,,,
,,,,,SRP24_024,19,F,2024-04-09_16h57.21.291,jersey_experiment_5_v0,2023.2.2,Win32,84.74576271,,,,,,,,,,,,,,,,370.3761,371.6699,371.67,378.7761,return,5.5864,,36.97916667,0,52,52,31,1,FBP-RB-17.png,0.37,1.2,32,0.5,,,,,,,,,,,,,,,,,,,,,,,,,,,,,,,,,,,,,,,,,,,,,
,,,,,SRP24_024,19,F,2024-04-09_16h57.21.291,jersey_experiment_5_v0,2023.2.2,Win32,84.74576271,,,,,,,,,,,,,,,,378.7806,379.8233,379.8233,382.5176,return,0.7395,,74.73958333,0,53,53,48,1,FBP-PT-17.png,0.43,1.2,49,0.25,,,,,,,,,,,,,,,,,,,,,,,,,,,,,,,,,,,,,,,,,,,,,
,,,,,SRP24_024,19,F,2024-04-09_16h57.21.291,jersey_experiment_5_v0,2023.2.2,Win32,84.74576271,,,,,,,,,,,,,,,,382.5178,383.5647,383.5648,386.047,return,1.4652,,74.08854167,0,54,54,54,1,FBP-PT-18.png,0.45,1.2,55,0.25,,,,,,,,,,,,,,,,,,,,,,,,,,,,,,,,,,,,,,,,,,,,,
,,,,,SRP24_024,19,F,2024-04-09_16h57.21.291,jersey_experiment_5_v0,2023.2.2,Win32,84.74576271,,,,,,,,,,,,,,,,386.0473,387.3412,387.3412,389.1178,return,0.8989,,72.52604167,0,55,55,13,1,FBP-OG-91.png,0.43,1.2,14,0.5,,,,,,,,,,,,,,,,,,,,,,,,,,,,,,,,,,,,,,,,,,,,,
,,,,,SRP24_024,19,F,2024-04-09_16h57.21.291,jersey_experiment_5_v0,2023.2.2,Win32,84.74576271,,,,,,,,,,,,,,,,389.1181,390.1647,390.1648,396.9416,return,0.7846,,49.86979167,0,56,56,26,1,FBP-YG-19.png,0.37,1.2,27,0.25,,,,,,,,,,,,,,,,,,,,,,,,,,,,,,,,,,,,,,,,,,,,,
,,,,,SRP24_024,19,F,2024-04-09_16h57.21.291,jersey_experiment_5_v0,2023.2.2,Win32,84.74576271,,,,,,,,,,,,,,,,396.9419,398.2356,398.2357,404.7067,return,4.7326,,64.453125,0,57,57,38,1,FBP-RB-18.png,0.43,1.2,39,0.5,,,,,,,,,,,,,,,,,,,,,,,,,,,,,,,,,,,,,,,,,,,,,
,,,,,SRP24_024,19,F,2024-04-09_16h57.21.291,jersey_experiment_5_v0,2023.2.2,Win32,84.74576271,,,,,,,,,,,,,,,,404.7069,406.001,406.0011,409.3774,return,0.7319,,36.328125,0,58,58,6,1,FBP-OG-81.png,0.37,1.2,7,0.5,,,,,,,,,,,,,,,,,,,,,,,,,,,,,,,,,,,,,,,,,,,,,
,,,,,SRP24_024,19,F,2024-04-09_16h57.21.291,jersey_experiment_5_v0,2023.2.2,Win32,84.74576271,,,,,,,,,,,,,,,,409.3775,410.4244,410.4245,416.8482,return,4.5322,,68.88020833,0,59,59,23,1,FBP-YG-18.png,0.43,1.2,24,0.25,,,,,,,,,,,,,,,,,,,,,,,,,,,,,,,,,,,,,,,,,,,,,
,,,,,SRP24_024,19,F,2024-04-09_16h57.21.291,jersey_experiment_5_v0,2023.2.2,Win32,84.74576271,,,,,,,,,,,,,,,,416.8503,417.8953,417.8953,421.2483,return,1.9207,,51.04166667,,,,,,FBP-YG-71.png,0.37,1.2,17,0.25,0,0,0,16,1,,,,,,,,,,,,,,,,,,,,,,,,,,,,,,,,,,,,,,,,
,,,,,SRP24_024,19,F,2024-04-09_16h57.21.291,jersey_experiment_5_v0,2023.2.2,Win32,84.74576271,,,,,,,,,,,,,,,,421.2486,422.5425,422.5426,424.2722,return,0.535,,74.34895833,,,,,,FBP-OG-19.png,0.45,1.2,15,0.5,0,1,1,14,1,,,,,,,,,,,,,,,,,,,,,,,,,,,,,,,,,,,,,,,,
,,,,,SRP24_024,19,F,2024-04-09_16h57.21.291,jersey_experiment_5_v0,2023.2.2,Win32,84.74576271,,,,,,,,,,,,,,,,424.2724,425.3193,425.3193,427.0604,return,0.6835,,74.08854167,,,,,,FBP-YG-91.png,0.45,1.2,30,0.25,0,2,2,29,1,,,,,,,,,,,,,,,,,,,,,,,,,,,,,,,,,,,,,,,,
,,,,,SRP24_024,19,F,2024-04-09_16h57.21.291,jersey_experiment_5_v0,2023.2.2,Win32,84.74576271,,,,,,,,,,,,,,,,427.0606,428.3545,428.3545,430.9664,return,1.1394,,93.22916667,,,,,,FBP-RB-91.png,0.45,1.2,45,0.5,0,3,3,44,1,,,,,,,,,,,,,,,,,,,,,,,,,,,,,,,,,,,,,,,,
,,,,,SRP24_024,19,F,2024-04-09_16h57.21.291,jersey_experiment_5_v0,2023.2.2,Win32,84.74576271,,,,,,,,,,,,,,,,430.9667,432.2605,432.2605,434.1194,return,0.9035,,93.09895833,,,,,,FBP-RB-71.png,0.4,1.2,33,0.5,0,4,4,32,1,,,,,,,,,,,,,,,,,,,,,,,,,,,,,,,,,,,,,,,,
,,,,,SRP24_024,19,F,2024-04-09_16h57.21.291,jersey_experiment_5_v0,2023.2.2,Win32,84.74576271,,,,,,,,,,,,,,,,434.1196,435.1666,435.1666,437.343,return,0.6041,,75,,,,,,FBP-PT-71.png,0.43,1.2,49,0.25,0,5,5,48,1,,,,,,,,,,,,,,,,,,,,,,,,,,,,,,,,,,,,,,,,
,,,,,SRP24_024,19,F,2024-04-09_16h57.21.291,jersey_experiment_5_v0,2023.2.2,Win32,84.74576271,,,,,,,,,,,,,,,,437.3433,438.6372,438.6373,441.7787,return,1.5774,,20.05208333,,,,,,FBP-OG-18.png,0.35,1.2,6,0.5,0,6,6,5,1,,,,,,,,,,,,,,,,,,,,,,,,,,,,,,,,,,,,,,,,
,,,,,SRP24_024,19,F,2024-04-09_16h57.21.291,jersey_experiment_5_v0,2023.2.2,Win32,84.74576271,,,,,,,,,,,,,,,,441.7789,442.8257,442.8257,445.6848,return,1.506,,73.69791667,,,,,,FBP-PT-71.png,0.4,1.2,48,0.25,0,7,7,47,1,,,,,,,,,,,,,,,,,,,,,,,,,,,,,,,,,,,,,,,,
,,,,,SRP24_024,19,F,2024-04-09_16h57.21.291,jersey_experiment_5_v0,2023.2.2,Win32,84.74576271,,,,,,,,,,,,,,,,445.6851,446.7317,446.7318,448.3201,return,0.5821,,89.453125,,,,,,FBP-PT-81.png,0.43,1.2,54,0.25,0,8,8,53,1,,,,,,,,,,,,,,,,,,,,,,,,,,,,,,,,,,,,,,,,
,,,,,SRP24_024,19,F,2024-04-09_16h57.21.291,jersey_experiment_5_v0,2023.2.2,Win32,84.74576271,,,,,,,,,,,,,,,,448.3204,449.367,449.3671,450.7083,return,0.566,,88.15104167,,,,,,FBP-YG-81.png,0.4,1.2,23,0.25,0,9,9,22,1,,,,,,,,,,,,,,,,,,,,,,,,,,,,,,,,,,,,,,,,
,,,,,SRP24_024,19,F,2024-04-09_16h57.21.291,jersey_experiment_5_v0,2023.2.2,Win32,84.74576271,,,,,,,,,,,,,,,,450.7086,451.7555,451.7556,454.6731,return,0.463,,58.59375,,,,,,FBP-PT-81.png,0.35,1.2,51,0.25,0,10,10,50,1,,,,,,,,,,,,,,,,,,,,,,,,,,,,,,,,,,,,,,,,
,,,,,SRP24_024,19,F,2024-04-09_16h57.21.291,jersey_experiment_5_v0,2023.2.2,Win32,84.74576271,,,,,,,,,,,,,,,,454.6733,455.7202,455.7203,457.8851,return,1.0204,,69.79166667,,,,,,FBP-YG-91.png,0.4,1.2,28,0.25,0,11,11,27,1,,,,,,,,,,,,,,,,,,,,,,,,,,,,,,,,,,,,,,,,
,,,,,SRP24_024,19,F,2024-04-09_16h57.21.291,jersey_experiment_5_v0,2023.2.2,Win32,84.74576271,,,,,,,,,,,,,,,,457.8853,459.1792,459.1792,461.2617,return,1.196,,83.33333333,,,,,,FBP-OG-19.png,0.43,1.2,14,0.5,0,12,12,13,1,,,,,,,,,,,,,,,,,,,,,,,,,,,,,,,,,,,,,,,,
,,,,,SRP24_024,19,F,2024-04-09_16h57.21.291,jersey_experiment_5_v0,2023.2.2,Win32,84.74576271,,,,,,,,,,,,,,,,461.262,462.5558,462.556,468.2738,return,4.1569,,64.19270833,,,,,,FBP-OG-18.png,0.37,1.2,7,0.5,0,13,13,6,1,,,,,,,,,,,,,,,,,,,,,,,,,,,,,,,,,,,,,,,,
,,,,,SRP24_024,19,F,2024-04-09_16h57.21.291,jersey_experiment_5_v0,2023.2.2,Win32,84.74576271,,,,,,,,,,,,,,,,468.2741,469.5679,469.5679,472.2857,return,1.4295,,41.40625,,,,,,FBP-OG-19.png,0.35,1.2,11,0.5,0,14,14,10,1,,,,,,,,,,,,,,,,,,,,,,,,,,,,,,,,,,,,,,,,
,,,,,SRP24_024,19,F,2024-04-09_16h57.21.291,jersey_experiment_5_v0,2023.2.2,Win32,84.74576271,,,,,,,,,,,,,,,,472.2859,473.3327,473.3327,474.5915,return,0.312,,39.453125,,,,,,FBP-PT-91.png,0.37,1.2,57,0.25,0,15,15,56,1,,,,,,,,,,,,,,,,,,,,,,,,,,,,,,,,,,,,,,,,
,,,,,SRP24_024,19,F,2024-04-09_16h57.21.291,jersey_experiment_5_v0,2023.2.2,Win32,84.74576271,,,,,,,,,,,,,,,,474.5917,475.8857,475.8858,485.8156,return,7.657,,76.69270833,,,,,,FBP-RB-91.png,0.43,1.2,44,0.5,0,16,16,43,1,,,,,,,,,,,,,,,,,,,,,,,,,,,,,,,,,,,,,,,,
,,,,,SRP24_024,19,F,2024-04-09_16h57.21.291,jersey_experiment_5_v0,2023.2.2,Win32,84.74576271,,,,,,,,,,,,,,,,485.8158,487.1096,487.1097,490.4628,return,0.6771,,83.85416667,,,,,,FBP-OG-17.png,0.4,1.2,3,0.5,0,17,17,2,1,,,,,,,,,,,,,,,,,,,,,,,,,,,,,,,,,,,,,,,,
,,,,,SRP24_024,19,F,2024-04-09_16h57.21.291,jersey_experiment_5_v0,2023.2.2,Win32,84.74576271,,,,,,,,,,,,,,,,490.463,491.5098,491.5098,494.3689,return,0.4258,,80.33854167,,,,,,FBP-PT-81.png,0.4,1.2,53,0.25,0,18,18,52,1,,,,,,,,,,,,,,,,,,,,,,,,,,,,,,,,,,,,,,,,
,,,,,SRP24_024,19,F,2024-04-09_16h57.21.291,jersey_experiment_5_v0,2023.2.2,Win32,84.74576271,,,,,,,,,,,,,,,,494.3692,495.6631,495.6631,497.4279,return,0.5314,,72.65625,,,,,,FBP-RB-71.png,0.37,1.2,32,0.5,0,19,19,31,1,,,,,,,,,,,,,,,,,,,,,,,,,,,,,,,,,,,,,,,,
,,,,,SRP24_024,19,F,2024-04-09_16h57.21.291,jersey_experiment_5_v0,2023.2.2,Win32,84.74576271,,,,,,,,,,,,,,,,497.4282,498.7218,498.722,500.4398,return,0.4707,,88.28125,,,,,,FBP-RB-91.png,0.35,1.2,41,0.5,0,20,20,40,1,,,,,,,,,,,,,,,,,,,,,,,,,,,,,,,,,,,,,,,,
,,,,,SRP24_024,19,F,2024-04-09_16h57.21.291,jersey_experiment_5_v0,2023.2.2,Win32,84.74576271,,,,,,,,,,,,,,,,500.4401,501.7339,501.7341,509.8046,return,4.5622,,66.92708333,,,,,,FBP-RB-91.png,0.4,1.2,43,0.5,0,21,21,42,1,,,,,,,,,,,,,,,,,,,,,,,,,,,,,,,,,,,,,,,,
,,,,,SRP24_024,19,F,2024-04-09_16h57.21.291,jersey_experiment_5_v0,2023.2.2,Win32,84.74576271,,,,,,,,,,,,,,,,509.8048,510.8517,510.8518,513.1578,return,0.4104,,96.484375,,,,,,FBP-YG-81.png,0.45,1.2,25,0.25,0,22,22,24,1,,,,,,,,,,,,,,,,,,,,,,,,,,,,,,,,,,,,,,,,
,,,,,SRP24_024,19,F,2024-04-09_16h57.21.291,jersey_experiment_5_v0,2023.2.2,Win32,84.74576271,,,,,,,,,,,,,,,,513.158,514.205,514.205,517.005,return,0.35,,76.30208333,,,,,,FBP-PT-81.png,0.37,1.2,52,0.25,0,23,23,51,1,,,,,,,,,,,,,,,,,,,,,,,,,,,,,,,,,,,,,,,,
,,,,,SRP24_024,19,F,2024-04-09_16h57.21.291,jersey_experiment_5_v0,2023.2.2,Win32,84.74576271,,,,,,,,,,,,,,,,517.0052,518.052,518.0521,526.0877,return,0.8703,,65.49479167,,,,,,FBP-YG-91.png,0.37,1.2,27,0.25,0,24,24,26,1,,,,,,,,,,,,,,,,,,,,,,,,,,,,,,,,,,,,,,,,
,,,,,SRP24_024,19,F,2024-04-09_16h57.21.291,jersey_experiment_5_v0,2023.2.2,Win32,84.74576271,,,,,,,,,,,,,,,,526.088,527.1347,527.1348,535.0057,return,0.7489,,86.06770833,,,,,,FBP-YG-91.png,0.43,1.2,29,0.25,0,25,25,28,1,,,,,,,,,,,,,,,,,,,,,,,,,,,,,,,,,,,,,,,,
,,,,,SRP24_024,19,F,2024-04-09_16h57.21.291,jersey_experiment_5_v0,2023.2.2,Win32,84.74576271,,,,,,,,,,,,,,,,535.006,536.0527,536.0527,544.8531,return,4.2359,,35.80729167,,,,,,FBP-PT-91.png,0.35,1.2,56,0.25,0,26,26,55,1,,,,,,,,,,,,,,,,,,,,,,,,,,,,,,,,,,,,,,,,
,,,,,SRP24_024,19,F,2024-04-09_16h57.21.291,jersey_experiment_5_v0,2023.2.2,Win32,84.74576271,,,,,,,,,,,,,,,,544.8533,545.9002,545.9002,552.6771,return,2.7209,,87.5,,,,,,FBP-YG-71.png,0.4,1.2,18,0.25,0,27,27,17,1,,,,,,,,,,,,,,,,,,,,,,,,,,,,,,,,,,,,,,,,
,,,,,SRP24_024,19,F,2024-04-09_16h57.21.291,jersey_experiment_5_v0,2023.2.2,Win32,84.74576271,,,,,,,,,,,,,,,,552.6774,553.724,553.724,559.2536,return,4.1416,,68.22916667,,,,,,FBP-YG-81.png,0.35,1.2,21,0.25,0,28,28,20,1,,,,,,,,,,,,,,,,,,,,,,,,,,,,,,,,,,,,,,,,
,,,,,SRP24_024,19,F,2024-04-09_16h57.21.291,jersey_experiment_5_v0,2023.2.2,Win32,84.74576271,,,,,,,,,,,,,,,,559.2539,560.3008,560.3008,562.4655,return,0.7448,,87.109375,,,,,,FBP-PT-81.png,0.45,1.2,55,0.25,0,29,29,54,1,,,,,,,,,,,,,,,,,,,,,,,,,,,,,,,,,,,,,,,,
,,,,,SRP24_024,19,F,2024-04-09_16h57.21.291,jersey_experiment_5_v0,2023.2.2,Win32,84.74576271,,,,,,,,,,,,,,,,562.4657,563.7598,563.7598,565.2185,return,0.6831,,87.23958333,,,,,,FBP-OG-17.png,0.43,1.2,4,0.5,0,30,30,3,1,,,,,,,,,,,,,,,,,,,,,,,,,,,,,,,,,,,,,,,,
,,,,,SRP24_024,19,F,2024-04-09_16h57.21.291,jersey_experiment_5_v0,2023.2.2,Win32,84.74576271,,,,,,,,,,,,,,,,565.2188,566.5127,566.5128,568.7833,return,0.6973,,88.41145833,,,,,,FBP-OG-17.png,0.45,1.2,5,0.5,0,31,31,4,1,,,,,,,,,,,,,,,,,,,,,,,,,,,,,,,,,,,,,,,,
,,,,,SRP24_024,19,F,2024-04-09_16h57.21.291,jersey_experiment_5_v0,2023.2.2,Win32,84.74576271,,,,,,,,,,,,,,,,568.7836,569.8304,569.8305,573.9718,return,0.7666,,50.390625,,,,,,FBP-PT-71.png,0.35,1.2,46,0.25,0,32,32,45,1,,,,,,,,,,,,,,,,,,,,,,,,,,,,,,,,,,,,,,,,
,,,,,SRP24_024,19,F,2024-04-09_16h57.21.291,jersey_experiment_5_v0,2023.2.2,Win32,84.74576271,,,,,,,,,,,,,,,,573.9721,575.0188,575.0189,577.5484,return,0.6429,,80.98958333,,,,,,FBP-YG-71.png,0.45,1.2,20,0.25,0,33,33,19,1,,,,,,,,,,,,,,,,,,,,,,,,,,,,,,,,,,,,,,,,
,,,,,SRP24_024,19,F,2024-04-09_16h57.21.291,jersey_experiment_5_v0,2023.2.2,Win32,84.74576271,,,,,,,,,,,,,,,,577.5487,578.5955,578.5956,581.1485,return,1.184,,59.765625,,,,,,FBP-PT-71.png,0.37,1.2,47,0.25,0,34,34,46,1,,,,,,,,,,,,,,,,,,,,,,,,,,,,,,,,,,,,,,,,
,,,,,SRP24_024,19,F,2024-04-09_16h57.21.291,jersey_experiment_5_v0,2023.2.2,Win32,84.74576271,,,,,,,,,,,,,,,,581.1488,582.4428,582.4428,584.0194,return,0.6828,,79.42708333,,,,,,FBP-OG-18.png,0.45,1.2,10,0.5,0,35,35,9,1,,,,,,,,,,,,,,,,,,,,,,,,,,,,,,,,,,,,,,,,
,,,,,SRP24_024,19,F,2024-04-09_16h57.21.291,jersey_experiment_5_v0,2023.2.2,Win32,84.74576271,,,,,,,,,,,,,,,,584.0196,585.3134,585.3135,593.2667,return,4.9797,,61.97916667,,,,,,FBP-RB-81.png,0.35,1.2,36,0.5,0,36,36,35,1,,,,,,,,,,,,,,,,,,,,,,,,,,,,,,,,,,,,,,,,
,,,,,SRP24_024,19,F,2024-04-09_16h57.21.291,jersey_experiment_5_v0,2023.2.2,Win32,84.74576271,,,,,,,,,,,,,,,,593.2713,594.5725,594.5725,599.526,return,1.3412,,24.08854167,,,,,,FBP-OG-17.png,0.35,1.2,1,0.5,0,37,37,0,1,,,,,,,,,,,,,,,,,,,,,,,,,,,,,,,,,,,,,,,,
,,,,,SRP24_024,19,F,2024-04-09_16h57.21.291,jersey_experiment_5_v0,2023.2.2,Win32,84.74576271,,,,,,,,,,,,,,,,599.5262,600.5727,600.5728,602.6318,return,0.9417,,21.09375,,,,,,FBP-YG-91.png,0.35,1.2,26,0.25,0,38,38,25,1,,,,,,,,,,,,,,,,,,,,,,,,,,,,,,,,,,,,,,,,
,,,,,SRP24_024,19,F,2024-04-09_16h57.21.291,jersey_experiment_5_v0,2023.2.2,Win32,84.74576271,,,,,,,,,,,,,,,,602.6321,603.6788,603.6788,606.1143,return,0.9328,,73.046875,,,,,,FBP-YG-81.png,0.43,1.2,24,0.25,0,39,39,23,1,,,,,,,,,,,,,,,,,,,,,,,,,,,,,,,,,,,,,,,,
,,,,,SRP24_024,19,F,2024-04-09_16h57.21.291,jersey_experiment_5_v0,2023.2.2,Win32,84.74576271,,,,,,,,,,,,,,,,606.1145,607.4084,607.4084,612.8322,return,1.4738,,63.41145833,,,,,,FBP-OG-18.png,0.43,1.2,9,0.5,0,40,40,8,1,,,,,,,,,,,,,,,,,,,,,,,,,,,,,,,,,,,,,,,,
,,,,,SRP24_024,19,F,2024-04-09_16h57.21.291,jersey_experiment_5_v0,2023.2.2,Win32,84.74576271,,,,,,,,,,,,,,,,612.8323,614.1262,614.1263,616.3853,return,1.2378,,67.31770833,,,,,,FBP-RB-81.png,0.4,1.2,38,0.5,0,41,41,37,1,,,,,,,,,,,,,,,,,,,,,,,,,,,,,,,,,,,,,,,,
,,,,,SRP24_024,19,F,2024-04-09_16h57.21.291,jersey_experiment_5_v0,2023.2.2,Win32,84.74576271,,,,,,,,,,,,,,,,616.3856,617.6794,617.6794,620.1735,return,0.7141,,90.234375,,,,,,FBP-RB-71.png,0.45,1.2,35,0.5,0,42,42,34,1,,,,,,,,,,,,,,,,,,,,,,,,,,,,,,,,,,,,,,,,
,,,,,SRP24_024,19,F,2024-04-09_16h57.21.291,jersey_experiment_5_v0,2023.2.2,Win32,84.74576271,,,,,,,,,,,,,,,,620.1738,621.2208,621.2209,624.4326,return,1.3696,,82.29166667,,,,,,FBP-YG-71.png,0.35,1.2,16,0.25,0,43,43,15,1,,,,,,,,,,,,,,,,,,,,,,,,,,,,,,,,,,,,,,,,
,,,,,SRP24_024,19,F,2024-04-09_16h57.21.291,jersey_experiment_5_v0,2023.2.2,Win32,84.74576271,,,,,,,,,,,,,,,,624.4328,625.7266,625.7267,629.1035,return,1.4868,,89.84375,,,,,,FBP-RB-81.png,0.43,1.2,39,0.5,0,44,44,38,1,,,,,,,,,,,,,,,,,,,,,,,,,,,,,,,,,,,,,,,,
,,,,,SRP24_024,19,F,2024-04-09_16h57.21.291,jersey_experiment_5_v0,2023.2.2,Win32,84.74576271,,,,,,,,,,,,,,,,629.1036,630.1504,630.1504,632.4682,return,0.7432,,89.0625,,,,,,FBP-PT-71.png,0.45,1.2,50,0.25,0,45,45,49,1,,,,,,,,,,,,,,,,,,,,,,,,,,,,,,,,,,,,,,,,
,,,,,SRP24_024,19,F,2024-04-09_16h57.21.291,jersey_experiment_5_v0,2023.2.2,Win32,84.74576271,,,,,,,,,,,,,,,,632.4685,633.7624,633.7625,638.6214,return,0.7138,,81.38020833,,,,,,FBP-OG-19.png,0.4,1.2,13,0.5,0,46,46,12,1,,,,,,,,,,,,,,,,,,,,,,,,,,,,,,,,,,,,,,,,
,,,,,SRP24_024,19,F,2024-04-09_16h57.21.291,jersey_experiment_5_v0,2023.2.2,Win32,84.74576271,,,,,,,,,,,,,,,,638.6216,639.6685,639.6685,644.5039,return,1.6707,,95.703125,,,,,,FBP-YG-71.png,0.43,1.2,19,0.25,0,47,47,18,1,,,,,,,,,,,,,,,,,,,,,,,,,,,,,,,,,,,,,,,,
,,,,,SRP24_024,19,F,2024-04-09_16h57.21.291,jersey_experiment_5_v0,2023.2.2,Win32,84.74576271,,,,,,,,,,,,,,,,644.5041,645.551,645.5511,647.8686,return,0.8327,,95.3125,,,,,,FBP-PT-91.png,0.45,1.2,60,0.25,0,48,48,59,1,,,,,,,,,,,,,,,,,,,,,,,,,,,,,,,,,,,,,,,,
,,,,,SRP24_024,19,F,2024-04-09_16h57.21.291,jersey_experiment_5_v0,2023.2.2,Win32,84.74576271,,,,,,,,,,,,,,,,647.8687,649.1628,649.163,656.0925,return,3.0191,,30.98958333,,,,,,FBP-RB-71.png,0.35,1.2,31,0.5,0,49,49,30,1,,,,,,,,,,,,,,,,,,,,,,,,,,,,,,,,,,,,,,,,
,,,,,SRP24_024,19,F,2024-04-09_16h57.21.291,jersey_experiment_5_v0,2023.2.2,Win32,84.74576271,,,,,,,,,,,,,,,,656.0926,657.1397,657.1398,659.4691,return,0.7376,,48.4375,,,,,,FBP-PT-91.png,0.4,1.2,58,0.25,0,50,50,57,1,,,,,,,,,,,,,,,,,,,,,,,,,,,,,,,,,,,,,,,,
,,,,,SRP24_024,19,F,2024-04-09_16h57.21.291,jersey_experiment_5_v0,2023.2.2,Win32,84.74576271,,,,,,,,,,,,,,,,659.4694,660.5163,660.5163,663.4105,return,0.8485,,93.09895833,,,,,,FBP-PT-91.png,0.43,1.2,59,0.25,0,51,51,58,1,,,,,,,,,,,,,,,,,,,,,,,,,,,,,,,,,,,,,,,,
,,,,,SRP24_024,19,F,2024-04-09_16h57.21.291,jersey_experiment_5_v0,2023.2.2,Win32,84.74576271,,,,,,,,,,,,,,,,663.4109,664.7048,664.7048,666.1751,return,0.6749,,92.70833333,,,,,,FBP-RB-81.png,0.45,1.2,40,0.5,0,52,52,39,1,,,,,,,,,,,,,,,,,,,,,,,,,,,,,,,,,,,,,,,,
,,,,,SRP24_024,19,F,2024-04-09_16h57.21.291,jersey_experiment_5_v0,2023.2.2,Win32,84.74576271,,,,,,,,,,,,,,,,666.1754,667.4695,667.4696,670.7521,return,0.7703,,85.02604167,,,,,,FBP-OG-19.png,0.37,1.2,12,0.5,0,53,53,11,1,,,,,,,,,,,,,,,,,,,,,,,,,,,,,,,,,,,,,,,,
,,,,,SRP24_024,19,F,2024-04-09_16h57.21.291,jersey_experiment_5_v0,2023.2.2,Win32,84.74576271,,,,,,,,,,,,,,,,670.7524,672.0461,672.0462,675.4697,return,2.5257,,80.46875,,,,,,FBP-RB-81.png,0.37,1.2,37,0.5,0,54,54,36,1,,,,,,,,,,,,,,,,,,,,,,,,,,,,,,,,,,,,,,,,
,,,,,SRP24_024,19,F,2024-04-09_16h57.21.291,jersey_experiment_5_v0,2023.2.2,Win32,84.74576271,,,,,,,,,,,,,,,,675.4699,676.764,676.764,678.7522,return,0.8035,,60.02604167,,,,,,FBP-OG-17.png,0.37,1.2,2,0.5,0,55,55,1,1,,,,,,,,,,,,,,,,,,,,,,,,,,,,,,,,,,,,,,,,
,,,,,SRP24_024,19,F,2024-04-09_16h57.21.291,jersey_experiment_5_v0,2023.2.2,Win32,84.74576271,,,,,,,,,,,,,,,,678.7524,680.0465,680.0465,681.7995,return,0.7296,,75.390625,,,,,,FBP-RB-71.png,0.43,1.2,34,0.5,0,56,56,33,1,,,,,,,,,,,,,,,,,,,,,,,,,,,,,,,,,,,,,,,,
,,,,,SRP24_024,19,F,2024-04-09_16h57.21.291,jersey_experiment_5_v0,2023.2.2,Win32,84.74576271,,,,,,,,,,,,,,,,681.7997,683.0935,683.0936,686.3762,return,1.9894,,75.26041667,,,,,,FBP-RB-91.png,0.37,1.2,42,0.5,0,57,57,41,1,,,,,,,,,,,,,,,,,,,,,,,,,,,,,,,,,,,,,,,,
,,,,,SRP24_024,19,F,2024-04-09_16h57.21.291,jersey_experiment_5_v0,2023.2.2,Win32,84.74576271,,,,,,,,,,,,,,,,686.3765,687.6703,687.6703,690.4703,return,2.0231,,63.02083333,,,,,,FBP-OG-18.png,0.4,1.2,8,0.5,0,58,58,7,1,,,,,,,,,,,,,,,,,,,,,,,,,,,,,,,,,,,,,,,,
,,,,,SRP24_024,19,F,2024-04-09_16h57.21.291,jersey_experiment_5_v0,2023.2.2,Win32,84.74576271,,,,,,,,,,,,,,,,690.4706,691.5175,691.5175,693.4234,return,0.6039,,41.14583333,,,,,,FBP-YG-81.png,0.37,1.2,22,0.25,0,59,59,21,1,,,,,,,,,,,,,,,,,,,,,,,,,,,,,,,,,,,,,,,,
,,,,,SRP24_024,19,F,2024-04-09_16h57.21.291,jersey_experiment_5_v0,2023.2.2,Win32,84.74576271,,,,,,,,,,,,,,,,,,,,,,,,,,,,,,,,,,,,,,,693.4238,813.4166,,,,,,,,,,,,,,,,,,,,,,,,,,,,,,,,,,,,,,
,,,,,SRP24_024,19,F,2024-04-09_16h57.21.291,jersey_experiment_5_v0,2023.2.2,Win32,84.74576271,,,,,,,,,,,,,,,,,,,,,,,,,,,,,,,,,,,,,,,,,813.4167,848.806,return,35.3796,,,,,,,,,,,,,,,,,,,,,,,,,,,,,,,,,,
,,,,,SRP24_024,19,F,2024-04-09_16h57.21.291,jersey_experiment_5_v0,2023.2.2,Win32,84.74576271,,,,,,,,,,,,,,,,848.8118,850.1115,850.1116,858.0297,return,4.2175,,75.13020833,,,,,,FBP-YG-19.png,0.45,1.2,30,0.5,,,,,,,,,,,,,0,0,0,29,1,,,,,,,,,,,,,,,,,,,,,,,,,,,,
,,,,,SRP24_024,19,F,2024-04-09_16h57.21.291,jersey_experiment_5_v0,2023.2.2,Win32,84.74576271,,,,,,,,,,,,,,,,858.0341,859.3355,859.3355,863.4298,return,2.0105,,38.54166667,,,,,,FBP-YG-18.png,0.35,1.2,21,0.5,,,,,,,,,,,,,0,1,1,20,1,,,,,,,,,,,,,,,,,,,,,,,,,,,,
,,,,,SRP24_024,19,F,2024-04-09_16h57.21.291,jersey_experiment_5_v0,2023.2.2,Win32,84.74576271,,,,,,,,,,,,,,,,863.4301,864.4768,864.4769,867.124,return,0.3171,,83.72395833,,,,,,FBP-RB-17.png,0.45,1.2,35,0.25,,,,,,,,,,,,,0,2,2,34,1,,,,,,,,,,,,,,,,,,,,,,,,,,,,
,,,,,SRP24_024,19,F,2024-04-09_16h57.21.291,jersey_experiment_5_v0,2023.2.2,Win32,84.74576271,,,,,,,,,,,,,,,,867.1243,868.4182,868.4183,869.83,return,0.3298,,90.10416667,,,,,,FBP-PT-17.png,0.45,1.2,50,0.5,,,,,,,,,,,,,0,3,3,49,1,,,,,,,,,,,,,,,,,,,,,,,,,,,,
,,,,,SRP24_024,19,F,2024-04-09_16h57.21.291,jersey_experiment_5_v0,2023.2.2,Win32,84.74576271,,,,,,,,,,,,,,,,869.8303,871.1242,871.1242,872.9009,return,0.3054,,61.84895833,,,,,,FBP-PT-19.png,0.37,1.2,57,0.5,,,,,,,,,,,,,0,4,4,56,1,,,,,,,,,,,,,,,,,,,,,,,,,,,,
,,,,,SRP24_024,19,F,2024-04-09_16h57.21.291,jersey_experiment_5_v0,2023.2.2,Win32,84.74576271,,,,,,,,,,,,,,,,872.9011,873.9477,873.9478,875.6303,return,0.3724,,73.17708333,,,,,,FBP-OG-81.png,0.45,1.2,10,0.25,,,,,,,,,,,,,0,5,5,9,1,,,,,,,,,,,,,,,,,,,,,,,,,,,,
,,,,,SRP24_024,19,F,2024-04-09_16h57.21.291,jersey_experiment_5_v0,2023.2.2,Win32,84.74576271,,,,,,,,,,,,,,,,875.6307,876.6774,876.6775,879.0539,return,0.7373,,49.73958333,,,,,,FBP-RB-19.png,0.37,1.2,42,0.25,,,,,,,,,,,,,0,6,6,41,1,,,,,,,,,,,,,,,,,,,,,,,,,,,,
,,,,,SRP24_024,19,F,2024-04-09_16h57.21.291,jersey_experiment_5_v0,2023.2.2,Win32,84.74576271,,,,,,,,,,,,,,,,879.0541,880.3482,880.3482,881.6307,return,0.2396,,37.63020833,,,,,,FBP-YG-17.png,0.35,1.2,16,0.5,,,,,,,,,,,,,0,7,7,15,1,,,,,,,,,,,,,,,,,,,,,,,,,,,,
,,,,,SRP24_024,19,F,2024-04-09_16h57.21.291,jersey_experiment_5_v0,2023.2.2,Win32,84.74576271,,,,,,,,,,,,,,,,881.6309,882.9247,882.9247,884.113,return,0.226,,61.19791667,,,,,,FBP-PT-19.png,0.43,1.2,59,0.5,,,,,,,,,,,,,0,8,8,58,1,,,,,,,,,,,,,,,,,,,,,,,,,,,,
,,,,,SRP24_024,19,F,2024-04-09_16h57.21.291,jersey_experiment_5_v0,2023.2.2,Win32,84.74576271,,,,,,,,,,,,,,,,884.1132,885.16,885.16,888.6072,return,0.2186,,50.26041667,,,,,,FBP-OG-71.png,0.37,1.2,2,0.25,,,,,,,,,,,,,0,9,9,1,1,,,,,,,,,,,,,,,,,,,,,,,,,,,,
,,,,,SRP24_024,19,F,2024-04-09_16h57.21.291,jersey_experiment_5_v0,2023.2.2,Win32,84.74576271,,,,,,,,,,,,,,,,888.6075,889.9014,889.9014,891.1016,return,0.371,,49.47916667,,,,,,FBP-PT-18.png,0.37,1.2,52,0.5,,,,,,,,,,,,,0,10,10,51,1,,,,,,,,,,,,,,,,,,,,,,,,,,,,
,,,,,SRP24_024,19,F,2024-04-09_16h57.21.291,jersey_experiment_5_v0,2023.2.2,Win32,84.74576271,,,,,,,,,,,,,,,,891.1018,892.1485,892.1486,893.8781,return,0.2118,,74.34895833,,,,,,FBP-RB-19.png,0.43,1.2,44,0.25,,,,,,,,,,,,,0,11,11,43,1,,,,,,,,,,,,,,,,,,,,,,,,,,,,
,,,,,SRP24_024,19,F,2024-04-09_16h57.21.291,jersey_experiment_5_v0,2023.2.2,Win32,84.74576271,,,,,,,,,,,,,,,,893.8782,894.925,894.9251,896.737,return,0.2985,,89.0625,,,,,,FBP-RB-17.png,0.43,1.2,34,0.25,,,,,,,,,,,,,0,12,12,33,1,,,,,,,,,,,,,,,,,,,,,,,,,,,,
,,,,,SRP24_024,19,F,2024-04-09_16h57.21.291,jersey_experiment_5_v0,2023.2.2,Win32,84.74576271,,,,,,,,,,,,,,,,896.7373,898.0311,898.0312,899.4077,return,0.2885,,90.10416667,,,,,,FBP-PT-17.png,0.43,1.2,49,0.5,,,,,,,,,,,,,0,13,13,48,1,,,,,,,,,,,,,,,,,,,,,,,,,,,,
,,,,,SRP24_024,19,F,2024-04-09_16h57.21.291,jersey_experiment_5_v0,2023.2.2,Win32,84.74576271,,,,,,,,,,,,,,,,899.4079,900.4546,900.4547,901.749,return,0.1658,,75,,,,,,FBP-OG-71.png,0.4,1.2,3,0.25,,,,,,,,,,,,,0,14,14,2,1,,,,,,,,,,,,,,,,,,,,,,,,,,,,
,,,,,SRP24_024,19,F,2024-04-09_16h57.21.291,jersey_experiment_5_v0,2023.2.2,Win32,84.74576271,,,,,,,,,,,,,,,,901.7493,902.796,902.7961,905.1725,return,1.2572,,54.296875,,,,,,FBP-OG-91.png,0.37,1.2,12,0.25,,,,,,,,,,,,,0,15,15,11,1,,,,,,,,,,,,,,,,,,,,,,,,,,,,
,,,,,SRP24_024,19,F,2024-04-09_16h57.21.291,jersey_experiment_5_v0,2023.2.2,Win32,84.74576271,,,,,,,,,,,,,,,,905.1727,906.4667,906.4667,907.9256,return,0.1648,,83.33333333,,,,,,FBP-PT-18.png,0.45,1.2,55,0.5,,,,,,,,,,,,,0,16,16,54,1,,,,,,,,,,,,,,,,,,,,,,,,,,,,
,,,,,SRP24_024,19,F,2024-04-09_16h57.21.291,jersey_experiment_5_v0,2023.2.2,Win32,84.74576271,,,,,,,,,,,,,,,,907.9259,908.9726,908.9727,911.1258,return,0.2354,,39.32291667,,,,,,FBP-OG-71.png,0.35,1.2,1,0.25,,,,,,,,,,,,,0,17,17,0,1,,,,,,,,,,,,,,,,,,,,,,,,,,,,
,,,,,SRP24_024,19,F,2024-04-09_16h57.21.291,jersey_experiment_5_v0,2023.2.2,Win32,84.74576271,,,,,,,,,,,,,,,,911.126,912.173,912.173,913.7495,return,0.2366,,26.04166667,,,,,,FBP-OG-81.png,0.35,1.2,6,0.25,,,,,,,,,,,,,0,18,18,5,1,,,,,,,,,,,,,,,,,,,,,,,,,,,,
,,,,,SRP24_024,19,F,2024-04-09_16h57.21.291,jersey_experiment_5_v0,2023.2.2,Win32,84.74576271,,,,,,,,,,,,,,,,913.7498,914.7965,914.7965,916.5967,return,0.2964,,56.25,,,,,,FBP-RB-18.png,0.4,1.2,38,0.25,,,,,,,,,,,,,0,19,19,37,1,,,,,,,,,,,,,,,,,,,,,,,,,,,,
,,,,,SRP24_024,19,F,2024-04-09_16h57.21.291,jersey_experiment_5_v0,2023.2.2,Win32,84.74576271,,,,,,,,,,,,,,,,916.597,917.8907,917.8908,919.3025,return,0.3431,,57.421875,,,,,,FBP-YG-18.png,0.4,1.2,23,0.5,,,,,,,,,,,,,0,20,20,22,1,,,,,,,,,,,,,,,,,,,,,,,,,,,,
,,,,,SRP24_024,19,F,2024-04-09_16h57.21.291,jersey_experiment_5_v0,2023.2.2,Win32,84.74576271,,,,,,,,,,,,,,,,919.3028,920.3495,920.3495,923.3263,return,1.2898,,48.828125,,,,,,FBP-RB-17.png,0.37,1.2,32,0.25,,,,,,,,,,,,,0,21,21,31,1,,,,,,,,,,,,,,,,,,,,,,,,,,,,
,,,,,SRP24_024,19,F,2024-04-09_16h57.21.291,jersey_experiment_5_v0,2023.2.2,Win32,84.74576271,,,,,,,,,,,,,,,,923.3265,924.6204,924.6204,926.4558,return,0.5324,,73.17708333,,,,,,FBP-PT-19.png,0.45,1.2,60,0.5,,,,,,,,,,,,,0,22,22,59,1,,,,,,,,,,,,,,,,,,,,,,,,,,,,
,,,,,SRP24_024,19,F,2024-04-09_16h57.21.291,jersey_experiment_5_v0,2023.2.2,Win32,84.74576271,,,,,,,,,,,,,,,,926.456,927.75,927.75,929.6324,return,0.6523,,75,,,,,,FBP-YG-19.png,0.37,1.2,27,0.5,,,,,,,,,,,,,0,23,23,26,1,,,,,,,,,,,,,,,,,,,,,,,,,,,,
,,,,,SRP24_024,19,F,2024-04-09_16h57.21.291,jersey_experiment_5_v0,2023.2.2,Win32,84.74576271,,,,,,,,,,,,,,,,929.6327,930.9265,930.9265,934.1503,return,1.3778,,96.74479167,,,,,,FBP-YG-17.png,0.43,1.2,19,0.5,,,,,,,,,,,,,0,24,24,18,1,,,,,,,,,,,,,,,,,,,,,,,,,,,,
,,,,,SRP24_024,19,F,2024-04-09_16h57.21.291,jersey_experiment_5_v0,2023.2.2,Win32,84.74576271,,,,,,,,,,,,,,,,934.1506,935.1973,935.1973,937.6562,return,0.2496,,42.05729167,,,,,,FBP-RB-18.png,0.35,1.2,36,0.25,,,,,,,,,,,,,0,25,25,35,1,,,,,,,,,,,,,,,,,,,,,,,,,,,,
,,,,,SRP24_024,19,F,2024-04-09_16h57.21.291,jersey_experiment_5_v0,2023.2.2,Win32,84.74576271,,,,,,,,,,,,,,,,937.6565,938.9502,938.9503,940.7267,return,0.2358,,86.328125,,,,,,FBP-YG-17.png,0.45,1.2,20,0.5,,,,,,,,,,,,,0,26,26,19,1,,,,,,,,,,,,,,,,,,,,,,,,,,,,
,,,,,SRP24_024,19,F,2024-04-09_16h57.21.291,jersey_experiment_5_v0,2023.2.2,Win32,84.74576271,,,,,,,,,,,,,,,,940.7269,942.0211,942.0212,946.1978,return,2.0376,,39.84375,,,,,,FBP-YG-19.png,0.35,1.2,26,0.5,,,,,,,,,,,,,0,27,27,25,1,,,,,,,,,,,,,,,,,,,,,,,,,,,,
,,,,,SRP24_024,19,F,2024-04-09_16h57.21.291,jersey_experiment_5_v0,2023.2.2,Win32,84.74576271,,,,,,,,,,,,,,,,946.1981,947.2446,947.2447,949.1271,return,0.2121,,34.375,,,,,,FBP-RB-19.png,0.35,1.2,41,0.25,,,,,,,,,,,,,0,28,28,40,1,,,,,,,,,,,,,,,,,,,,,,,,,,,,
,,,,,SRP24_024,19,F,2024-04-09_16h57.21.291,jersey_experiment_5_v0,2023.2.2,Win32,84.74576271,,,,,,,,,,,,,,,,949.1273,950.4214,950.4215,952.1745,return,0.4192,,87.890625,,,,,,FBP-YG-18.png,0.43,1.2,24,0.5,,,,,,,,,,,,,0,29,29,23,1,,,,,,,,,,,,,,,,,,,,,,,,,,,,
,,,,,SRP24_024,19,F,2024-04-09_16h57.21.291,jersey_experiment_5_v0,2023.2.2,Win32,84.74576271,,,,,,,,,,,,,,,,952.1747,953.4685,953.4686,954.9743,return,0.3348,,87.109375,,,,,,FBP-YG-19.png,0.43,1.2,29,0.5,,,,,,,,,,,,,0,30,30,28,1,,,,,,,,,,,,,,,,,,,,,,,,,,,,
,,,,,SRP24_024,19,F,2024-04-09_16h57.21.291,jersey_experiment_5_v0,2023.2.2,Win32,84.74576271,,,,,,,,,,,,,,,,954.9746,956.0216,956.0216,958.2217,return,1.0424,,74.21875,,,,,,FBP-OG-81.png,0.43,1.2,9,0.25,,,,,,,,,,,,,0,31,31,8,1,,,,,,,,,,,,,,,,,,,,,,,,,,,,
,,,,,SRP24_024,19,F,2024-04-09_16h57.21.291,jersey_experiment_5_v0,2023.2.2,Win32,84.74576271,,,,,,,,,,,,,,,,958.222,959.2687,959.2687,960.9747,return,0.3582,,90.10416667,,,,,,FBP-RB-19.png,0.45,1.2,45,0.25,,,,,,,,,,,,,0,32,32,44,1,,,,,,,,,,,,,,,,,,,,,,,,,,,,
,,,,,SRP24_024,19,F,2024-04-09_16h57.21.291,jersey_experiment_5_v0,2023.2.2,Win32,84.74576271,,,,,,,,,,,,,,,,960.975,962.0218,962.0218,963.8454,return,0.3913,,76.171875,,,,,,FBP-OG-91.png,0.43,1.2,14,0.25,,,,,,,,,,,,,0,33,33,13,1,,,,,,,,,,,,,,,,,,,,,,,,,,,,
,,,,,SRP24_024,19,F,2024-04-09_16h57.21.291,jersey_experiment_5_v0,2023.2.2,Win32,84.74576271,,,,,,,,,,,,,,,,963.8456,965.1396,965.1396,967.7279,return,0.8413,,39.71354167,,,,,,FBP-YG-17.png,0.37,1.2,17,0.5,,,,,,,,,,,,,0,34,34,16,1,,,,,,,,,,,,,,,,,,,,,,,,,,,,
,,,,,SRP24_024,19,F,2024-04-09_16h57.21.291,jersey_experiment_5_v0,2023.2.2,Win32,84.74576271,,,,,,,,,,,,,,,,967.7281,969.0221,969.0222,976.6106,return,3.5894,,25.13020833,,,,,,FBP-PT-17.png,0.35,1.2,46,0.5,,,,,,,,,,,,,0,35,35,45,1,,,,,,,,,,,,,,,,,,,,,,,,,,,,
,,,,,SRP24_024,19,F,2024-04-09_16h57.21.291,jersey_experiment_5_v0,2023.2.2,Win32,84.74576271,,,,,,,,,,,,,,,,976.6109,977.6577,977.6577,979.3166,return,0.2365,,25.52083333,,,,,,FBP-RB-17.png,0.35,1.2,31,0.25,,,,,,,,,,,,,0,36,36,30,1,,,,,,,,,,,,,,,,,,,,,,,,,,,,
,,,,,SRP24_024,19,F,2024-04-09_16h57.21.291,jersey_experiment_5_v0,2023.2.2,Win32,84.74576271,,,,,,,,,,,,,,,,979.3169,980.3636,980.3636,982.4696,return,0.2216,,60.02604167,,,,,,FBP-RB-19.png,0.4,1.2,43,0.25,,,,,,,,,,,,,0,37,37,42,1,,,,,,,,,,,,,,,,,,,,,,,,,,,,
,,,,,SRP24_024,19,F,2024-04-09_16h57.21.291,jersey_experiment_5_v0,2023.2.2,Win32,84.74576271,,,,,,,,,,,,,,,,982.4698,983.5167,983.5167,984.4225,return,0.2357,,59.89583333,,,,,,FBP-RB-18.png,0.37,1.2,37,0.25,,,,,,,,,,,,,0,38,38,36,1,,,,,,,,,,,,,,,,,,,,,,,,,,,,
,,,,,SRP24_024,19,F,2024-04-09_16h57.21.291,jersey_experiment_5_v0,2023.2.2,Win32,84.74576271,,,,,,,,,,,,,,,,984.4228,985.7168,985.7168,987.0934,return,0.3293,,74.47916667,,,,,,FBP-PT-18.png,0.43,1.2,54,0.5,,,,,,,,,,,,,0,39,39,53,1,,,,,,,,,,,,,,,,,,,,,,,,,,,,
,,,,,SRP24_024,19,F,2024-04-09_16h57.21.291,jersey_experiment_5_v0,2023.2.2,Win32,84.74576271,,,,,,,,,,,,,,,,987.0936,988.1404,988.1404,990.5994,return,0.8142,,91.66666667,,,,,,FBP-OG-71.png,0.43,1.2,4,0.25,,,,,,,,,,,,,0,40,40,3,1,,,,,,,,,,,,,,,,,,,,,,,,,,,,
,,,,,SRP24_024,19,F,2024-04-09_16h57.21.291,jersey_experiment_5_v0,2023.2.2,Win32,84.74576271,,,,,,,,,,,,,,,,990.5997,991.6464,991.6464,996.3408,return,1.3186,,74.73958333,,,,,,FBP-OG-91.png,0.4,1.2,13,0.25,,,,,,,,,,,,,0,41,41,12,1,,,,,,,,,,,,,,,,,,,,,,,,,,,,
,,,,,SRP24_024,19,F,2024-04-09_16h57.21.291,jersey_experiment_5_v0,2023.2.2,Win32,84.74576271,,,,,,,,,,,,,,,,996.3411,997.6352,997.6352,998.7409,return,0.2834,,75.13020833,,,,,,FBP-YG-18.png,0.45,1.2,25,0.5,,,,,,,,,,,,,0,42,42,24,1,,,,,,,,,,,,,,,,,,,,,,,,,,,,
,,,,,SRP24_024,19,F,2024-04-09_16h57.21.291,jersey_experiment_5_v0,2023.2.2,Win32,84.74576271,,,,,,,,,,,,,,,,998.741,999.788,999.7881,1001.5528,return,0.6257,,75.390625,,,,,,FBP-OG-81.png,0.4,1.2,8,0.25,,,,,,,,,,,,,0,43,43,7,1,,,,,,,,,,,,,,,,,,,,,,,,,,,,
,,,,,SRP24_024,19,F,2024-04-09_16h57.21.291,jersey_experiment_5_v0,2023.2.2,Win32,84.74576271,,,,,,,,,,,,,,,,1001.553,1002.8468,1002.8468,1004.5645,return,0.3399,,64.0625,,,,,,FBP-PT-17.png,0.4,1.2,48,0.5,,,,,,,,,,,,,0,44,44,47,1,,,,,,,,,,,,,,,,,,,,,,,,,,,,
,,,,,SRP24_024,19,F,2024-04-09_16h57.21.291,jersey_experiment_5_v0,2023.2.2,Win32,84.74576271,,,,,,,,,,,,,,,,1004.5648,1005.8587,1005.8587,1007.647,return,0.1952,,61.19791667,,,,,,FBP-PT-17.png,0.37,1.2,47,0.5,,,,,,,,,,,,,0,45,45,46,1,,,,,,,,,,,,,,,,,,,,,,,,,,,,
,,,,,SRP24_024,19,F,2024-04-09_16h57.21.291,jersey_experiment_5_v0,2023.2.2,Win32,84.74576271,,,,,,,,,,,,,,,,1007.6472,1008.6942,1008.6942,1010.2236,return,0.1922,,68.09895833,,,,,,FBP-OG-81.png,0.37,1.2,7,0.25,,,,,,,,,,,,,0,46,46,6,1,,,,,,,,,,,,,,,,,,,,,,,,,,,,
,,,,,SRP24_024,19,F,2024-04-09_16h57.21.291,jersey_experiment_5_v0,2023.2.2,Win32,84.74576271,,,,,,,,,,,,,,,,1010.224,1011.5178,1011.5178,1012.8001,return,0.1336,,72.65625,,,,,,FBP-PT-18.png,0.4,1.2,53,0.5,,,,,,,,,,,,,0,47,47,52,1,,,,,,,,,,,,,,,,,,,,,,,,,,,,
,,,,,SRP24_024,19,F,2024-04-09_16h57.21.291,jersey_experiment_5_v0,2023.2.2,Win32,84.74576271,,,,,,,,,,,,,,,,1012.8003,1013.8473,1013.8473,1015.506,return,0.2724,,74.609375,,,,,,FBP-OG-71.png,0.45,1.2,5,0.25,,,,,,,,,,,,,0,48,48,4,1,,,,,,,,,,,,,,,,,,,,,,,,,,,,
,,,,,SRP24_024,19,F,2024-04-09_16h57.21.291,jersey_experiment_5_v0,2023.2.2,Win32,84.74576271,,,,,,,,,,,,,,,,1015.5063,1016.5532,1016.5533,1018.0474,return,0.2419,,64.97395833,,,,,,FBP-OG-91.png,0.35,1.2,11,0.25,,,,,,,,,,,,,0,49,49,10,1,,,,,,,,,,,,,,,,,,,,,,,,,,,,
,,,,,SRP24_024,19,F,2024-04-09_16h57.21.291,jersey_experiment_5_v0,2023.2.2,Win32,84.74576271,,,,,,,,,,,,,,,,1018.0477,1019.0946,1019.0946,1020.6945,return,0.2587,,85.41666667,,,,,,FBP-RB-18.png,0.43,1.2,39,0.25,,,,,,,,,,,,,0,50,50,38,1,,,,,,,,,,,,,,,,,,,,,,,,,,,,
,,,,,SRP24_024,19,F,2024-04-09_16h57.21.291,jersey_experiment_5_v0,2023.2.2,Win32,84.74576271,,,,,,,,,,,,,,,,1020.6947,1021.9889,1021.9889,1023.5536,return,0.4512,,61.06770833,,,,,,FBP-PT-19.png,0.35,1.2,56,0.5,,,,,,,,,,,,,0,51,51,55,1,,,,,,,,,,,,,,,,,,,,,,,,,,,,
,,,,,SRP24_024,19,F,2024-04-09_16h57.21.291,jersey_experiment_5_v0,2023.2.2,Win32,84.74576271,,,,,,,,,,,,,,,,1023.5537,1024.8476,1024.8476,1025.7887,return,0.2914,,62.109375,,,,,,FBP-YG-18.png,0.37,1.2,22,0.5,,,,,,,,,,,,,0,52,52,21,1,,,,,,,,,,,,,,,,,,,,,,,,,,,,
,,,,,SRP24_024,19,F,2024-04-09_16h57.21.291,jersey_experiment_5_v0,2023.2.2,Win32,84.74576271,,,,,,,,,,,,,,,,1025.789,1027.0831,1027.0831,1028.083,return,0.3672,,62.109375,,,,,,FBP-PT-18.png,0.35,1.2,51,0.5,,,,,,,,,,,,,0,53,53,50,1,,,,,,,,,,,,,,,,,,,,,,,,,,,,
,,,,,SRP24_024,19,F,2024-04-09_16h57.21.291,jersey_experiment_5_v0,2023.2.2,Win32,84.74576271,,,,,,,,,,,,,,,,1028.0832,1029.1301,1029.1301,1030.5303,return,0.3918,,72.65625,,,,,,FBP-RB-17.png,0.4,1.2,33,0.25,,,,,,,,,,,,,0,54,54,32,1,,,,,,,,,,,,,,,,,,,,,,,,,,,,
,,,,,SRP24_024,19,F,2024-04-09_16h57.21.291,jersey_experiment_5_v0,2023.2.2,Win32,84.74576271,,,,,,,,,,,,,,,,1030.5306,1031.8244,1031.8245,1032.9891,return,0.244,,80.078125,,,,,,FBP-YG-19.png,0.4,1.2,28,0.5,,,,,,,,,,,,,0,55,55,27,1,,,,,,,,,,,,,,,,,,,,,,,,,,,,
,,,,,SRP24_024,19,F,2024-04-09_16h57.21.291,jersey_experiment_5_v0,2023.2.2,Win32,84.74576271,,,,,,,,,,,,,,,,1032.9893,1034.0363,1034.0363,1035.8247,return,0.4748,,89.84375,,,,,,FBP-OG-91.png,0.45,1.2,15,0.25,,,,,,,,,,,,,0,56,56,14,1,,,,,,,,,,,,,,,,,,,,,,,,,,,,
,,,,,SRP24_024,19,F,2024-04-09_16h57.21.291,jersey_experiment_5_v0,2023.2.2,Win32,84.74576271,,,,,,,,,,,,,,,,1035.825,1037.1187,1037.1188,1039.413,return,0.5047,,74.21875,,,,,,FBP-PT-19.png,0.4,1.2,58,0.5,,,,,,,,,,,,,0,57,57,57,1,,,,,,,,,,,,,,,,,,,,,,,,,,,,
,,,,,SRP24_024,19,F,2024-04-09_16h57.21.291,jersey_experiment_5_v0,2023.2.2,Win32,84.74576271,,,,,,,,,,,,,,,,1039.4132,1040.707,1040.7071,1043.0602,return,0.4016,,77.34375,,,,,,FBP-YG-17.png,0.4,1.2,18,0.5,,,,,,,,,,,,,0,58,58,17,1,,,,,,,,,,,,,,,,,,,,,,,,,,,,
,,,,,SRP24_024,19,F,2024-04-09_16h57.21.291,jersey_experiment_5_v0,2023.2.2,Win32,84.74576271,,,,,,,,,,,,,,,,1043.0603,1044.1074,1044.1074,1045.8368,return,0.4189,,88.02083333,,,,,,FBP-RB-18.png,0.45,1.2,40,0.25,,,,,,,,,,,,,0,59,59,39,1,,,,,,,,,,,,,,,,,,,,,,,,,,,,
,,,,,SRP24_024,19,F,2024-04-09_16h57.21.291,jersey_experiment_5_v0,2023.2.2,Win32,84.74576271,,,,,,,,,,,,,,,,1045.8387,1046.8839,1046.884,1048.2603,return,0.3782,,87.76041667,,,,,,FBP-RB-71.png,0.43,1.2,34,0.25,,,,,,,,,,,,,,,,,,0,0,0,33,1,,,,,,,,,,,,,,,,,,,,,,,
,,,,,SRP24_024,19,F,2024-04-09_16h57.21.291,jersey_experiment_5_v0,2023.2.2,Win32,84.74576271,,,,,,,,,,,,,,,,1048.2606,1049.3074,1049.3075,1051.284,return,0.2964,,63.28125,,,,,,FBP-RB-71.png,0.37,1.2,32,0.25,,,,,,,,,,,,,,,,,,0,1,1,31,1,,,,,,,,,,,,,,,,,,,,,,,
,,,,,SRP24_024,19,F,2024-04-09_16h57.21.291,jersey_experiment_5_v0,2023.2.2,Win32,84.74576271,,,,,,,,,,,,,,,,1051.2842,1052.5782,1052.5782,1053.6958,return,0.251,,62.890625,,,,,,FBP-YG-91.png,0.37,1.2,27,0.5,,,,,,,,,,,,,,,,,,0,2,2,26,1,,,,,,,,,,,,,,,,,,,,,,,
,,,,,SRP24_024,19,F,2024-04-09_16h57.21.291,jersey_experiment_5_v0,2023.2.2,Win32,84.74576271,,,,,,,,,,,,,,,,1053.696,1054.7428,1054.7428,1057.0254,return,0.2371,,59.765625,,,,,,FBP-RB-91.png,0.35,1.2,41,0.25,,,,,,,,,,,,,,,,,,0,3,3,40,1,,,,,,,,,,,,,,,,,,,,,,,
,,,,,SRP24_024,19,F,2024-04-09_16h57.21.291,jersey_experiment_5_v0,2023.2.2,Win32,84.74576271,,,,,,,,,,,,,,,,1057.0256,1058.3196,1058.3196,1059.4962,return,0.2807,,73.046875,,,,,,FBP-PT-81.png,0.43,1.2,54,0.5,,,,,,,,,,,,,,,,,,0,4,4,53,1,,,,,,,,,,,,,,,,,,,,,,,
,,,,,SRP24_024,19,F,2024-04-09_16h57.21.291,jersey_experiment_5_v0,2023.2.2,Win32,84.74576271,,,,,,,,,,,,,,,,1059.4964,1060.7903,1060.7903,1062.4492,return,0.1691,,41.015625,,,,,,FBP-YG-71.png,0.37,1.2,17,0.5,,,,,,,,,,,,,,,,,,0,5,5,16,1,,,,,,,,,,,,,,,,,,,,,,,
,,,,,SRP24_024,19,F,2024-04-09_16h57.21.291,jersey_experiment_5_v0,2023.2.2,Win32,84.74576271,,,,,,,,,,,,,,,,1062.4494,1063.4962,1063.4962,1064.8375,return,0.2263,,63.93229167,,,,,,FBP-OG-17.png,0.45,1.2,5,0.25,,,,,,,,,,,,,,,,,,0,6,6,4,1,,,,,,,,,,,,,,,,,,,,,,,
,,,,,SRP24_024,19,F,2024-04-09_16h57.21.291,jersey_experiment_5_v0,2023.2.2,Win32,84.74576271,,,,,,,,,,,,,,,,1064.8377,1066.1317,1066.1317,1067.0258,return,0.1569,,66.14583333,,,,,,FBP-YG-91.png,0.4,1.2,28,0.5,,,,,,,,,,,,,,,,,,0,7,7,27,1,,,,,,,,,,,,,,,,,,,,,,,
,,,,,SRP24_024,19,F,2024-04-09_16h57.21.291,jersey_experiment_5_v0,2023.2.2,Win32,84.74576271,,,,,,,,,,,,,,,,1067.026,1068.0729,1068.0729,1070.0023,return,0.2247,,76.171875,,,,,,FBP-OG-18.png,0.45,1.2,10,0.25,,,,,,,,,,,,,,,,,,0,8,8,9,1,,,,,,,,,,,,,,,,,,,,,,,
,,,,,SRP24_024,19,F,2024-04-09_16h57.21.291,jersey_experiment_5_v0,2023.2.2,Win32,84.74576271,,,,,,,,,,,,,,,,1070.0026,1071.2964,1071.2964,1072.9906,return,0.2283,,48.69791667,,,,,,FBP-YG-71.png,0.35,1.2,16,0.5,,,,,,,,,,,,,,,,,,0,9,9,15,1,,,,,,,,,,,,,,,,,,,,,,,
,,,,,SRP24_024,19,F,2024-04-09_16h57.21.291,jersey_experiment_5_v0,2023.2.2,Win32,84.74576271,,,,,,,,,,,,,,,,1072.9909,1074.2847,1074.2847,1076.0615,return,0.2423,,73.828125,,,,,,FBP-PT-71.png,0.45,1.2,50,0.5,,,,,,,,,,,,,,,,,,0,10,10,49,1,,,,,,,,,,,,,,,,,,,,,,,
,,,,,SRP24_024,19,F,2024-04-09_16h57.21.291,jersey_experiment_5_v0,2023.2.2,Win32,84.74576271,,,,,,,,,,,,,,,,1076.0617,1077.1086,1077.1086,1078.4614,return,0.3116,,73.046875,,,,,,FBP-RB-81.png,0.43,1.2,39,0.25,,,,,,,,,,,,,,,,,,0,11,11,38,1,,,,,,,,,,,,,,,,,,,,,,,
,,,,,SRP24_024,19,F,2024-04-09_16h57.21.291,jersey_experiment_5_v0,2023.2.2,Win32,84.74576271,,,,,,,,,,,,,,,,1078.4617,1079.5084,1079.5084,1081.2145,return,0.4757,,56.11979167,,,,,,FBP-RB-81.png,0.37,1.2,37,0.25,,,,,,,,,,,,,,,,,,0,12,12,36,1,,,,,,,,,,,,,,,,,,,,,,,
,,,,,SRP24_024,19,F,2024-04-09_16h57.21.291,jersey_experiment_5_v0,2023.2.2,Win32,84.74576271,,,,,,,,,,,,,,,,1081.2147,1082.5087,1082.5087,1083.697,return,0.1091,,72.265625,,,,,,FBP-PT-91.png,0.43,1.2,59,0.5,,,,,,,,,,,,,,,,,,0,13,13,58,1,,,,,,,,,,,,,,,,,,,,,,,
,,,,,SRP24_024,19,F,2024-04-09_16h57.21.291,jersey_experiment_5_v0,2023.2.2,Win32,84.74576271,,,,,,,,,,,,,,,,1083.6972,1084.9912,1084.9912,1087.0384,return,0.1489,,45.44270833,,,,,,FBP-YG-81.png,0.37,1.2,22,0.5,,,,,,,,,,,,,,,,,,0,14,14,21,1,,,,,,,,,,,,,,,,,,,,,,,
,,,,,SRP24_024,19,F,2024-04-09_16h57.21.291,jersey_experiment_5_v0,2023.2.2,Win32,84.74576271,,,,,,,,,,,,,,,,1087.0387,1088.3324,1088.3324,1089.8383,return,0.1818,,72.91666667,,,,,,FBP-PT-91.png,0.45,1.2,60,0.5,,,,,,,,,,,,,,,,,,0,15,15,59,1,,,,,,,,,,,,,,,,,,,,,,,
,,,,,SRP24_024,19,F,2024-04-09_16h57.21.291,jersey_experiment_5_v0,2023.2.2,Win32,84.74576271,,,,,,,,,,,,,,,,1089.8384,1090.8855,1090.8856,1092.5326,return,0.2341,,53.25520833,,,,,,FBP-RB-91.png,0.37,1.2,42,0.25,,,,,,,,,,,,,,,,,,0,16,16,41,1,,,,,,,,,,,,,,,,,,,,,,,
,,,,,SRP24_024,19,F,2024-04-09_16h57.21.291,jersey_experiment_5_v0,2023.2.2,Win32,84.74576271,,,,,,,,,,,,,,,,1092.5329,1093.8268,1093.8269,1094.8385,return,0.2501,,54.55729167,,,,,,FBP-PT-91.png,0.37,1.2,57,0.5,,,,,,,,,,,,,,,,,,0,17,17,56,1,,,,,,,,,,,,,,,,,,,,,,,
,,,,,SRP24_024,19,F,2024-04-09_16h57.21.291,jersey_experiment_5_v0,2023.2.2,Win32,84.74576271,,,,,,,,,,,,,,,,1094.8387,1096.1328,1096.1328,1099.1564,return,0.3544,,54.55729167,,,,,,FBP-PT-91.png,0.4,1.2,58,0.5,,,,,,,,,,,,,,,,,,0,18,18,57,1,,,,,,,,,,,,,,,,,,,,,,,
,,,,,SRP24_024,19,F,2024-04-09_16h57.21.291,jersey_experiment_5_v0,2023.2.2,Win32,84.74576271,,,,,,,,,,,,,,,,1099.1567,1100.2036,1100.2036,1102.2743,return,0.3547,,26.82291667,,,,,,FBP-OG-17.png,0.37,1.2,2,0.25,,,,,,,,,,,,,,,,,,0,19,19,1,1,,,,,,,,,,,,,,,,,,,,,,,
,,,,,SRP24_024,19,F,2024-04-09_16h57.21.291,jersey_experiment_5_v0,2023.2.2,Win32,84.74576271,,,,,,,,,,,,,,,,1102.2745,1103.3211,1103.3212,1104.9802,return,0.1408,,75.26041667,,,,,,FBP-OG-19.png,0.43,1.2,14,0.25,,,,,,,,,,,,,,,,,,0,20,20,13,1,,,,,,,,,,,,,,,,,,,,,,,
,,,,,SRP24_024,19,F,2024-04-09_16h57.21.291,jersey_experiment_5_v0,2023.2.2,Win32,84.74576271,,,,,,,,,,,,,,,,1104.9805,1106.2744,1106.2745,1108.6391,return,0.4304,,24.34895833,,,,,,FBP-PT-81.png,0.37,1.2,52,0.5,,,,,,,,,,,,,,,,,,0,21,21,51,1,,,,,,,,,,,,,,,,,,,,,,,
,,,,,SRP24_024,19,F,2024-04-09_16h57.21.291,jersey_experiment_5_v0,2023.2.2,Win32,84.74576271,,,,,,,,,,,,,,,,1108.6392,1109.9332,1109.9332,1112.4039,return,0.8494,,84.63541667,,,,,,FBP-YG-91.png,0.45,1.2,30,0.5,,,,,,,,,,,,,,,,,,0,22,22,29,1,,,,,,,,,,,,,,,,,,,,,,,
,,,,,SRP24_024,19,F,2024-04-09_16h57.21.291,jersey_experiment_5_v0,2023.2.2,Win32,84.74576271,,,,,,,,,,,,,,,,1112.4042,1113.4511,1113.4511,1115.5099,return,0.2917,,37.76041667,,,,,,FBP-OG-19.png,0.37,1.2,12,0.25,,,,,,,,,,,,,,,,,,0,23,23,11,1,,,,,,,,,,,,,,,,,,,,,,,
,,,,,SRP24_024,19,F,2024-04-09_16h57.21.291,jersey_experiment_5_v0,2023.2.2,Win32,84.74576271,,,,,,,,,,,,,,,,1115.5101,1116.557,1116.5571,1118.004,return,0.2604,,32.68229167,,,,,,FBP-OG-18.png,0.4,1.2,8,0.25,,,,,,,,,,,,,,,,,,0,24,24,7,1,,,,,,,,,,,,,,,,,,,,,,,
,,,,,SRP24_024,19,F,2024-04-09_16h57.21.291,jersey_experiment_5_v0,2023.2.2,Win32,84.74576271,,,,,,,,,,,,,,,,1118.0043,1119.2983,1119.2984,1121.1102,return,0.3297,,70.3125,,,,,,FBP-YG-71.png,0.43,1.2,19,0.5,,,,,,,,,,,,,,,,,,0,25,25,18,1,,,,,,,,,,,,,,,,,,,,,,,
,,,,,SRP24_024,19,F,2024-04-09_16h57.21.291,jersey_experiment_5_v0,2023.2.2,Win32,84.74576271,,,,,,,,,,,,,,,,1121.1103,1122.4044,1122.4044,1124.1573,return,0.2416,,68.09895833,,,,,,FBP-YG-71.png,0.4,1.2,18,0.5,,,,,,,,,,,,,,,,,,0,26,26,17,1,,,,,,,,,,,,,,,,,,,,,,,
,,,,,SRP24_024,19,F,2024-04-09_16h57.21.291,jersey_experiment_5_v0,2023.2.2,Win32,84.74576271,,,,,,,,,,,,,,,,1124.1576,1125.2044,1125.2044,1127.1692,return,0.2753,,42.70833333,,,,,,FBP-RB-81.png,0.35,1.2,36,0.25,,,,,,,,,,,,,,,,,,0,27,27,35,1,,,,,,,,,,,,,,,,,,,,,,,
,,,,,SRP24_024,19,F,2024-04-09_16h57.21.291,jersey_experiment_5_v0,2023.2.2,Win32,84.74576271,,,,,,,,,,,,,,,,1127.1695,1128.2163,1128.2163,1129.8752,return,0.2834,,70.57291667,,,,,,FBP-OG-19.png,0.45,1.2,15,0.25,,,,,,,,,,,,,,,,,,0,28,28,14,1,,,,,,,,,,,,,,,,,,,,,,,
,,,,,SRP24_024,19,F,2024-04-09_16h57.21.291,jersey_experiment_5_v0,2023.2.2,Win32,84.74576271,,,,,,,,,,,,,,,,1129.8755,1131.1694,1131.1694,1132.6164,return,0.2688,,34.11458333,,,,,,FBP-PT-71.png,0.35,1.2,46,0.5,,,,,,,,,,,,,,,,,,0,29,29,45,1,,,,,,,,,,,,,,,,,,,,,,,
,,,,,SRP24_024,19,F,2024-04-09_16h57.21.291,jersey_experiment_5_v0,2023.2.2,Win32,84.74576271,,,,,,,,,,,,,,,,1132.6165,1133.9105,1133.9106,1135.6167,return,0.2052,,27.734375,,,,,,FBP-YG-81.png,0.35,1.2,21,0.5,,,,,,,,,,,,,,,,,,0,30,30,20,1,,,,,,,,,,,,,,,,,,,,,,,
,,,,,SRP24_024,19,F,2024-04-09_16h57.21.291,jersey_experiment_5_v0,2023.2.2,Win32,84.74576271,,,,,,,,,,,,,,,,1135.6169,1136.9108,1136.9108,1138.1814,return,0.2263,,74.609375,,,,,,FBP-YG-71.png,0.45,1.2,20,0.5,,,,,,,,,,,,,,,,,,0,31,31,19,1,,,,,,,,,,,,,,,,,,,,,,,
,,,,,SRP24_024,19,F,2024-04-09_16h57.21.291,jersey_experiment_5_v0,2023.2.2,Win32,84.74576271,,,,,,,,,,,,,,,,1138.1816,1139.4756,1139.4756,1142.7228,return,1.9915,,37.5,,,,,,FBP-PT-71.png,0.4,1.2,48,0.5,,,,,,,,,,,,,,,,,,0,32,32,47,1,,,,,,,,,,,,,,,,,,,,,,,
,,,,,SRP24_024,19,F,2024-04-09_16h57.21.291,jersey_experiment_5_v0,2023.2.2,Win32,84.74576271,,,,,,,,,,,,,,,,1142.7229,1143.7698,1143.7698,1145.5345,return,0.1719,,41.27604167,,,,,,FBP-OG-19.png,0.4,1.2,13,0.25,,,,,,,,,,,,,,,,,,0,33,33,12,1,,,,,,,,,,,,,,,,,,,,,,,
,,,,,SRP24_024,19,F,2024-04-09_16h57.21.291,jersey_experiment_5_v0,2023.2.2,Win32,84.74576271,,,,,,,,,,,,,,,,1145.5347,1146.5817,1146.5817,1148.0289,return,0.396,,70.96354167,,,,,,FBP-RB-81.png,0.4,1.2,38,0.25,,,,,,,,,,,,,,,,,,0,34,34,37,1,,,,,,,,,,,,,,,,,,,,,,,
,,,,,SRP24_024,19,F,2024-04-09_16h57.21.291,jersey_experiment_5_v0,2023.2.2,Win32,84.74576271,,,,,,,,,,,,,,,,1148.0291,1149.3231,1149.3231,1151.8644,return,1.539,,41.92708333,,,,,,FBP-PT-81.png,0.4,1.2,53,0.5,,,,,,,,,,,,,,,,,,0,35,35,52,1,,,,,,,,,,,,,,,,,,,,,,,
,,,,,SRP24_024,19,F,2024-04-09_16h57.21.291,jersey_experiment_5_v0,2023.2.2,Win32,84.74576271,,,,,,,,,,,,,,,,1151.8646,1152.9114,1152.9114,1154.9117,return,0.4524,,71.875,,,,,,FBP-RB-91.png,0.43,1.2,44,0.25,,,,,,,,,,,,,,,,,,0,36,36,43,1,,,,,,,,,,,,,,,,,,,,,,,
,,,,,SRP24_024,19,F,2024-04-09_16h57.21.291,jersey_experiment_5_v0,2023.2.2,Win32,84.74576271,,,,,,,,,,,,,,,,1154.9119,1156.2055,1156.2056,1157.629,return,0.3243,,61.45833333,,,,,,FBP-PT-71.png,0.43,1.2,49,0.5,,,,,,,,,,,,,,,,,,0,37,37,48,1,,,,,,,,,,,,,,,,,,,,,,,
,,,,,SRP24_024,19,F,2024-04-09_16h57.21.291,jersey_experiment_5_v0,2023.2.2,Win32,84.74576271,,,,,,,,,,,,,,,,1157.6292,1158.9233,1158.9233,1161.0528,return,1.1124,,32.55208333,,,,,,FBP-PT-71.png,0.37,1.2,47,0.5,,,,,,,,,,,,,,,,,,0,38,38,46,1,,,,,,,,,,,,,,,,,,,,,,,
,,,,,SRP24_024,19,F,2024-04-09_16h57.21.291,jersey_experiment_5_v0,2023.2.2,Win32,84.74576271,,,,,,,,,,,,,,,,1161.053,1162.0999,1162.0999,1163.5706,return,0.2268,,23.56770833,,,,,,FBP-OG-18.png,0.35,1.2,6,0.25,,,,,,,,,,,,,,,,,,0,39,39,5,1,,,,,,,,,,,,,,,,,,,,,,,
,,,,,SRP24_024,19,F,2024-04-09_16h57.21.291,jersey_experiment_5_v0,2023.2.2,Win32,84.74576271,,,,,,,,,,,,,,,,1163.5708,1164.8646,1164.8646,1166.5119,return,0.3239,,73.56770833,,,,,,FBP-YG-81.png,0.43,1.2,24,0.5,,,,,,,,,,,,,,,,,,0,40,40,23,1,,,,,,,,,,,,,,,,,,,,,,,
,,,,,SRP24_024,19,F,2024-04-09_16h57.21.291,jersey_experiment_5_v0,2023.2.2,Win32,84.74576271,,,,,,,,,,,,,,,,1166.5121,1167.5589,1167.5589,1169.1356,return,0.2417,,25.26041667,,,,,,FBP-OG-18.png,0.37,1.2,7,0.25,,,,,,,,,,,,,,,,,,0,41,41,6,1,,,,,,,,,,,,,,,,,,,,,,,
,,,,,SRP24_024,19,F,2024-04-09_16h57.21.291,jersey_experiment_5_v0,2023.2.2,Win32,84.74576271,,,,,,,,,,,,,,,,1169.1357,1170.1826,1170.1826,1172.3357,return,0.6513,,69.79166667,,,,,,FBP-OG-18.png,0.43,1.2,9,0.25,,,,,,,,,,,,,,,,,,0,42,42,8,1,,,,,,,,,,,,,,,,,,,,,,,
,,,,,SRP24_024,19,F,2024-04-09_16h57.21.291,jersey_experiment_5_v0,2023.2.2,Win32,84.74576271,,,,,,,,,,,,,,,,1172.3359,1173.3827,1173.3827,1175.077,return,0.1879,,85.67708333,,,,,,FBP-RB-71.png,0.45,1.2,35,0.25,,,,,,,,,,,,,,,,,,0,43,43,34,1,,,,,,,,,,,,,,,,,,,,,,,
,,,,,SRP24_024,19,F,2024-04-09_16h57.21.291,jersey_experiment_5_v0,2023.2.2,Win32,84.74576271,,,,,,,,,,,,,,,,1175.0773,1176.124,1176.1241,1177.9241,return,0.2497,,41.796875,,,,,,FBP-OG-17.png,0.35,1.2,1,0.25,,,,,,,,,,,,,,,,,,0,44,44,0,1,,,,,,,,,,,,,,,,,,,,,,,
,,,,,SRP24_024,19,F,2024-04-09_16h57.21.291,jersey_experiment_5_v0,2023.2.2,Win32,84.74576271,,,,,,,,,,,,,,,,1177.9244,1179.2182,1179.2182,1180.63,return,0.2725,,37.76041667,,,,,,FBP-YG-91.png,0.35,1.2,26,0.5,,,,,,,,,,,,,,,,,,0,45,45,25,1,,,,,,,,,,,,,,,,,,,,,,,
,,,,,SRP24_024,19,F,2024-04-09_16h57.21.291,jersey_experiment_5_v0,2023.2.2,Win32,84.74576271,,,,,,,,,,,,,,,,1180.6302,1181.6772,1181.6772,1183.1596,return,0.2684,,66.796875,,,,,,FBP-RB-81.png,0.45,1.2,40,0.25,,,,,,,,,,,,,,,,,,0,46,46,39,1,,,,,,,,,,,,,,,,,,,,,,,
,,,,,SRP24_024,19,F,2024-04-09_16h57.21.291,jersey_experiment_5_v0,2023.2.2,Win32,84.74576271,,,,,,,,,,,,,,,,1183.1598,1184.4538,1184.4539,1186.8655,return,0.2611,,33.85416667,,,,,,FBP-PT-81.png,0.35,1.2,51,0.5,,,,,,,,,,,,,,,,,,0,47,47,50,1,,,,,,,,,,,,,,,,,,,,,,,
,,,,,SRP24_024,19,F,2024-04-09_16h57.21.291,jersey_experiment_5_v0,2023.2.2,Win32,84.74576271,,,,,,,,,,,,,,,,1186.8658,1187.9128,1187.9128,1189.8776,return,0.3534,,28.77604167,,,,,,FBP-RB-71.png,0.35,1.2,31,0.25,,,,,,,,,,,,,,,,,,0,48,48,30,1,,,,,,,,,,,,,,,,,,,,,,,
,,,,,SRP24_024,19,F,2024-04-09_16h57.21.291,jersey_experiment_5_v0,2023.2.2,Win32,84.74576271,,,,,,,,,,,,,,,,1189.8778,1191.1717,1191.1717,1192.0658,return,0.1804,,34.50520833,,,,,,FBP-YG-81.png,0.4,1.2,23,0.5,,,,,,,,,,,,,,,,,,0,49,49,22,1,,,,,,,,,,,,,,,,,,,,,,,
,,,,,SRP24_024,19,F,2024-04-09_16h57.21.291,jersey_experiment_5_v0,2023.2.2,Win32,84.74576271,,,,,,,,,,,,,,,,1192.066,1193.1128,1193.1128,1195.8895,return,1.5438,,65.88541667,,,,,,FBP-OG-17.png,0.43,1.2,4,0.25,,,,,,,,,,,,,,,,,,0,50,50,3,1,,,,,,,,,,,,,,,,,,,,,,,
,,,,,SRP24_024,19,F,2024-04-09_16h57.21.291,jersey_experiment_5_v0,2023.2.2,Win32,84.74576271,,,,,,,,,,,,,,,,1195.8897,1196.9365,1196.9366,1198.0307,return,0.2425,,65.36458333,,,,,,FBP-OG-17.png,0.4,1.2,3,0.25,,,,,,,,,,,,,,,,,,0,51,51,2,1,,,,,,,,,,,,,,,,,,,,,,,
,,,,,SRP24_024,19,F,2024-04-09_16h57.21.291,jersey_experiment_5_v0,2023.2.2,Win32,84.74576271,,,,,,,,,,,,,,,,1198.0309,1199.0778,1199.0778,1203.0426,return,0.2856,,61.97916667,,,,,,FBP-RB-91.png,0.4,1.2,43,0.25,,,,,,,,,,,,,,,,,,0,52,52,42,1,,,,,,,,,,,,,,,,,,,,,,,
,,,,,SRP24_024,19,F,2024-04-09_16h57.21.291,jersey_experiment_5_v0,2023.2.2,Win32,84.74576271,,,,,,,,,,,,,,,,1203.0427,1204.3369,1204.3369,1205.5604,return,0.2447,,77.08333333,,,,,,FBP-YG-91.png,0.43,1.2,29,0.5,,,,,,,,,,,,,,,,,,0,53,53,28,1,,,,,,,,,,,,,,,,,,,,,,,
,,,,,SRP24_024,19,F,2024-04-09_16h57.21.291,jersey_experiment_5_v0,2023.2.2,Win32,84.74576271,,,,,,,,,,,,,,,,1205.5606,1206.6075,1206.6075,1208.4076,return,0.3296,,84.24479167,,,,,,FBP-RB-91.png,0.45,1.2,45,0.25,,,,,,,,,,,,,,,,,,0,54,54,44,1,,,,,,,,,,,,,,,,,,,,,,,
,,,,,SRP24_024,19,F,2024-04-09_16h57.21.291,jersey_experiment_5_v0,2023.2.2,Win32,84.74576271,,,,,,,,,,,,,,,,1208.4077,1209.7018,1209.7019,1211.4077,return,0.2296,,34.63541667,,,,,,FBP-PT-91.png,0.35,1.2,56,0.5,,,,,,,,,,,,,,,,,,0,55,55,55,1,,,,,,,,,,,,,,,,,,,,,,,
,,,,,SRP24_024,19,F,2024-04-09_16h57.21.291,jersey_experiment_5_v0,2023.2.2,Win32,84.74576271,,,,,,,,,,,,,,,,1211.4079,1212.4545,1212.4546,1213.9019,return,0.2312,,31.11979167,,,,,,FBP-OG-19.png,0.35,1.2,11,0.25,,,,,,,,,,,,,,,,,,0,56,56,10,1,,,,,,,,,,,,,,,,,,,,,,,
,,,,,SRP24_024,19,F,2024-04-09_16h57.21.291,jersey_experiment_5_v0,2023.2.2,Win32,84.74576271,,,,,,,,,,,,,,,,1213.9022,1215.1961,1215.1963,1216.949,return,0.2457,,68.88020833,,,,,,FBP-PT-81.png,0.45,1.2,55,0.5,,,,,,,,,,,,,,,,,,0,57,57,54,1,,,,,,,,,,,,,,,,,,,,,,,
,,,,,SRP24_024,19,F,2024-04-09_16h57.21.291,jersey_experiment_5_v0,2023.2.2,Win32,84.74576271,,,,,,,,,,,,,,,,1216.9493,1218.2432,1218.2432,1219.302,return,0.165,,75,,,,,,FBP-YG-81.png,0.45,1.2,25,0.5,,,,,,,,,,,,,,,,,,0,58,58,24,1,,,,,,,,,,,,,,,,,,,,,,,
,,,,,SRP24_024,19,F,2024-04-09_16h57.21.291,jersey_experiment_5_v0,2023.2.2,Win32,84.74576271,,,,,,,,,,,,,,,,1219.3022,1220.3492,1220.3492,1221.9022,return,0.2548,,72.39583333,,,,,,FBP-RB-71.png,0.4,1.2,33,0.25,,,,,,,,,,,,,,,,,,0,59,59,32,1,,,,,,,,,,,,,,,,,,,,,,,
,,,,,SRP24_024,19,F,2024-04-09_16h57.21.291,jersey_experiment_5_v0,2023.2.2,Win32,84.74576271,,,,,,,,,,,,,,,,,,,,,,,,,,,,,,,,,,,,,,,,,,,,,,,,,,,,,,,,1221.9025,1231.6206,return,9.7082,,,,,,,,,,,,,,,,,,,
,,,,,SRP24_024,19,F,2024-04-09_16h57.21.291,jersey_experiment_5_v0,2023.2.2,Win32,84.74576271,,,,,,,,,,,,,,,,,,,,,,,,,,,,,,,,,,,,,,,,,,,,,,,,,,,,,,,,,,,,,1231.6207,1241.303,1,8.0833,return,1.5762,,,,,,,,,,,,
,,,,,SRP24_024,19,F,2024-04-09_16h57.21.291,jersey_experiment_5_v0,2023.2.2,Win32,84.74576271,,,,,,,,,,,,,,,,,,,,,,,,,,,,,,,,,,,,,,,,,,,,,,,,,,,,,,,,,,,,,,,,,,,,1241.3032,1316.0283,Retention rate on figuring out the size of the football players. I saw that the same football player would increasingly get bigger in size. ,right,64.3318,,,,,,
,,,,,SRP24_024,19,F,2024-04-09_16h57.21.291,jersey_experiment_5_v0,2023.2.2,Win32,84.74576271,,,,,,,,,,,,,,,,,,,,,,,,,,,,,,,,,,,,,,,,,,,,,,,,,,,,,,,,,,,,,,,,,,,,,,,,,,1316.0284,1325.4004,return,9.3588,