requirements.started,requirements.stopped,key_resp_3.keys,key_resp_3.rt,key_resp_3.duration,Subject ID,Age,Gender,date,expName,psychopyVersion,OS,frameRate,instructions1.started,instructions1.stopped,key_resp.keys,key_resp.rt,key_resp.duration,example.started,example.stopped,enter_2.keys,enter_2.rt,enter_2.duration,instructions2.started,instructions2.stopped,enter_3.keys,enter_3.rt,enter_3.duration,image.started,image.stopped,slider_2.started,slider_2.stopped,next.keys,next.rt,next.duration,slider.response,trial_block_1.thisRepN,trial_block_1.thisTrialN,trial_block_1.thisN,trial_block_1.thisIndex,trial_block_1.ran,Path,Width,Height,Index,Duration,trial_block_2.thisRepN,trial_block_2.thisTrialN,trial_block_2.thisN,trial_block_2.thisIndex,trial_block_2.ran,rest_break.started,rest_break.stopped,end_break.started,end_break.stopped,key_resp_5.keys,key_resp_5.rt,key_resp_5.duration,trial_block_3.thisRepN,trial_block_3.thisTrialN,trial_block_3.thisN,trial_block_3.thisIndex,trial_block_3.ran,trial_block_4.thisRepN,trial_block_4.thisTrialN,trial_block_4.thisN,trial_block_4.thisIndex,trial_block_4.ran,questions_intro.started,questions_intro.stopped,enter_12.keys,enter_12.rt,enter_12.duration,question2.started,question2.stopped,question_doingbest.response,question_doingbest.rt,enter_15.keys,enter_15.rt,enter_15.duration,pattern.started,pattern.stopped,pattern_2.text,enter_17.keys,enter_17.rt,enter_17.duration,thankyou.started,thankyou.stopped,enter_14.keys,enter_14.rt,enter_14.duration
0.0002,7.458,return,7.4532,,SRP24_022,20,Female,2024-04-09_16h05.41.185,jersey_experiment_5_v0,2023.2.2,Win32,85.47008547,,,,,,,,,,,,,,,,,,,,,,,,,,,,,,,,,,,,,,,,,,,,,,,,,,,,,,,,,,,,,,,,,,,,,,,,,,,,,,
,,,,,SRP24_022,20,Female,2024-04-09_16h05.41.185,jersey_experiment_5_v0,2023.2.2,Win32,85.47008547,7.4582,13.4537,return,5.9835,,,,,,,,,,,,,,,,,,,,,,,,,,,,,,,,,,,,,,,,,,,,,,,,,,,,,,,,,,,,,,,,,,,,,,,,,,
,,,,,SRP24_022,20,Female,2024-04-09_16h05.41.185,jersey_experiment_5_v0,2023.2.2,Win32,85.47008547,,,,,,13.4538,17.5717,return,4.0844,,,,,,,,,,,,,,,,,,,,,,,,,,,,,,,,,,,,,,,,,,,,,,,,,,,,,,,,,,,,,,,,,,,,,
,,,,,SRP24_022,20,Female,2024-04-09_16h05.41.185,jersey_experiment_5_v0,2023.2.2,Win32,85.47008547,,,,,,,,,,,17.5719,38.196,return,20.6134,,,,,,,,,,,,,,,,,,,,,,,,,,,,,,,,,,,,,,,,,,,,,,,,,,,,,,,,,,,,,,,,
,,,,,SRP24_022,20,Female,2024-04-09_16h05.41.185,jersey_experiment_5_v0,2023.2.2,Win32,85.47008547,,,,,,,,,,,,,,,,38.2035,39.2546,39.2547,53.1023,return,1.6759,,24.73958333,0,0,0,55,1,FBP-PT-19.png,0.35,1.2,56,0.25,,,,,,,,,,,,,,,,,,,,,,,,,,,,,,,,,,,,,,,,,,,,,
,,,,,SRP24_022,20,Female,2024-04-09_16h05.41.185,jersey_experiment_5_v0,2023.2.2,Win32,85.47008547,,,,,,,,,,,,,,,,53.1027,54.1493,54.1493,56.5141,return,0.4492,,49.21875,0,1,1,23,1,FBP-YG-18.png,0.43,1.2,24,0.25,,,,,,,,,,,,,,,,,,,,,,,,,,,,,,,,,,,,,,,,,,,,,
,,,,,SRP24_022,20,Female,2024-04-09_16h05.41.185,jersey_experiment_5_v0,2023.2.2,Win32,85.47008547,,,,,,,,,,,,,,,,56.5144,57.561,57.5611,59.0317,return,0.2726,,24.47916667,0,2,2,16,1,FBP-YG-17.png,0.37,1.2,17,0.25,,,,,,,,,,,,,,,,,,,,,,,,,,,,,,,,,,,,,,,,,,,,,
,,,,,SRP24_022,20,Female,2024-04-09_16h05.41.185,jersey_experiment_5_v0,2023.2.2,Win32,85.47008547,,,,,,,,,,,,,,,,59.0319,60.0789,60.0789,63.9026,return,2.3256,,74.609375,0,3,3,28,1,FBP-YG-19.png,0.43,1.2,29,0.25,,,,,,,,,,,,,,,,,,,,,,,,,,,,,,,,,,,,,,,,,,,,,
,,,,,SRP24_022,20,Female,2024-04-09_16h05.41.185,jersey_experiment_5_v0,2023.2.2,Win32,85.47008547,,,,,,,,,,,,,,,,63.9029,64.95,64.95,66.9262,return,0.6435,,74.609375,0,4,4,29,1,FBP-YG-19.png,0.45,1.2,30,0.25,,,,,,,,,,,,,,,,,,,,,,,,,,,,,,,,,,,,,,,,,,,,,
,,,,,SRP24_022,20,Female,2024-04-09_16h05.41.185,jersey_experiment_5_v0,2023.2.2,Win32,85.47008547,,,,,,,,,,,,,,,,66.9264,68.2204,68.2204,69.538,return,0.438,,50.26041667,0,5,5,11,1,FBP-OG-91.png,0.37,1.2,12,0.5,,,,,,,,,,,,,,,,,,,,,,,,,,,,,,,,,,,,,,,,,,,,,
,,,,,SRP24_022,20,Female,2024-04-09_16h05.41.185,jersey_experiment_5_v0,2023.2.2,Win32,85.47008547,,,,,,,,,,,,,,,,69.5382,70.5852,70.5852,72.5971,return,1.1172,,50.26041667,0,6,6,46,1,FBP-PT-17.png,0.37,1.2,47,0.25,,,,,,,,,,,,,,,,,,,,,,,,,,,,,,,,,,,,,,,,,,,,,
,,,,,SRP24_022,20,Female,2024-04-09_16h05.41.185,jersey_experiment_5_v0,2023.2.2,Win32,85.47008547,,,,,,,,,,,,,,,,72.5974,73.8912,73.8912,75.1502,return,0.2423,,50.26041667,0,7,7,36,1,FBP-RB-18.png,0.37,1.2,37,0.5,,,,,,,,,,,,,,,,,,,,,,,,,,,,,,,,,,,,,,,,,,,,,
,,,,,SRP24_022,20,Female,2024-04-09_16h05.41.185,jersey_experiment_5_v0,2023.2.2,Win32,85.47008547,,,,,,,,,,,,,,,,75.1505,76.1971,76.1971,77.8326,return,0.2491,,50.26041667,0,8,8,50,1,FBP-PT-18.png,0.35,1.2,51,0.25,,,,,,,,,,,,,,,,,,,,,,,,,,,,,,,,,,,,,,,,,,,,,
,,,,,SRP24_022,20,Female,2024-04-09_16h05.41.185,jersey_experiment_5_v0,2023.2.2,Win32,85.47008547,,,,,,,,,,,,,,,,77.8328,78.8796,78.8796,79.9857,return,0.2402,,75,0,9,9,22,1,FBP-YG-18.png,0.4,1.2,23,0.25,,,,,,,,,,,,,,,,,,,,,,,,,,,,,,,,,,,,,,,,,,,,,
,,,,,SRP24_022,20,Female,2024-04-09_16h05.41.185,jersey_experiment_5_v0,2023.2.2,Win32,85.47008547,,,,,,,,,,,,,,,,79.986,81.0327,81.0327,82.1032,return,0.165,,75.78125,0,10,10,52,1,FBP-PT-18.png,0.4,1.2,53,0.25,,,,,,,,,,,,,,,,,,,,,,,,,,,,,,,,,,,,,,,,,,,,,
,,,,,SRP24_022,20,Female,2024-04-09_16h05.41.185,jersey_experiment_5_v0,2023.2.2,Win32,85.47008547,,,,,,,,,,,,,,,,82.1034,83.1504,83.1505,86.774,return,1.4496,,62.63020833,0,11,11,51,1,FBP-PT-18.png,0.37,1.2,52,0.25,,,,,,,,,,,,,,,,,,,,,,,,,,,,,,,,,,,,,,,,,,,,,
,,,,,SRP24_022,20,Female,2024-04-09_16h05.41.185,jersey_experiment_5_v0,2023.2.2,Win32,85.47008547,,,,,,,,,,,,,,,,86.7741,88.0681,88.0682,90.6919,return,0.3554,,69.921875,0,12,12,44,1,FBP-RB-19.png,0.45,1.2,45,0.5,,,,,,,,,,,,,,,,,,,,,,,,,,,,,,,,,,,,,,,,,,,,,
,,,,,SRP24_022,20,Female,2024-04-09_16h05.41.185,jersey_experiment_5_v0,2023.2.2,Win32,85.47008547,,,,,,,,,,,,,,,,90.6921,91.986,91.986,95.8803,return,0.6592,,34.50520833,0,13,13,10,1,FBP-OG-91.png,0.35,1.2,11,0.5,,,,,,,,,,,,,,,,,,,,,,,,,,,,,,,,,,,,,,,,,,,,,
,,,,,SRP24_022,20,Female,2024-04-09_16h05.41.185,jersey_experiment_5_v0,2023.2.2,Win32,85.47008547,,,,,,,,,,,,,,,,95.8805,96.9273,96.9273,100.1629,return,0.8154,,34.50520833,0,14,14,57,1,FBP-PT-19.png,0.4,1.2,58,0.25,,,,,,,,,,,,,,,,,,,,,,,,,,,,,,,,,,,,,,,,,,,,,
,,,,,SRP24_022,20,Female,2024-04-09_16h05.41.185,jersey_experiment_5_v0,2023.2.2,Win32,85.47008547,,,,,,,,,,,,,,,,100.1632,101.4569,101.457,103.4924,return,0.5432,,77.99479167,0,15,15,38,1,FBP-RB-18.png,0.43,1.2,39,0.5,,,,,,,,,,,,,,,,,,,,,,,,,,,,,,,,,,,,,,,,,,,,,
,,,,,SRP24_022,20,Female,2024-04-09_16h05.41.185,jersey_experiment_5_v0,2023.2.2,Win32,85.47008547,,,,,,,,,,,,,,,,103.4926,104.5395,104.5395,106.8808,return,1.0977,,76.30208333,0,16,16,54,1,FBP-PT-18.png,0.45,1.2,55,0.25,,,,,,,,,,,,,,,,,,,,,,,,,,,,,,,,,,,,,,,,,,,,,
,,,,,SRP24_022,20,Female,2024-04-09_16h05.41.185,jersey_experiment_5_v0,2023.2.2,Win32,85.47008547,,,,,,,,,,,,,,,,106.8811,108.1749,108.1749,110.1984,return,0.2454,,49.73958333,0,17,17,41,1,FBP-RB-19.png,0.37,1.2,42,0.5,,,,,,,,,,,,,,,,,,,,,,,,,,,,,,,,,,,,,,,,,,,,,
,,,,,SRP24_022,20,Female,2024-04-09_16h05.41.185,jersey_experiment_5_v0,2023.2.2,Win32,85.47008547,,,,,,,,,,,,,,,,110.1985,111.2455,111.2456,113.6809,return,0.3677,,44.921875,0,18,18,45,1,FBP-PT-17.png,0.35,1.2,46,0.25,,,,,,,,,,,,,,,,,,,,,,,,,,,,,,,,,,,,,,,,,,,,,
,,,,,SRP24_022,20,Female,2024-04-09_16h05.41.185,jersey_experiment_5_v0,2023.2.2,Win32,85.47008547,,,,,,,,,,,,,,,,113.6811,114.9751,114.9751,116.2576,return,0.4262,,74.609375,0,19,19,43,1,FBP-RB-19.png,0.43,1.2,44,0.5,,,,,,,,,,,,,,,,,,,,,,,,,,,,,,,,,,,,,,,,,,,,,
,,,,,SRP24_022,20,Female,2024-04-09_16h05.41.185,jersey_experiment_5_v0,2023.2.2,Win32,85.47008547,,,,,,,,,,,,,,,,116.2578,117.3047,117.3047,119.5988,return,0.3019,,27.86458333,0,20,20,26,1,FBP-YG-19.png,0.37,1.2,27,0.25,,,,,,,,,,,,,,,,,,,,,,,,,,,,,,,,,,,,,,,,,,,,,
,,,,,SRP24_022,20,Female,2024-04-09_16h05.41.185,jersey_experiment_5_v0,2023.2.2,Win32,85.47008547,,,,,,,,,,,,,,,,119.5992,120.8929,120.893,121.9519,return,0.395,,27.86458333,0,21,21,0,1,FBP-OG-71.png,0.35,1.2,1,0.5,,,,,,,,,,,,,,,,,,,,,,,,,,,,,,,,,,,,,,,,,,,,,
,,,,,SRP24_022,20,Female,2024-04-09_16h05.41.185,jersey_experiment_5_v0,2023.2.2,Win32,85.47008547,,,,,,,,,,,,,,,,121.9521,122.9988,122.9988,124.646,return,0.2357,,64.32291667,0,22,22,58,1,FBP-PT-19.png,0.43,1.2,59,0.25,,,,,,,,,,,,,,,,,,,,,,,,,,,,,,,,,,,,,,,,,,,,,
,,,,,SRP24_022,20,Female,2024-04-09_16h05.41.185,jersey_experiment_5_v0,2023.2.2,Win32,85.47008547,,,,,,,,,,,,,,,,124.6463,125.9403,125.9404,127.3992,return,0.6125,,71.875,0,23,23,4,1,FBP-OG-71.png,0.45,1.2,5,0.5,,,,,,,,,,,,,,,,,,,,,,,,,,,,,,,,,,,,,,,,,,,,,
,,,,,SRP24_022,20,Female,2024-04-09_16h05.41.185,jersey_experiment_5_v0,2023.2.2,Win32,85.47008547,,,,,,,,,,,,,,,,127.3995,128.6932,128.6933,129.9992,return,0.4992,,74.08854167,0,24,24,34,1,FBP-RB-17.png,0.45,1.2,35,0.5,,,,,,,,,,,,,,,,,,,,,,,,,,,,,,,,,,,,,,,,,,,,,
,,,,,SRP24_022,20,Female,2024-04-09_16h05.41.185,jersey_experiment_5_v0,2023.2.2,Win32,85.47008547,,,,,,,,,,,,,,,,129.9994,131.2932,131.2933,133.5289,return,0.2963,,61.06770833,0,25,25,2,1,FBP-OG-71.png,0.4,1.2,3,0.5,,,,,,,,,,,,,,,,,,,,,,,,,,,,,,,,,,,,,,,,,,,,,
,,,,,SRP24_022,20,Female,2024-04-09_16h05.41.185,jersey_experiment_5_v0,2023.2.2,Win32,85.47008547,,,,,,,,,,,,,,,,133.5291,134.8228,134.8229,135.9877,return,0.3323,,57.421875,0,26,26,32,1,FBP-RB-17.png,0.4,1.2,33,0.5,,,,,,,,,,,,,,,,,,,,,,,,,,,,,,,,,,,,,,,,,,,,,
,,,,,SRP24_022,20,Female,2024-04-09_16h05.41.185,jersey_experiment_5_v0,2023.2.2,Win32,85.47008547,,,,,,,,,,,,,,,,135.988,137.2817,137.2818,139.1407,return,0.6371,,31.25,0,27,27,31,1,FBP-RB-17.png,0.37,1.2,32,0.5,,,,,,,,,,,,,,,,,,,,,,,,,,,,,,,,,,,,,,,,,,,,,
,,,,,SRP24_022,20,Female,2024-04-09_16h05.41.185,jersey_experiment_5_v0,2023.2.2,Win32,85.47008547,,,,,,,,,,,,,,,,139.1409,140.1879,140.1879,142.3762,return,0.5884,,61.58854167,0,28,28,24,1,FBP-YG-18.png,0.45,1.2,25,0.25,,,,,,,,,,,,,,,,,,,,,,,,,,,,,,,,,,,,,,,,,,,,,
,,,,,SRP24_022,20,Female,2024-04-09_16h05.41.185,jersey_experiment_5_v0,2023.2.2,Win32,85.47008547,,,,,,,,,,,,,,,,142.3764,143.6705,143.6705,145.4001,return,0.2124,,36.84895833,0,29,29,3,1,FBP-OG-71.png,0.43,1.2,4,0.5,,,,,,,,,,,,,,,,,,,,,,,,,,,,,,,,,,,,,,,,,,,,,
,,,,,SRP24_022,20,Female,2024-04-09_16h05.41.185,jersey_experiment_5_v0,2023.2.2,Win32,85.47008547,,,,,,,,,,,,,,,,145.4004,146.694,146.694,148.4,return,0.2633,,25,0,30,30,40,1,FBP-RB-19.png,0.35,1.2,41,0.5,,,,,,,,,,,,,,,,,,,,,,,,,,,,,,,,,,,,,,,,,,,,,
,,,,,SRP24_022,20,Female,2024-04-09_16h05.41.185,jersey_experiment_5_v0,2023.2.2,Win32,85.47008547,,,,,,,,,,,,,,,,148.4002,149.694,149.6941,151.8001,return,0.4803,,24.34895833,0,31,31,1,1,FBP-OG-71.png,0.37,1.2,2,0.5,,,,,,,,,,,,,,,,,,,,,,,,,,,,,,,,,,,,,,,,,,,,,
,,,,,SRP24_022,20,Female,2024-04-09_16h05.41.185,jersey_experiment_5_v0,2023.2.2,Win32,85.47008547,,,,,,,,,,,,,,,,151.8004,152.8472,152.8472,154.4355,return,0.2621,,21.61458333,0,32,32,15,1,FBP-YG-17.png,0.35,1.2,16,0.25,,,,,,,,,,,,,,,,,,,,,,,,,,,,,,,,,,,,,,,,,,,,,
,,,,,SRP24_022,20,Female,2024-04-09_16h05.41.185,jersey_experiment_5_v0,2023.2.2,Win32,85.47008547,,,,,,,,,,,,,,,,154.4357,155.7297,155.7298,156.8238,return,0.3436,,22.91666667,0,33,33,30,1,FBP-RB-17.png,0.35,1.2,31,0.5,,,,,,,,,,,,,,,,,,,,,,,,,,,,,,,,,,,,,,,,,,,,,
,,,,,SRP24_022,20,Female,2024-04-09_16h05.41.185,jersey_experiment_5_v0,2023.2.2,Win32,85.47008547,,,,,,,,,,,,,,,,156.8241,157.8708,157.8708,159.9179,return,0.5967,,72.78645833,0,34,34,18,1,FBP-YG-17.png,0.43,1.2,19,0.25,,,,,,,,,,,,,,,,,,,,,,,,,,,,,,,,,,,,,,,,,,,,,
,,,,,SRP24_022,20,Female,2024-04-09_16h05.41.185,jersey_experiment_5_v0,2023.2.2,Win32,85.47008547,,,,,,,,,,,,,,,,159.9181,161.2124,161.2124,163.0946,return,0.3062,,61.45833333,0,35,35,13,1,FBP-OG-91.png,0.43,1.2,14,0.5,,,,,,,,,,,,,,,,,,,,,,,,,,,,,,,,,,,,,,,,,,,,,
,,,,,SRP24_022,20,Female,2024-04-09_16h05.41.185,jersey_experiment_5_v0,2023.2.2,Win32,85.47008547,,,,,,,,,,,,,,,,163.0948,164.1416,164.1417,165.4947,return,0.1971,,51.82291667,0,36,36,47,1,FBP-PT-17.png,0.4,1.2,48,0.25,,,,,,,,,,,,,,,,,,,,,,,,,,,,,,,,,,,,,,,,,,,,,
,,,,,SRP24_022,20,Female,2024-04-09_16h05.41.185,jersey_experiment_5_v0,2023.2.2,Win32,85.47008547,,,,,,,,,,,,,,,,165.4949,166.7888,166.7888,167.4595,return,0.1794,,50.65104167,0,37,37,7,1,FBP-OG-81.png,0.4,1.2,8,0.5,,,,,,,,,,,,,,,,,,,,,,,,,,,,,,,,,,,,,,,,,,,,,
,,,,,SRP24_022,20,Female,2024-04-09_16h05.41.185,jersey_experiment_5_v0,2023.2.2,Win32,85.47008547,,,,,,,,,,,,,,,,167.4598,168.5065,168.5065,169.7299,return,0.2866,,71.74479167,0,38,38,53,1,FBP-PT-18.png,0.43,1.2,54,0.25,,,,,,,,,,,,,,,,,,,,,,,,,,,,,,,,,,,,,,,,,,,,,
,,,,,SRP24_022,20,Female,2024-04-09_16h05.41.185,jersey_experiment_5_v0,2023.2.2,Win32,85.47008547,,,,,,,,,,,,,,,,169.7302,171.0243,171.0243,173.2833,return,0.3324,,35.67708333,0,39,39,6,1,FBP-OG-81.png,0.37,1.2,7,0.5,,,,,,,,,,,,,,,,,,,,,,,,,,,,,,,,,,,,,,,,,,,,,
,,,,,SRP24_022,20,Female,2024-04-09_16h05.41.185,jersey_experiment_5_v0,2023.2.2,Win32,85.47008547,,,,,,,,,,,,,,,,173.2835,174.3303,174.3303,175.4716,return,0.322,,31.90104167,0,40,40,56,1,FBP-PT-19.png,0.37,1.2,57,0.25,,,,,,,,,,,,,,,,,,,,,,,,,,,,,,,,,,,,,,,,,,,,,
,,,,,SRP24_022,20,Female,2024-04-09_16h05.41.185,jersey_experiment_5_v0,2023.2.2,Win32,85.47008547,,,,,,,,,,,,,,,,175.4718,176.5185,176.5186,178.3892,return,0.1759,,58.07291667,0,41,41,48,1,FBP-PT-17.png,0.43,1.2,49,0.25,,,,,,,,,,,,,,,,,,,,,,,,,,,,,,,,,,,,,,,,,,,,,
,,,,,SRP24_022,20,Female,2024-04-09_16h05.41.185,jersey_experiment_5_v0,2023.2.2,Win32,85.47008547,,,,,,,,,,,,,,,,178.3895,179.4364,179.4364,182.1659,return,0.3906,,44.01041667,0,42,42,21,1,FBP-YG-18.png,0.37,1.2,22,0.25,,,,,,,,,,,,,,,,,,,,,,,,,,,,,,,,,,,,,,,,,,,,,
,,,,,SRP24_022,20,Female,2024-04-09_16h05.41.185,jersey_experiment_5_v0,2023.2.2,Win32,85.47008547,,,,,,,,,,,,,,,,182.1662,183.4603,183.4603,184.7188,return,0.2764,,29.81770833,0,43,43,5,1,FBP-OG-81.png,0.35,1.2,6,0.5,,,,,,,,,,,,,,,,,,,,,,,,,,,,,,,,,,,,,,,,,,,,,
,,,,,SRP24_022,20,Female,2024-04-09_16h05.41.185,jersey_experiment_5_v0,2023.2.2,Win32,85.47008547,,,,,,,,,,,,,,,,184.719,185.7661,185.7661,187.3191,return,0.4382,,75.13020833,0,44,44,49,1,FBP-PT-17.png,0.45,1.2,50,0.25,,,,,,,,,,,,,,,,,,,,,,,,,,,,,,,,,,,,,,,,,,,,,
,,,,,SRP24_022,20,Female,2024-04-09_16h05.41.185,jersey_experiment_5_v0,2023.2.2,Win32,85.47008547,,,,,,,,,,,,,,,,187.3193,188.6132,188.6133,191.637,return,0.2697,,45.703125,0,45,45,12,1,FBP-OG-91.png,0.4,1.2,13,0.5,,,,,,,,,,,,,,,,,,,,,,,,,,,,,,,,,,,,,,,,,,,,,
,,,,,SRP24_022,20,Female,2024-04-09_16h05.41.185,jersey_experiment_5_v0,2023.2.2,Win32,85.47008547,,,,,,,,,,,,,,,,191.6372,192.684,192.684,195.59,return,0.575,,42.83854167,0,46,46,27,1,FBP-YG-19.png,0.4,1.2,28,0.25,,,,,,,,,,,,,,,,,,,,,,,,,,,,,,,,,,,,,,,,,,,,,
,,,,,SRP24_022,20,Female,2024-04-09_16h05.41.185,jersey_experiment_5_v0,2023.2.2,Win32,85.47008547,,,,,,,,,,,,,,,,195.5903,196.6371,196.6372,198.3194,return,0.2658,,25.26041667,0,47,47,20,1,FBP-YG-18.png,0.35,1.2,21,0.25,,,,,,,,,,,,,,,,,,,,,,,,,,,,,,,,,,,,,,,,,,,,,
,,,,,SRP24_022,20,Female,2024-04-09_16h05.41.185,jersey_experiment_5_v0,2023.2.2,Win32,85.47008547,,,,,,,,,,,,,,,,198.3196,199.3666,199.3666,201.1082,return,0.9083,,24.47916667,0,48,48,25,1,FBP-YG-19.png,0.35,1.2,26,0.25,,,,,,,,,,,,,,,,,,,,,,,,,,,,,,,,,,,,,,,,,,,,,
,,,,,SRP24_022,20,Female,2024-04-09_16h05.41.185,jersey_experiment_5_v0,2023.2.2,Win32,85.47008547,,,,,,,,,,,,,,,,201.1085,202.4021,202.4021,204.3551,return,0.3542,,70.703125,0,49,49,33,1,FBP-RB-17.png,0.43,1.2,34,0.5,,,,,,,,,,,,,,,,,,,,,,,,,,,,,,,,,,,,,,,,,,,,,
,,,,,SRP24_022,20,Female,2024-04-09_16h05.41.185,jersey_experiment_5_v0,2023.2.2,Win32,85.47008547,,,,,,,,,,,,,,,,204.3553,205.6492,205.6492,207.167,return,0.5723,,73.17708333,0,50,50,9,1,FBP-OG-81.png,0.45,1.2,10,0.5,,,,,,,,,,,,,,,,,,,,,,,,,,,,,,,,,,,,,,,,,,,,,
,,,,,SRP24_022,20,Female,2024-04-09_16h05.41.185,jersey_experiment_5_v0,2023.2.2,Win32,85.47008547,,,,,,,,,,,,,,,,207.1672,208.4609,208.4609,210.4494,return,0.2855,,49.609375,0,51,51,37,1,FBP-RB-18.png,0.4,1.2,38,0.5,,,,,,,,,,,,,,,,,,,,,,,,,,,,,,,,,,,,,,,,,,,,,
,,,,,SRP24_022,20,Female,2024-04-09_16h05.41.185,jersey_experiment_5_v0,2023.2.2,Win32,85.47008547,,,,,,,,,,,,,,,,210.4496,211.4964,211.4964,212.7434,return,0.2353,,68.22916667,0,52,52,19,1,FBP-YG-17.png,0.45,1.2,20,0.25,,,,,,,,,,,,,,,,,,,,,,,,,,,,,,,,,,,,,,,,,,,,,
,,,,,SRP24_022,20,Female,2024-04-09_16h05.41.185,jersey_experiment_5_v0,2023.2.2,Win32,85.47008547,,,,,,,,,,,,,,,,212.7436,214.0377,214.0377,214.9201,return,0.2118,,67.05729167,0,53,53,39,1,FBP-RB-18.png,0.45,1.2,40,0.5,,,,,,,,,,,,,,,,,,,,,,,,,,,,,,,,,,,,,,,,,,,,,
,,,,,SRP24_022,20,Female,2024-04-09_16h05.41.185,jersey_experiment_5_v0,2023.2.2,Win32,85.47008547,,,,,,,,,,,,,,,,214.9202,216.2142,216.2142,218.391,return,1.0826,,36.97916667,0,54,54,42,1,FBP-RB-19.png,0.4,1.2,43,0.5,,,,,,,,,,,,,,,,,,,,,,,,,,,,,,,,,,,,,,,,,,,,,
,,,,,SRP24_022,20,Female,2024-04-09_16h05.41.185,jersey_experiment_5_v0,2023.2.2,Win32,85.47008547,,,,,,,,,,,,,,,,218.3912,219.6849,219.6849,221.6145,return,0.2293,,53.90625,0,55,55,8,1,FBP-OG-81.png,0.43,1.2,9,0.5,,,,,,,,,,,,,,,,,,,,,,,,,,,,,,,,,,,,,,,,,,,,,
,,,,,SRP24_022,20,Female,2024-04-09_16h05.41.185,jersey_experiment_5_v0,2023.2.2,Win32,85.47008547,,,,,,,,,,,,,,,,221.6147,222.6615,222.6616,224.4501,return,0.1672,,50,0,56,56,17,1,FBP-YG-17.png,0.4,1.2,18,0.25,,,,,,,,,,,,,,,,,,,,,,,,,,,,,,,,,,,,,,,,,,,,,
,,,,,SRP24_022,20,Female,2024-04-09_16h05.41.185,jersey_experiment_5_v0,2023.2.2,Win32,85.47008547,,,,,,,,,,,,,,,,224.4504,225.7441,225.7441,226.7912,return,0.315,,55.59895833,0,57,57,14,1,FBP-OG-91.png,0.45,1.2,15,0.5,,,,,,,,,,,,,,,,,,,,,,,,,,,,,,,,,,,,,,,,,,,,,
,,,,,SRP24_022,20,Female,2024-04-09_16h05.41.185,jersey_experiment_5_v0,2023.2.2,Win32,85.47008547,,,,,,,,,,,,,,,,226.7913,227.8381,227.8382,229.5678,return,0.195,,79.6875,0,58,58,59,1,FBP-PT-19.png,0.45,1.2,60,0.25,,,,,,,,,,,,,,,,,,,,,,,,,,,,,,,,,,,,,,,,,,,,,
,,,,,SRP24_022,20,Female,2024-04-09_16h05.41.185,jersey_experiment_5_v0,2023.2.2,Win32,85.47008547,,,,,,,,,,,,,,,,229.568,230.8618,230.8619,232.262,return,0.1876,,19.140625,0,59,59,35,1,FBP-RB-18.png,0.35,1.2,36,0.5,,,,,,,,,,,,,,,,,,,,,,,,,,,,,,,,,,,,,,,,,,,,,
,,,,,SRP24_022,20,Female,2024-04-09_16h05.41.185,jersey_experiment_5_v0,2023.2.2,Win32,85.47008547,,,,,,,,,,,,,,,,232.264,233.5561,233.5562,234.4974,return,0.3466,,21.09375,,,,,,FBP-OG-18.png,0.35,1.2,6,0.5,0,0,0,5,1,,,,,,,,,,,,,,,,,,,,,,,,,,,,,,,,,,,,,,,,
,,,,,SRP24_022,20,Female,2024-04-09_16h05.41.185,jersey_experiment_5_v0,2023.2.2,Win32,85.47008547,,,,,,,,,,,,,,,,234.4976,235.5443,235.5444,236.9682,return,0.1422,,16.66666667,,,,,,FBP-PT-81.png,0.37,1.2,52,0.25,0,1,1,51,1,,,,,,,,,,,,,,,,,,,,,,,,,,,,,,,,,,,,,,,,
,,,,,SRP24_022,20,Female,2024-04-09_16h05.41.185,jersey_experiment_5_v0,2023.2.2,Win32,85.47008547,,,,,,,,,,,,,,,,236.9686,238.0152,238.0152,238.8975,return,0.1445,,24.86979167,,,,,,FBP-PT-81.png,0.4,1.2,53,0.25,0,2,2,52,1,,,,,,,,,,,,,,,,,,,,,,,,,,,,,,,,,,,,,,,,
,,,,,SRP24_022,20,Female,2024-04-09_16h05.41.185,jersey_experiment_5_v0,2023.2.2,Win32,85.47008547,,,,,,,,,,,,,,,,238.8979,240.1917,240.1917,241.392,return,0.4183,,15.10416667,,,,,,FBP-RB-71.png,0.35,1.2,31,0.5,0,3,3,30,1,,,,,,,,,,,,,,,,,,,,,,,,,,,,,,,,,,,,,,,,
,,,,,SRP24_022,20,Female,2024-04-09_16h05.41.185,jersey_experiment_5_v0,2023.2.2,Win32,85.47008547,,,,,,,,,,,,,,,,241.3922,242.6859,242.6859,243.6388,return,0.1885,,24.08854167,,,,,,FBP-RB-81.png,0.37,1.2,37,0.5,0,4,4,36,1,,,,,,,,,,,,,,,,,,,,,,,,,,,,,,,,,,,,,,,,
,,,,,SRP24_022,20,Female,2024-04-09_16h05.41.185,jersey_experiment_5_v0,2023.2.2,Win32,85.47008547,,,,,,,,,,,,,,,,243.639,244.9329,244.9329,246.486,return,0.2698,,27.47395833,,,,,,FBP-OG-18.png,0.4,1.2,8,0.5,0,5,5,7,1,,,,,,,,,,,,,,,,,,,,,,,,,,,,,,,,,,,,,,,,
,,,,,SRP24_022,20,Female,2024-04-09_16h05.41.185,jersey_experiment_5_v0,2023.2.2,Win32,85.47008547,,,,,,,,,,,,,,,,246.4862,247.7802,247.7802,251.6391,return,0.3059,,30.46875,,,,,,FBP-RB-91.png,0.4,1.2,43,0.5,0,6,6,42,1,,,,,,,,,,,,,,,,,,,,,,,,,,,,,,,,,,,,,,,,
,,,,,SRP24_022,20,Female,2024-04-09_16h05.41.185,jersey_experiment_5_v0,2023.2.2,Win32,85.47008547,,,,,,,,,,,,,,,,251.6394,252.9333,252.9333,253.9451,return,0.2587,,76.04166667,,,,,,FBP-RB-91.png,0.43,1.2,44,0.5,0,7,7,43,1,,,,,,,,,,,,,,,,,,,,,,,,,,,,,,,,,,,,,,,,
,,,,,SRP24_022,20,Female,2024-04-09_16h05.41.185,jersey_experiment_5_v0,2023.2.2,Win32,85.47008547,,,,,,,,,,,,,,,,253.9454,254.9923,254.9923,256.6158,return,0.1416,,49.08854167,,,,,,FBP-YG-91.png,0.4,1.2,28,0.25,0,8,8,27,1,,,,,,,,,,,,,,,,,,,,,,,,,,,,,,,,,,,,,,,,
,,,,,SRP24_022,20,Female,2024-04-09_16h05.41.185,jersey_experiment_5_v0,2023.2.2,Win32,85.47008547,,,,,,,,,,,,,,,,256.6161,257.9101,257.9102,258.5806,return,0.1528,,50.26041667,,,,,,FBP-RB-81.png,0.43,1.2,39,0.5,0,9,9,38,1,,,,,,,,,,,,,,,,,,,,,,,,,,,,,,,,,,,,,,,,
,,,,,SRP24_022,20,Female,2024-04-09_16h05.41.185,jersey_experiment_5_v0,2023.2.2,Win32,85.47008547,,,,,,,,,,,,,,,,258.5808,259.8747,259.8747,260.9336,return,0.1894,,60.02604167,,,,,,FBP-RB-71.png,0.4,1.2,33,0.5,0,10,10,32,1,,,,,,,,,,,,,,,,,,,,,,,,,,,,,,,,,,,,,,,,
,,,,,SRP24_022,20,Female,2024-04-09_16h05.41.185,jersey_experiment_5_v0,2023.2.2,Win32,85.47008547,,,,,,,,,,,,,,,,260.9339,261.9807,261.9807,263.8867,return,0.2653,,72.00520833,,,,,,FBP-YG-81.png,0.45,1.2,25,0.25,0,11,11,24,1,,,,,,,,,,,,,,,,,,,,,,,,,,,,,,,,,,,,,,,,
,,,,,SRP24_022,20,Female,2024-04-09_16h05.41.185,jersey_experiment_5_v0,2023.2.2,Win32,85.47008547,,,,,,,,,,,,,,,,263.887,264.9338,264.9338,266.3573,return,0.1889,,64.97395833,,,,,,FBP-YG-81.png,0.4,1.2,23,0.25,0,12,12,22,1,,,,,,,,,,,,,,,,,,,,,,,,,,,,,,,,,,,,,,,,
,,,,,SRP24_022,20,Female,2024-04-09_16h05.41.185,jersey_experiment_5_v0,2023.2.2,Win32,85.47008547,,,,,,,,,,,,,,,,266.3576,267.6515,267.6516,269.4869,return,0.218,,51.953125,,,,,,FBP-OG-18.png,0.45,1.2,10,0.5,0,13,13,9,1,,,,,,,,,,,,,,,,,,,,,,,,,,,,,,,,,,,,,,,,
,,,,,SRP24_022,20,Female,2024-04-09_16h05.41.185,jersey_experiment_5_v0,2023.2.2,Win32,85.47008547,,,,,,,,,,,,,,,,269.4872,270.7812,270.7812,271.5575,return,0.1548,,60.28645833,,,,,,FBP-RB-71.png,0.45,1.2,35,0.5,0,14,14,34,1,,,,,,,,,,,,,,,,,,,,,,,,,,,,,,,,,,,,,,,,
,,,,,SRP24_022,20,Female,2024-04-09_16h05.41.185,jersey_experiment_5_v0,2023.2.2,Win32,85.47008547,,,,,,,,,,,,,,,,271.5577,272.8518,272.8518,273.8753,return,0.1072,,32.421875,,,,,,FBP-OG-17.png,0.37,1.2,2,0.5,0,15,15,1,1,,,,,,,,,,,,,,,,,,,,,,,,,,,,,,,,,,,,,,,,
,,,,,SRP24_022,20,Female,2024-04-09_16h05.41.185,jersey_experiment_5_v0,2023.2.2,Win32,85.47008547,,,,,,,,,,,,,,,,273.8755,275.1695,275.1696,276.4871,return,0.175,,53.515625,,,,,,FBP-OG-19.png,0.45,1.2,15,0.5,0,16,16,14,1,,,,,,,,,,,,,,,,,,,,,,,,,,,,,,,,,,,,,,,,
,,,,,SRP24_022,20,Female,2024-04-09_16h05.41.185,jersey_experiment_5_v0,2023.2.2,Win32,85.47008547,,,,,,,,,,,,,,,,276.4874,277.7813,277.7813,278.9109,return,0.3696,,31.51041667,,,,,,FBP-RB-81.png,0.35,1.2,36,0.5,0,17,17,35,1,,,,,,,,,,,,,,,,,,,,,,,,,,,,,,,,,,,,,,,,
,,,,,SRP24_022,20,Female,2024-04-09_16h05.41.185,jersey_experiment_5_v0,2023.2.2,Win32,85.47008547,,,,,,,,,,,,,,,,278.9111,280.2051,280.2051,281.7814,return,0.2362,,49.08854167,,,,,,FBP-OG-19.png,0.4,1.2,13,0.5,0,18,18,12,1,,,,,,,,,,,,,,,,,,,,,,,,,,,,,,,,,,,,,,,,
,,,,,SRP24_022,20,Female,2024-04-09_16h05.41.185,jersey_experiment_5_v0,2023.2.2,Win32,85.47008547,,,,,,,,,,,,,,,,281.7816,282.8286,282.8286,284.3581,return,0.5554,,30.33854167,,,,,,FBP-YG-71.png,0.37,1.2,17,0.25,0,19,19,16,1,,,,,,,,,,,,,,,,,,,,,,,,,,,,,,,,,,,,,,,,
,,,,,SRP24_022,20,Female,2024-04-09_16h05.41.185,jersey_experiment_5_v0,2023.2.2,Win32,85.47008547,,,,,,,,,,,,,,,,284.3583,285.4051,285.4052,286.7111,return,0.2126,,47.78645833,,,,,,FBP-PT-91.png,0.43,1.2,59,0.25,0,20,20,58,1,,,,,,,,,,,,,,,,,,,,,,,,,,,,,,,,,,,,,,,,
,,,,,SRP24_022,20,Female,2024-04-09_16h05.41.185,jersey_experiment_5_v0,2023.2.2,Win32,85.47008547,,,,,,,,,,,,,,,,286.7113,287.7582,287.7582,289.3935,return,0.5676,,26.69270833,,,,,,FBP-PT-91.png,0.4,1.2,58,0.25,0,21,21,57,1,,,,,,,,,,,,,,,,,,,,,,,,,,,,,,,,,,,,,,,,
,,,,,SRP24_022,20,Female,2024-04-09_16h05.41.185,jersey_experiment_5_v0,2023.2.2,Win32,85.47008547,,,,,,,,,,,,,,,,289.3936,290.6879,290.6879,292.1818,return,0.7533,,73.69791667,,,,,,FBP-RB-91.png,0.45,1.2,45,0.5,0,22,22,44,1,,,,,,,,,,,,,,,,,,,,,,,,,,,,,,,,,,,,,,,,
,,,,,SRP24_022,20,Female,2024-04-09_16h05.41.185,jersey_experiment_5_v0,2023.2.2,Win32,85.47008547,,,,,,,,,,,,,,,,292.1821,293.476,293.476,294.8997,return,0.2503,,28.515625,,,,,,FBP-RB-71.png,0.37,1.2,32,0.5,0,23,23,31,1,,,,,,,,,,,,,,,,,,,,,,,,,,,,,,,,,,,,,,,,
,,,,,SRP24_022,20,Female,2024-04-09_16h05.41.185,jersey_experiment_5_v0,2023.2.2,Win32,85.47008547,,,,,,,,,,,,,,,,294.8999,296.1938,296.1938,297.394,return,0.3927,,26.04166667,,,,,,FBP-RB-91.png,0.35,1.2,41,0.5,0,24,24,40,1,,,,,,,,,,,,,,,,,,,,,,,,,,,,,,,,,,,,,,,,
,,,,,SRP24_022,20,Female,2024-04-09_16h05.41.185,jersey_experiment_5_v0,2023.2.2,Win32,85.47008547,,,,,,,,,,,,,,,,297.3943,298.688,298.688,302.3353,return,2.6308,,55.078125,,,,,,FBP-OG-18.png,0.43,1.2,9,0.5,0,25,25,8,1,,,,,,,,,,,,,,,,,,,,,,,,,,,,,,,,,,,,,,,,
,,,,,SRP24_022,20,Female,2024-04-09_16h05.41.185,jersey_experiment_5_v0,2023.2.2,Win32,85.47008547,,,,,,,,,,,,,,,,302.3354,303.6295,303.6295,304.6411,return,0.2291,,26.82291667,,,,,,FBP-OG-17.png,0.35,1.2,1,0.5,0,26,26,0,1,,,,,,,,,,,,,,,,,,,,,,,,,,,,,,,,,,,,,,,,
,,,,,SRP24_022,20,Female,2024-04-09_16h05.41.185,jersey_experiment_5_v0,2023.2.2,Win32,85.47008547,,,,,,,,,,,,,,,,304.6413,305.6881,305.6882,308.5002,return,0.3067,,47.39583333,,,,,,FBP-PT-91.png,0.37,1.2,57,0.25,0,27,27,56,1,,,,,,,,,,,,,,,,,,,,,,,,,,,,,,,,,,,,,,,,
,,,,,SRP24_022,20,Female,2024-04-09_16h05.41.185,jersey_experiment_5_v0,2023.2.2,Win32,85.47008547,,,,,,,,,,,,,,,,308.5004,309.5472,309.5472,313.7474,return,0.3206,,43.88020833,,,,,,FBP-PT-81.png,0.43,1.2,54,0.25,0,28,28,53,1,,,,,,,,,,,,,,,,,,,,,,,,,,,,,,,,,,,,,,,,
,,,,,SRP24_022,20,Female,2024-04-09_16h05.41.185,jersey_experiment_5_v0,2023.2.2,Win32,85.47008547,,,,,,,,,,,,,,,,313.7477,314.7945,314.7946,316.0063,return,0.1644,,30.46875,,,,,,FBP-YG-81.png,0.35,1.2,21,0.25,0,29,29,20,1,,,,,,,,,,,,,,,,,,,,,,,,,,,,,,,,,,,,,,,,
,,,,,SRP24_022,20,Female,2024-04-09_16h05.41.185,jersey_experiment_5_v0,2023.2.2,Win32,85.47008547,,,,,,,,,,,,,,,,316.0066,317.0533,317.0534,318.3594,return,0.2597,,72.52604167,,,,,,FBP-YG-91.png,0.45,1.2,30,0.25,0,30,30,29,1,,,,,,,,,,,,,,,,,,,,,,,,,,,,,,,,,,,,,,,,
,,,,,SRP24_022,20,Female,2024-04-09_16h05.41.185,jersey_experiment_5_v0,2023.2.2,Win32,85.47008547,,,,,,,,,,,,,,,,318.3597,319.4064,319.4065,320.6534,return,0.1598,,21.61458333,,,,,,FBP-YG-71.png,0.35,1.2,16,0.25,0,31,31,15,1,,,,,,,,,,,,,,,,,,,,,,,,,,,,,,,,,,,,,,,,
,,,,,SRP24_022,20,Female,2024-04-09_16h05.41.185,jersey_experiment_5_v0,2023.2.2,Win32,85.47008547,,,,,,,,,,,,,,,,320.6536,321.7009,321.7009,322.8302,return,0.241,,20.18229167,,,,,,FBP-PT-81.png,0.35,1.2,51,0.25,0,32,32,50,1,,,,,,,,,,,,,,,,,,,,,,,,,,,,,,,,,,,,,,,,
,,,,,SRP24_022,20,Female,2024-04-09_16h05.41.185,jersey_experiment_5_v0,2023.2.2,Win32,85.47008547,,,,,,,,,,,,,,,,322.8305,323.8772,323.8772,325.1596,return,0.179,,67.578125,,,,,,FBP-YG-71.png,0.43,1.2,19,0.25,0,33,33,18,1,,,,,,,,,,,,,,,,,,,,,,,,,,,,,,,,,,,,,,,,
,,,,,SRP24_022,20,Female,2024-04-09_16h05.41.185,jersey_experiment_5_v0,2023.2.2,Win32,85.47008547,,,,,,,,,,,,,,,,325.1599,326.4538,326.4539,327.6656,return,0.2024,,21.61458333,,,,,,FBP-OG-19.png,0.37,1.2,12,0.5,0,34,34,11,1,,,,,,,,,,,,,,,,,,,,,,,,,,,,,,,,,,,,,,,,
,,,,,SRP24_022,20,Female,2024-04-09_16h05.41.185,jersey_experiment_5_v0,2023.2.2,Win32,85.47008547,,,,,,,,,,,,,,,,327.6659,328.7127,328.7128,330.5365,return,0.6122,,15.36458333,,,,,,FBP-PT-91.png,0.35,1.2,56,0.25,0,35,35,55,1,,,,,,,,,,,,,,,,,,,,,,,,,,,,,,,,,,,,,,,,
,,,,,SRP24_022,20,Female,2024-04-09_16h05.41.185,jersey_experiment_5_v0,2023.2.2,Win32,85.47008547,,,,,,,,,,,,,,,,330.5366,331.5833,331.5834,333.2542,return,0.1089,,41.015625,,,,,,FBP-YG-91.png,0.37,1.2,27,0.25,0,36,36,26,1,,,,,,,,,,,,,,,,,,,,,,,,,,,,,,,,,,,,,,,,
,,,,,SRP24_022,20,Female,2024-04-09_16h05.41.185,jersey_experiment_5_v0,2023.2.2,Win32,85.47008547,,,,,,,,,,,,,,,,333.2544,334.3012,334.3013,335.8306,return,0.2818,,22.65625,,,,,,FBP-PT-71.png,0.35,1.2,46,0.25,0,37,37,45,1,,,,,,,,,,,,,,,,,,,,,,,,,,,,,,,,,,,,,,,,
,,,,,SRP24_022,20,Female,2024-04-09_16h05.41.185,jersey_experiment_5_v0,2023.2.2,Win32,85.47008547,,,,,,,,,,,,,,,,335.8309,336.8777,336.8778,338.0544,return,0.2584,,47.39583333,,,,,,FBP-YG-81.png,0.37,1.2,22,0.25,0,38,38,21,1,,,,,,,,,,,,,,,,,,,,,,,,,,,,,,,,,,,,,,,,
,,,,,SRP24_022,20,Female,2024-04-09_16h05.41.185,jersey_experiment_5_v0,2023.2.2,Win32,85.47008547,,,,,,,,,,,,,,,,338.0547,339.3485,339.3487,340.9602,return,0.2041,,56.90104167,,,,,,FBP-RB-81.png,0.4,1.2,38,0.5,0,39,39,37,1,,,,,,,,,,,,,,,,,,,,,,,,,,,,,,,,,,,,,,,,
,,,,,SRP24_022,20,Female,2024-04-09_16h05.41.185,jersey_experiment_5_v0,2023.2.2,Win32,85.47008547,,,,,,,,,,,,,,,,340.9605,342.2545,342.2545,344.0192,return,0.1538,,54.81770833,,,,,,FBP-OG-18.png,0.37,1.2,7,0.5,0,40,40,6,1,,,,,,,,,,,,,,,,,,,,,,,,,,,,,,,,,,,,,,,,
,,,,,SRP24_022,20,Female,2024-04-09_16h05.41.185,jersey_experiment_5_v0,2023.2.2,Win32,85.47008547,,,,,,,,,,,,,,,,344.0194,345.0663,345.0663,346.6429,return,0.2742,,67.05729167,,,,,,FBP-PT-71.png,0.43,1.2,49,0.25,0,41,41,48,1,,,,,,,,,,,,,,,,,,,,,,,,,,,,,,,,,,,,,,,,
,,,,,SRP24_022,20,Female,2024-04-09_16h05.41.185,jersey_experiment_5_v0,2023.2.2,Win32,85.47008547,,,,,,,,,,,,,,,,346.6431,347.9369,347.9369,350.0665,return,1.1333,,49.34895833,,,,,,FBP-RB-91.png,0.37,1.2,42,0.5,0,42,42,41,1,,,,,,,,,,,,,,,,,,,,,,,,,,,,,,,,,,,,,,,,
,,,,,SRP24_022,20,Female,2024-04-09_16h05.41.185,jersey_experiment_5_v0,2023.2.2,Win32,85.47008547,,,,,,,,,,,,,,,,350.0666,351.3607,351.3607,352.9606,return,0.9098,,55.859375,,,,,,FBP-OG-17.png,0.43,1.2,4,0.5,0,43,43,3,1,,,,,,,,,,,,,,,,,,,,,,,,,,,,,,,,,,,,,,,,
,,,,,SRP24_022,20,Female,2024-04-09_16h05.41.185,jersey_experiment_5_v0,2023.2.2,Win32,85.47008547,,,,,,,,,,,,,,,,352.9609,354.2548,354.2548,355.2551,return,0.1649,,44.01041667,,,,,,FBP-OG-19.png,0.35,1.2,11,0.5,0,44,44,10,1,,,,,,,,,,,,,,,,,,,,,,,,,,,,,,,,,,,,,,,,
,,,,,SRP24_022,20,Female,2024-04-09_16h05.41.185,jersey_experiment_5_v0,2023.2.2,Win32,85.47008547,,,,,,,,,,,,,,,,355.2553,356.3019,356.302,359.0433,return,1.8269,,68.22916667,,,,,,FBP-YG-71.png,0.45,1.2,20,0.25,0,45,45,19,1,,,,,,,,,,,,,,,,,,,,,,,,,,,,,,,,,,,,,,,,
,,,,,SRP24_022,20,Female,2024-04-09_16h05.41.185,jersey_experiment_5_v0,2023.2.2,Win32,85.47008547,,,,,,,,,,,,,,,,359.0435,360.0904,360.0905,366.7025,return,3.83,,46.74479167,,,,,,FBP-YG-91.png,0.35,1.2,26,0.25,0,46,46,25,1,,,,,,,,,,,,,,,,,,,,,,,,,,,,,,,,,,,,,,,,
,,,,,SRP24_022,20,Female,2024-04-09_16h05.41.185,jersey_experiment_5_v0,2023.2.2,Win32,85.47008547,,,,,,,,,,,,,,,,366.707,368.0083,368.0084,370.279,return,0.2221,,58.85416667,,,,,,FBP-OG-19.png,0.43,1.2,14,0.5,0,47,47,13,1,,,,,,,,,,,,,,,,,,,,,,,,,,,,,,,,,,,,,,,,
,,,,,SRP24_022,20,Female,2024-04-09_16h05.41.185,jersey_experiment_5_v0,2023.2.2,Win32,85.47008547,,,,,,,,,,,,,,,,370.2792,371.3262,371.3262,372.6319,return,0.3631,,67.44791667,,,,,,FBP-YG-91.png,0.43,1.2,29,0.25,0,48,48,28,1,,,,,,,,,,,,,,,,,,,,,,,,,,,,,,,,,,,,,,,,
,,,,,SRP24_022,20,Female,2024-04-09_16h05.41.185,jersey_experiment_5_v0,2023.2.2,Win32,85.47008547,,,,,,,,,,,,,,,,372.6321,373.6792,373.6792,375.3028,return,0.2959,,54.55729167,,,,,,FBP-PT-71.png,0.37,1.2,47,0.25,0,49,49,46,1,,,,,,,,,,,,,,,,,,,,,,,,,,,,,,,,,,,,,,,,
,,,,,SRP24_022,20,Female,2024-04-09_16h05.41.185,jersey_experiment_5_v0,2023.2.2,Win32,85.47008547,,,,,,,,,,,,,,,,375.3029,376.3499,376.35,377.2792,return,0.1602,,52.21354167,,,,,,FBP-PT-71.png,0.4,1.2,48,0.25,0,50,50,47,1,,,,,,,,,,,,,,,,,,,,,,,,,,,,,,,,,,,,,,,,
,,,,,SRP24_022,20,Female,2024-04-09_16h05.41.185,jersey_experiment_5_v0,2023.2.2,Win32,85.47008547,,,,,,,,,,,,,,,,377.2795,378.5735,378.5735,380.1029,return,0.9174,,61.328125,,,,,,FBP-RB-81.png,0.45,1.2,40,0.5,0,51,51,39,1,,,,,,,,,,,,,,,,,,,,,,,,,,,,,,,,,,,,,,,,
,,,,,SRP24_022,20,Female,2024-04-09_16h05.41.185,jersey_experiment_5_v0,2023.2.2,Win32,85.47008547,,,,,,,,,,,,,,,,380.1032,381.1501,381.1502,382.2559,return,0.2653,,61.71875,,,,,,FBP-YG-81.png,0.43,1.2,24,0.25,0,52,52,23,1,,,,,,,,,,,,,,,,,,,,,,,,,,,,,,,,,,,,,,,,
,,,,,SRP24_022,20,Female,2024-04-09_16h05.41.185,jersey_experiment_5_v0,2023.2.2,Win32,85.47008547,,,,,,,,,,,,,,,,382.2562,383.303,383.3031,384.9148,return,1.0626,,60.80729167,,,,,,FBP-YG-71.png,0.4,1.2,18,0.25,0,53,53,17,1,,,,,,,,,,,,,,,,,,,,,,,,,,,,,,,,,,,,,,,,
,,,,,SRP24_022,20,Female,2024-04-09_16h05.41.185,jersey_experiment_5_v0,2023.2.2,Win32,85.47008547,,,,,,,,,,,,,,,,384.915,386.209,386.209,387.009,return,0.2507,,66.92708333,,,,,,FBP-RB-71.png,0.43,1.2,34,0.5,0,54,54,33,1,,,,,,,,,,,,,,,,,,,,,,,,,,,,,,,,,,,,,,,,
,,,,,SRP24_022,20,Female,2024-04-09_16h05.41.185,jersey_experiment_5_v0,2023.2.2,Win32,85.47008547,,,,,,,,,,,,,,,,387.0092,388.3033,388.3033,389.7738,return,0.2087,,52.34375,,,,,,FBP-OG-17.png,0.45,1.2,5,0.5,0,55,55,4,1,,,,,,,,,,,,,,,,,,,,,,,,,,,,,,,,,,,,,,,,
,,,,,SRP24_022,20,Female,2024-04-09_16h05.41.185,jersey_experiment_5_v0,2023.2.2,Win32,85.47008547,,,,,,,,,,,,,,,,389.7741,390.8208,390.8209,391.9385,return,0.2274,,55.59895833,,,,,,FBP-PT-71.png,0.45,1.2,50,0.25,0,56,56,49,1,,,,,,,,,,,,,,,,,,,,,,,,,,,,,,,,,,,,,,,,
,,,,,SRP24_022,20,Female,2024-04-09_16h05.41.185,jersey_experiment_5_v0,2023.2.2,Win32,85.47008547,,,,,,,,,,,,,,,,391.9388,393.2327,393.2328,397.9742,return,0.1887,,47.52604167,,,,,,FBP-OG-17.png,0.4,1.2,3,0.5,0,57,57,2,1,,,,,,,,,,,,,,,,,,,,,,,,,,,,,,,,,,,,,,,,
,,,,,SRP24_022,20,Female,2024-04-09_16h05.41.185,jersey_experiment_5_v0,2023.2.2,Win32,85.47008547,,,,,,,,,,,,,,,,397.9744,399.0213,399.0214,400.2449,return,0.1642,,55.078125,,,,,,FBP-PT-91.png,0.45,1.2,60,0.25,0,58,58,59,1,,,,,,,,,,,,,,,,,,,,,,,,,,,,,,,,,,,,,,,,
,,,,,SRP24_022,20,Female,2024-04-09_16h05.41.185,jersey_experiment_5_v0,2023.2.2,Win32,85.47008547,,,,,,,,,,,,,,,,400.2452,401.292,401.292,402.5979,return,0.3062,,56.11979167,,,,,,FBP-PT-81.png,0.45,1.2,55,0.25,0,59,59,54,1,,,,,,,,,,,,,,,,,,,,,,,,,,,,,,,,,,,,,,,,
,,,,,SRP24_022,20,Female,2024-04-09_16h05.41.185,jersey_experiment_5_v0,2023.2.2,Win32,85.47008547,,,,,,,,,,,,,,,,,,,,,,,,,,,,,,,,,,,,,,,402.5983,522.5909,,,,,,,,,,,,,,,,,,,,,,,,,,,,,,,,,,,,,,
,,,,,SRP24_022,20,Female,2024-04-09_16h05.41.185,jersey_experiment_5_v0,2023.2.2,Win32,85.47008547,,,,,,,,,,,,,,,,,,,,,,,,,,,,,,,,,,,,,,,,,522.5909,534.0151,return,11.4182,,,,,,,,,,,,,,,,,,,,,,,,,,,,,,,,,,
,,,,,SRP24_022,20,Female,2024-04-09_16h05.41.185,jersey_experiment_5_v0,2023.2.2,Win32,85.47008547,,,,,,,,,,,,,,,,534.0212,535.0733,535.0734,538.3442,return,1.1671,,51.5625,,,,,,FBP-RB-19.png,0.4,1.2,43,0.25,,,,,,,,,,,,,0,0,0,42,1,,,,,,,,,,,,,,,,,,,,,,,,,,,,
,,,,,SRP24_022,20,Female,2024-04-09_16h05.41.185,jersey_experiment_5_v0,2023.2.2,Win32,85.47008547,,,,,,,,,,,,,,,,538.3445,539.3915,539.3915,540.4032,return,0.1779,,57.421875,,,,,,FBP-OG-91.png,0.45,1.2,15,0.25,,,,,,,,,,,,,0,1,1,14,1,,,,,,,,,,,,,,,,,,,,,,,,,,,,
,,,,,SRP24_022,20,Female,2024-04-09_16h05.41.185,jersey_experiment_5_v0,2023.2.2,Win32,85.47008547,,,,,,,,,,,,,,,,540.4034,541.6974,541.6974,542.4855,return,0.1408,,39.58333333,,,,,,FBP-PT-17.png,0.37,1.2,47,0.5,,,,,,,,,,,,,0,2,2,46,1,,,,,,,,,,,,,,,,,,,,,,,,,,,,
,,,,,SRP24_022,20,Female,2024-04-09_16h05.41.185,jersey_experiment_5_v0,2023.2.2,Win32,85.47008547,,,,,,,,,,,,,,,,542.4858,543.5326,543.5326,544.4034,return,0.1533,,31.77083333,,,,,,FBP-RB-17.png,0.35,1.2,31,0.25,,,,,,,,,,,,,0,3,3,30,1,,,,,,,,,,,,,,,,,,,,,,,,,,,,
,,,,,SRP24_022,20,Female,2024-04-09_16h05.41.185,jersey_experiment_5_v0,2023.2.2,Win32,85.47008547,,,,,,,,,,,,,,,,544.4037,545.4504,545.4504,546.6623,return,0.7392,,39.84375,,,,,,FBP-RB-19.png,0.37,1.2,42,0.25,,,,,,,,,,,,,0,4,4,41,1,,,,,,,,,,,,,,,,,,,,,,,,,,,,
,,,,,SRP24_022,20,Female,2024-04-09_16h05.41.185,jersey_experiment_5_v0,2023.2.2,Win32,85.47008547,,,,,,,,,,,,,,,,546.6624,547.9561,547.9562,549.8388,return,0.3375,,56.77083333,,,,,,FBP-PT-17.png,0.43,1.2,49,0.5,,,,,,,,,,,,,0,5,5,48,1,,,,,,,,,,,,,,,,,,,,,,,,,,,,
,,,,,SRP24_022,20,Female,2024-04-09_16h05.41.185,jersey_experiment_5_v0,2023.2.2,Win32,85.47008547,,,,,,,,,,,,,,,,549.8391,551.1328,551.1328,551.7683,return,0.151,,56.77083333,,,,,,FBP-PT-19.png,0.43,1.2,59,0.5,,,,,,,,,,,,,0,6,6,58,1,,,,,,,,,,,,,,,,,,,,,,,,,,,,
,,,,,SRP24_022,20,Female,2024-04-09_16h05.41.185,jersey_experiment_5_v0,2023.2.2,Win32,85.47008547,,,,,,,,,,,,,,,,551.7684,553.0624,553.0624,554.6624,return,0.904,,61.97916667,,,,,,FBP-PT-19.png,0.45,1.2,60,0.5,,,,,,,,,,,,,0,7,7,59,1,,,,,,,,,,,,,,,,,,,,,,,,,,,,
,,,,,SRP24_022,20,Female,2024-04-09_16h05.41.185,jersey_experiment_5_v0,2023.2.2,Win32,85.47008547,,,,,,,,,,,,,,,,554.6627,555.9565,555.9565,557.4155,return,0.259,,53.77604167,,,,,,FBP-PT-17.png,0.4,1.2,48,0.5,,,,,,,,,,,,,0,8,8,47,1,,,,,,,,,,,,,,,,,,,,,,,,,,,,
,,,,,SRP24_022,20,Female,2024-04-09_16h05.41.185,jersey_experiment_5_v0,2023.2.2,Win32,85.47008547,,,,,,,,,,,,,,,,557.4157,558.4627,558.4627,559.2508,return,0.1086,,52.34375,,,,,,FBP-OG-71.png,0.4,1.2,3,0.25,,,,,,,,,,,,,0,9,9,2,1,,,,,,,,,,,,,,,,,,,,,,,,,,,,
,,,,,SRP24_022,20,Female,2024-04-09_16h05.41.185,jersey_experiment_5_v0,2023.2.2,Win32,85.47008547,,,,,,,,,,,,,,,,559.2511,560.5451,560.5451,561.3806,return,0.1314,,35.02604167,,,,,,FBP-PT-18.png,0.35,1.2,51,0.5,,,,,,,,,,,,,0,10,10,50,1,,,,,,,,,,,,,,,,,,,,,,,,,,,,
,,,,,SRP24_022,20,Female,2024-04-09_16h05.41.185,jersey_experiment_5_v0,2023.2.2,Win32,85.47008547,,,,,,,,,,,,,,,,561.3808,562.4273,562.4274,563.3334,return,0.1642,,48.69791667,,,,,,FBP-OG-81.png,0.4,1.2,8,0.25,,,,,,,,,,,,,0,11,11,7,1,,,,,,,,,,,,,,,,,,,,,,,,,,,,
,,,,,SRP24_022,20,Female,2024-04-09_16h05.41.185,jersey_experiment_5_v0,2023.2.2,Win32,85.47008547,,,,,,,,,,,,,,,,563.3337,564.3805,564.3805,565.6159,return,0.1699,,31.51041667,,,,,,FBP-OG-81.png,0.37,1.2,7,0.25,,,,,,,,,,,,,0,12,12,6,1,,,,,,,,,,,,,,,,,,,,,,,,,,,,
,,,,,SRP24_022,20,Female,2024-04-09_16h05.41.185,jersey_experiment_5_v0,2023.2.2,Win32,85.47008547,,,,,,,,,,,,,,,,565.6162,566.663,566.663,567.8748,return,0.2135,,66.53645833,,,,,,FBP-OG-71.png,0.45,1.2,5,0.25,,,,,,,,,,,,,0,13,13,4,1,,,,,,,,,,,,,,,,,,,,,,,,,,,,
,,,,,SRP24_022,20,Female,2024-04-09_16h05.41.185,jersey_experiment_5_v0,2023.2.2,Win32,85.47008547,,,,,,,,,,,,,,,,567.875,569.1689,569.169,570.2398,return,0.2523,,65.75520833,,,,,,FBP-PT-17.png,0.45,1.2,50,0.5,,,,,,,,,,,,,0,14,14,49,1,,,,,,,,,,,,,,,,,,,,,,,,,,,,
,,,,,SRP24_022,20,Female,2024-04-09_16h05.41.185,jersey_experiment_5_v0,2023.2.2,Win32,85.47008547,,,,,,,,,,,,,,,,570.24,571.2867,571.2867,573.969,return,1.6966,,21.875,,,,,,FBP-OG-91.png,0.35,1.2,11,0.25,,,,,,,,,,,,,0,15,15,10,1,,,,,,,,,,,,,,,,,,,,,,,,,,,,
,,,,,SRP24_022,20,Female,2024-04-09_16h05.41.185,jersey_experiment_5_v0,2023.2.2,Win32,85.47008547,,,,,,,,,,,,,,,,573.9693,575.2635,575.2635,577.0634,return,1.0924,,19.66145833,,,,,,FBP-PT-17.png,0.35,1.2,46,0.5,,,,,,,,,,,,,0,16,16,45,1,,,,,,,,,,,,,,,,,,,,,,,,,,,,
,,,,,SRP24_022,20,Female,2024-04-09_16h05.41.185,jersey_experiment_5_v0,2023.2.2,Win32,85.47008547,,,,,,,,,,,,,,,,577.0636,578.3574,578.3575,579.0634,return,0.0473,,49.34895833,,,,,,FBP-YG-17.png,0.4,1.2,18,0.5,,,,,,,,,,,,,0,17,17,17,1,,,,,,,,,,,,,,,,,,,,,,,,,,,,
,,,,,SRP24_022,20,Female,2024-04-09_16h05.41.185,jersey_experiment_5_v0,2023.2.2,Win32,85.47008547,,,,,,,,,,,,,,,,579.0636,580.1105,580.1106,580.6399,return,0.0168,,50.390625,,,,,,FBP-RB-18.png,0.4,1.2,38,0.25,,,,,,,,,,,,,0,18,18,37,1,,,,,,,,,,,,,,,,,,,,,,,,,,,,
,,,,,SRP24_022,20,Female,2024-04-09_16h05.41.185,jersey_experiment_5_v0,2023.2.2,Win32,85.47008547,,,,,,,,,,,,,,,,580.6401,581.9341,581.9342,583.4636,return,0.1179,,37.23958333,,,,,,FBP-PT-18.png,0.37,1.2,52,0.5,,,,,,,,,,,,,0,19,19,51,1,,,,,,,,,,,,,,,,,,,,,,,,,,,,
,,,,,SRP24_022,20,Female,2024-04-09_16h05.41.185,jersey_experiment_5_v0,2023.2.2,Win32,85.47008547,,,,,,,,,,,,,,,,583.4638,584.7577,584.7577,585.7107,return,0.0666,,37.76041667,,,,,,FBP-YG-17.png,0.37,1.2,17,0.5,,,,,,,,,,,,,0,20,20,16,1,,,,,,,,,,,,,,,,,,,,,,,,,,,,
,,,,,SRP24_022,20,Female,2024-04-09_16h05.41.185,jersey_experiment_5_v0,2023.2.2,Win32,85.47008547,,,,,,,,,,,,,,,,585.7109,586.7578,586.7578,587.9931,return,0.0842,,56.77083333,,,,,,FBP-OG-81.png,0.43,1.2,9,0.25,,,,,,,,,,,,,0,21,21,8,1,,,,,,,,,,,,,,,,,,,,,,,,,,,,
,,,,,SRP24_022,20,Female,2024-04-09_16h05.41.185,jersey_experiment_5_v0,2023.2.2,Win32,85.47008547,,,,,,,,,,,,,,,,587.9933,589.2872,589.2873,590.0168,return,0.2528,,58.203125,,,,,,FBP-PT-18.png,0.45,1.2,55,0.5,,,,,,,,,,,,,0,22,22,54,1,,,,,,,,,,,,,,,,,,,,,,,,,,,,
,,,,,SRP24_022,20,Female,2024-04-09_16h05.41.185,jersey_experiment_5_v0,2023.2.2,Win32,85.47008547,,,,,,,,,,,,,,,,590.0171,591.3112,591.3112,593.511,return,0.1506,,26.43229167,,,,,,FBP-PT-19.png,0.35,1.2,56,0.5,,,,,,,,,,,,,0,23,23,55,1,,,,,,,,,,,,,,,,,,,,,,,,,,,,
,,,,,SRP24_022,20,Female,2024-04-09_16h05.41.185,jersey_experiment_5_v0,2023.2.2,Win32,85.47008547,,,,,,,,,,,,,,,,593.5112,594.8051,594.8052,596.1585,return,0.1141,,42.05729167,,,,,,FBP-YG-19.png,0.4,1.2,28,0.5,,,,,,,,,,,,,0,24,24,27,1,,,,,,,,,,,,,,,,,,,,,,,,,,,,
,,,,,SRP24_022,20,Female,2024-04-09_16h05.41.185,jersey_experiment_5_v0,2023.2.2,Win32,85.47008547,,,,,,,,,,,,,,,,596.1587,597.4525,597.4525,598.3112,return,0.0946,,69.66145833,,,,,,FBP-YG-17.png,0.45,1.2,20,0.5,,,,,,,,,,,,,0,25,25,19,1,,,,,,,,,,,,,,,,,,,,,,,,,,,,
,,,,,SRP24_022,20,Female,2024-04-09_16h05.41.185,jersey_experiment_5_v0,2023.2.2,Win32,85.47008547,,,,,,,,,,,,,,,,598.3115,599.3584,599.3584,600.7349,return,0.1491,,38.671875,,,,,,FBP-RB-18.png,0.35,1.2,36,0.25,,,,,,,,,,,,,0,26,26,35,1,,,,,,,,,,,,,,,,,,,,,,,,,,,,
,,,,,SRP24_022,20,Female,2024-04-09_16h05.41.185,jersey_experiment_5_v0,2023.2.2,Win32,85.47008547,,,,,,,,,,,,,,,,600.7351,601.7819,601.7819,602.582,return,0.0709,,49.21875,,,,,,FBP-RB-19.png,0.43,1.2,44,0.25,,,,,,,,,,,,,0,27,27,43,1,,,,,,,,,,,,,,,,,,,,,,,,,,,,
,,,,,SRP24_022,20,Female,2024-04-09_16h05.41.185,jersey_experiment_5_v0,2023.2.2,Win32,85.47008547,,,,,,,,,,,,,,,,602.5822,603.629,603.629,604.6055,return,0.1481,,35.80729167,,,,,,FBP-OG-71.png,0.37,1.2,2,0.25,,,,,,,,,,,,,0,28,28,1,1,,,,,,,,,,,,,,,,,,,,,,,,,,,,
,,,,,SRP24_022,20,Female,2024-04-09_16h05.41.185,jersey_experiment_5_v0,2023.2.2,Win32,85.47008547,,,,,,,,,,,,,,,,604.6058,605.6525,605.6526,606.4411,return,0.1886,,36.328125,,,,,,FBP-RB-17.png,0.37,1.2,32,0.25,,,,,,,,,,,,,0,29,29,31,1,,,,,,,,,,,,,,,,,,,,,,,,,,,,
,,,,,SRP24_022,20,Female,2024-04-09_16h05.41.185,jersey_experiment_5_v0,2023.2.2,Win32,85.47008547,,,,,,,,,,,,,,,,606.4412,607.488,607.488,608.5939,return,0.1694,,66.27604167,,,,,,FBP-RB-18.png,0.45,1.2,40,0.25,,,,,,,,,,,,,0,30,30,39,1,,,,,,,,,,,,,,,,,,,,,,,,,,,,
,,,,,SRP24_022,20,Female,2024-04-09_16h05.41.185,jersey_experiment_5_v0,2023.2.2,Win32,85.47008547,,,,,,,,,,,,,,,,608.5941,609.6411,609.6411,610.5352,return,0.1184,,60.546875,,,,,,FBP-RB-18.png,0.43,1.2,39,0.25,,,,,,,,,,,,,0,31,31,38,1,,,,,,,,,,,,,,,,,,,,,,,,,,,,
,,,,,SRP24_022,20,Female,2024-04-09_16h05.41.185,jersey_experiment_5_v0,2023.2.2,Win32,85.47008547,,,,,,,,,,,,,,,,610.5355,611.5824,611.5824,612.7235,return,0.1417,,33.72395833,,,,,,FBP-OG-81.png,0.35,1.2,6,0.25,,,,,,,,,,,,,0,32,32,5,1,,,,,,,,,,,,,,,,,,,,,,,,,,,,
,,,,,SRP24_022,20,Female,2024-04-09_16h05.41.185,jersey_experiment_5_v0,2023.2.2,Win32,85.47008547,,,,,,,,,,,,,,,,612.7238,614.0177,614.0179,614.6883,return,0.1336,,61.84895833,,,,,,FBP-YG-17.png,0.43,1.2,19,0.5,,,,,,,,,,,,,0,33,33,18,1,,,,,,,,,,,,,,,,,,,,,,,,,,,,
,,,,,SRP24_022,20,Female,2024-04-09_16h05.41.185,jersey_experiment_5_v0,2023.2.2,Win32,85.47008547,,,,,,,,,,,,,,,,614.6885,615.7354,615.7355,616.8885,return,0.1788,,42.44791667,,,,,,FBP-RB-18.png,0.37,1.2,37,0.25,,,,,,,,,,,,,0,34,34,36,1,,,,,,,,,,,,,,,,,,,,,,,,,,,,
,,,,,SRP24_022,20,Female,2024-04-09_16h05.41.185,jersey_experiment_5_v0,2023.2.2,Win32,85.47008547,,,,,,,,,,,,,,,,616.8887,617.9354,617.9354,618.9122,return,0.1693,,58.984375,,,,,,FBP-OG-91.png,0.43,1.2,14,0.25,,,,,,,,,,,,,0,35,35,13,1,,,,,,,,,,,,,,,,,,,,,,,,,,,,
,,,,,SRP24_022,20,Female,2024-04-09_16h05.41.185,jersey_experiment_5_v0,2023.2.2,Win32,85.47008547,,,,,,,,,,,,,,,,618.9125,620.2061,620.2062,621.0652,return,0.2356,,36.58854167,,,,,,FBP-YG-18.png,0.35,1.2,21,0.5,,,,,,,,,,,,,0,36,36,20,1,,,,,,,,,,,,,,,,,,,,,,,,,,,,
,,,,,SRP24_022,20,Female,2024-04-09_16h05.41.185,jersey_experiment_5_v0,2023.2.2,Win32,85.47008547,,,,,,,,,,,,,,,,621.0655,622.1124,622.1125,622.9945,return,0.1551,,40.36458333,,,,,,FBP-RB-17.png,0.4,1.2,33,0.25,,,,,,,,,,,,,0,37,37,32,1,,,,,,,,,,,,,,,,,,,,,,,,,,,,
,,,,,SRP24_022,20,Female,2024-04-09_16h05.41.185,jersey_experiment_5_v0,2023.2.2,Win32,85.47008547,,,,,,,,,,,,,,,,622.9948,624.2886,624.2886,625.7475,return,0.1062,,38.15104167,,,,,,FBP-YG-18.png,0.37,1.2,22,0.5,,,,,,,,,,,,,0,38,38,21,1,,,,,,,,,,,,,,,,,,,,,,,,,,,,
,,,,,SRP24_022,20,Female,2024-04-09_16h05.41.185,jersey_experiment_5_v0,2023.2.2,Win32,85.47008547,,,,,,,,,,,,,,,,625.7477,627.0417,627.0418,627.7006,return,0.1301,,62.109375,,,,,,FBP-PT-18.png,0.43,1.2,54,0.5,,,,,,,,,,,,,0,39,39,53,1,,,,,,,,,,,,,,,,,,,,,,,,,,,,
,,,,,SRP24_022,20,Female,2024-04-09_16h05.41.185,jersey_experiment_5_v0,2023.2.2,Win32,85.47008547,,,,,,,,,,,,,,,,627.7008,628.7477,628.7478,629.7947,return,0.1449,,32.68229167,,,,,,FBP-RB-19.png,0.35,1.2,41,0.25,,,,,,,,,,,,,0,40,40,40,1,,,,,,,,,,,,,,,,,,,,,,,,,,,,
,,,,,SRP24_022,20,Female,2024-04-09_16h05.41.185,jersey_experiment_5_v0,2023.2.2,Win32,85.47008547,,,,,,,,,,,,,,,,629.7949,631.089,631.0891,631.7597,return,0.1364,,32.68229167,,,,,,FBP-YG-19.png,0.37,1.2,27,0.5,,,,,,,,,,,,,0,41,41,26,1,,,,,,,,,,,,,,,,,,,,,,,,,,,,
,,,,,SRP24_022,20,Female,2024-04-09_16h05.41.185,jersey_experiment_5_v0,2023.2.2,Win32,85.47008547,,,,,,,,,,,,,,,,631.7599,633.0537,633.0537,633.6186,return,0.1191,,32.16145833,,,,,,FBP-PT-19.png,0.37,1.2,57,0.5,,,,,,,,,,,,,0,42,42,56,1,,,,,,,,,,,,,,,,,,,,,,,,,,,,
,,,,,SRP24_022,20,Female,2024-04-09_16h05.41.185,jersey_experiment_5_v0,2023.2.2,Win32,85.47008547,,,,,,,,,,,,,,,,633.6189,634.9125,634.9126,635.7597,return,0.1458,,27.34375,,,,,,FBP-PT-18.png,0.4,1.2,53,0.5,,,,,,,,,,,,,0,43,43,52,1,,,,,,,,,,,,,,,,,,,,,,,,,,,,
,,,,,SRP24_022,20,Female,2024-04-09_16h05.41.185,jersey_experiment_5_v0,2023.2.2,Win32,85.47008547,,,,,,,,,,,,,,,,635.7599,637.0538,637.0539,637.6185,return,0.0865,,57.29166667,,,,,,FBP-YG-19.png,0.43,1.2,29,0.5,,,,,,,,,,,,,0,44,44,28,1,,,,,,,,,,,,,,,,,,,,,,,,,,,,
,,,,,SRP24_022,20,Female,2024-04-09_16h05.41.185,jersey_experiment_5_v0,2023.2.2,Win32,85.47008547,,,,,,,,,,,,,,,,637.6187,638.913,638.913,640.407,return,0.6925,,73.95833333,,,,,,FBP-YG-19.png,0.45,1.2,30,0.5,,,,,,,,,,,,,0,45,45,29,1,,,,,,,,,,,,,,,,,,,,,,,,,,,,
,,,,,SRP24_022,20,Female,2024-04-09_16h05.41.185,jersey_experiment_5_v0,2023.2.2,Win32,85.47008547,,,,,,,,,,,,,,,,640.4073,641.454,641.454,645.5129,return,0.1881,,40.88541667,,,,,,FBP-OG-81.png,0.45,1.2,10,0.25,,,,,,,,,,,,,0,46,46,9,1,,,,,,,,,,,,,,,,,,,,,,,,,,,,
,,,,,SRP24_022,20,Female,2024-04-09_16h05.41.185,jersey_experiment_5_v0,2023.2.2,Win32,85.47008547,,,,,,,,,,,,,,,,645.5132,646.8071,646.8071,648.1132,return,0.1923,,19.01041667,,,,,,FBP-YG-17.png,0.35,1.2,16,0.5,,,,,,,,,,,,,0,47,47,15,1,,,,,,,,,,,,,,,,,,,,,,,,,,,,
,,,,,SRP24_022,20,Female,2024-04-09_16h05.41.185,jersey_experiment_5_v0,2023.2.2,Win32,85.47008547,,,,,,,,,,,,,,,,648.1134,649.1602,649.1603,651.4544,return,0.8909,,70.703125,,,,,,FBP-RB-17.png,0.45,1.2,35,0.25,,,,,,,,,,,,,0,48,48,34,1,,,,,,,,,,,,,,,,,,,,,,,,,,,,
,,,,,SRP24_022,20,Female,2024-04-09_16h05.41.185,jersey_experiment_5_v0,2023.2.2,Win32,85.47008547,,,,,,,,,,,,,,,,651.4547,652.5014,652.5014,655.1134,return,1.4452,,17.70833333,,,,,,FBP-OG-91.png,0.4,1.2,13,0.25,,,,,,,,,,,,,0,49,49,12,1,,,,,,,,,,,,,,,,,,,,,,,,,,,,
,,,,,SRP24_022,20,Female,2024-04-09_16h05.41.185,jersey_experiment_5_v0,2023.2.2,Win32,85.47008547,,,,,,,,,,,,,,,,655.1136,656.1605,656.1605,658.0312,return,0.8307,,41.14583333,,,,,,FBP-RB-17.png,0.43,1.2,34,0.25,,,,,,,,,,,,,0,50,50,33,1,,,,,,,,,,,,,,,,,,,,,,,,,,,,
,,,,,SRP24_022,20,Female,2024-04-09_16h05.41.185,jersey_experiment_5_v0,2023.2.2,Win32,85.47008547,,,,,,,,,,,,,,,,658.0314,659.3253,659.3254,660.7019,return,0.195,,38.671875,,,,,,FBP-YG-18.png,0.43,1.2,24,0.5,,,,,,,,,,,,,0,51,51,23,1,,,,,,,,,,,,,,,,,,,,,,,,,,,,
,,,,,SRP24_022,20,Female,2024-04-09_16h05.41.185,jersey_experiment_5_v0,2023.2.2,Win32,85.47008547,,,,,,,,,,,,,,,,660.7022,661.7489,661.7489,662.8548,return,0.0708,,25.65104167,,,,,,FBP-OG-71.png,0.35,1.2,1,0.25,,,,,,,,,,,,,0,52,52,0,1,,,,,,,,,,,,,,,,,,,,,,,,,,,,
,,,,,SRP24_022,20,Female,2024-04-09_16h05.41.185,jersey_experiment_5_v0,2023.2.2,Win32,85.47008547,,,,,,,,,,,,,,,,662.855,664.149,664.149,665.3844,return,0.1413,,34.375,,,,,,FBP-YG-18.png,0.4,1.2,23,0.5,,,,,,,,,,,,,0,53,53,22,1,,,,,,,,,,,,,,,,,,,,,,,,,,,,
,,,,,SRP24_022,20,Female,2024-04-09_16h05.41.185,jersey_experiment_5_v0,2023.2.2,Win32,85.47008547,,,,,,,,,,,,,,,,665.3846,666.6786,666.6786,667.8316,return,0.2011,,68.61979167,,,,,,FBP-YG-18.png,0.45,1.2,25,0.5,,,,,,,,,,,,,0,54,54,24,1,,,,,,,,,,,,,,,,,,,,,,,,,,,,
,,,,,SRP24_022,20,Female,2024-04-09_16h05.41.185,jersey_experiment_5_v0,2023.2.2,Win32,85.47008547,,,,,,,,,,,,,,,,667.8318,668.8785,668.8785,672.2552,return,0.9935,,59.50520833,,,,,,FBP-RB-19.png,0.45,1.2,45,0.25,,,,,,,,,,,,,0,55,55,44,1,,,,,,,,,,,,,,,,,,,,,,,,,,,,
,,,,,SRP24_022,20,Female,2024-04-09_16h05.41.185,jersey_experiment_5_v0,2023.2.2,Win32,85.47008547,,,,,,,,,,,,,,,,672.2555,673.5495,673.5495,674.773,return,0.1321,,29.03645833,,,,,,FBP-YG-19.png,0.35,1.2,26,0.5,,,,,,,,,,,,,0,56,56,25,1,,,,,,,,,,,,,,,,,,,,,,,,,,,,
,,,,,SRP24_022,20,Female,2024-04-09_16h05.41.185,jersey_experiment_5_v0,2023.2.2,Win32,85.47008547,,,,,,,,,,,,,,,,674.7733,676.0673,676.0673,677.2788,return,0.1254,,29.94791667,,,,,,FBP-PT-19.png,0.4,1.2,58,0.5,,,,,,,,,,,,,0,57,57,57,1,,,,,,,,,,,,,,,,,,,,,,,,,,,,
,,,,,SRP24_022,20,Female,2024-04-09_16h05.41.185,jersey_experiment_5_v0,2023.2.2,Win32,85.47008547,,,,,,,,,,,,,,,,677.2791,678.3259,678.3259,679.9849,return,0.2645,,31.25,,,,,,FBP-OG-91.png,0.37,1.2,12,0.25,,,,,,,,,,,,,0,58,58,11,1,,,,,,,,,,,,,,,,,,,,,,,,,,,,
,,,,,SRP24_022,20,Female,2024-04-09_16h05.41.185,jersey_experiment_5_v0,2023.2.2,Win32,85.47008547,,,,,,,,,,,,,,,,679.9851,681.0319,681.0319,682.3027,return,0.3727,,51.5625,,,,,,FBP-OG-71.png,0.43,1.2,4,0.25,,,,,,,,,,,,,0,59,59,3,1,,,,,,,,,,,,,,,,,,,,,,,,,,,,
,,,,,SRP24_022,20,Female,2024-04-09_16h05.41.185,jersey_experiment_5_v0,2023.2.2,Win32,85.47008547,,,,,,,,,,,,,,,,682.3039,683.5969,683.597,684.291,return,0.1683,,63.02083333,,,,,,FBP-YG-81.png,0.45,1.2,25,0.5,,,,,,,,,,,,,,,,,,0,0,0,24,1,,,,,,,,,,,,,,,,,,,,,,,
,,,,,SRP24_022,20,Female,2024-04-09_16h05.41.185,jersey_experiment_5_v0,2023.2.2,Win32,85.47008547,,,,,,,,,,,,,,,,684.2912,685.5852,685.5853,686.703,return,0.1464,,33.46354167,,,,,,FBP-YG-71.png,0.35,1.2,16,0.5,,,,,,,,,,,,,,,,,,0,1,1,15,1,,,,,,,,,,,,,,,,,,,,,,,
,,,,,SRP24_022,20,Female,2024-04-09_16h05.41.185,jersey_experiment_5_v0,2023.2.2,Win32,85.47008547,,,,,,,,,,,,,,,,686.7033,687.9972,687.9972,688.903,return,0.1648,,69.27083333,,,,,,FBP-PT-81.png,0.45,1.2,55,0.5,,,,,,,,,,,,,,,,,,0,2,2,54,1,,,,,,,,,,,,,,,,,,,,,,,
,,,,,SRP24_022,20,Female,2024-04-09_16h05.41.185,jersey_experiment_5_v0,2023.2.2,Win32,85.47008547,,,,,,,,,,,,,,,,688.9032,690.197,690.1971,691.1381,return,0.1222,,30.33854167,,,,,,FBP-YG-91.png,0.35,1.2,26,0.5,,,,,,,,,,,,,,,,,,0,3,3,25,1,,,,,,,,,,,,,,,,,,,,,,,
,,,,,SRP24_022,20,Female,2024-04-09_16h05.41.185,jersey_experiment_5_v0,2023.2.2,Win32,85.47008547,,,,,,,,,,,,,,,,691.1383,692.1854,692.1855,693.0323,return,0.1551,,32.94270833,,,,,,FBP-OG-17.png,0.4,1.2,3,0.25,,,,,,,,,,,,,,,,,,0,4,4,2,1,,,,,,,,,,,,,,,,,,,,,,,
,,,,,SRP24_022,20,Female,2024-04-09_16h05.41.185,jersey_experiment_5_v0,2023.2.2,Win32,85.47008547,,,,,,,,,,,,,,,,693.0325,694.3268,694.3268,694.9736,return,0.1739,,34.63541667,,,,,,FBP-PT-91.png,0.35,1.2,56,0.5,,,,,,,,,,,,,,,,,,0,5,5,55,1,,,,,,,,,,,,,,,,,,,,,,,
,,,,,SRP24_022,20,Female,2024-04-09_16h05.41.185,jersey_experiment_5_v0,2023.2.2,Win32,85.47008547,,,,,,,,,,,,,,,,694.9738,696.0208,696.0209,698.9974,return,0.5757,,44.40104167,,,,,,FBP-OG-19.png,0.37,1.2,12,0.25,,,,,,,,,,,,,,,,,,0,6,6,11,1,,,,,,,,,,,,,,,,,,,,,,,
,,,,,SRP24_022,20,Female,2024-04-09_16h05.41.185,jersey_experiment_5_v0,2023.2.2,Win32,85.47008547,,,,,,,,,,,,,,,,698.9976,700.2917,700.2917,702.0799,return,0.76,,66.66666667,,,,,,FBP-PT-71.png,0.45,1.2,50,0.5,,,,,,,,,,,,,,,,,,0,7,7,49,1,,,,,,,,,,,,,,,,,,,,,,,
,,,,,SRP24_022,20,Female,2024-04-09_16h05.41.185,jersey_experiment_5_v0,2023.2.2,Win32,85.47008547,,,,,,,,,,,,,,,,702.0802,703.1271,703.1272,704.3505,return,0.1943,,22.91666667,,,,,,FBP-OG-17.png,0.35,1.2,1,0.25,,,,,,,,,,,,,,,,,,0,8,8,0,1,,,,,,,,,,,,,,,,,,,,,,,
,,,,,SRP24_022,20,Female,2024-04-09_16h05.41.185,jersey_experiment_5_v0,2023.2.2,Win32,85.47008547,,,,,,,,,,,,,,,,704.3507,705.3975,705.3975,706.3742,return,0.1174,,72.13541667,,,,,,FBP-OG-17.png,0.43,1.2,4,0.25,,,,,,,,,,,,,,,,,,0,9,9,3,1,,,,,,,,,,,,,,,,,,,,,,,
,,,,,SRP24_022,20,Female,2024-04-09_16h05.41.185,jersey_experiment_5_v0,2023.2.2,Win32,85.47008547,,,,,,,,,,,,,,,,706.3744,707.6682,707.6683,709.233,return,0.1235,,22.00520833,,,,,,FBP-PT-71.png,0.35,1.2,46,0.5,,,,,,,,,,,,,,,,,,0,10,10,45,1,,,,,,,,,,,,,,,,,,,,,,,
,,,,,SRP24_022,20,Female,2024-04-09_16h05.41.185,jersey_experiment_5_v0,2023.2.2,Win32,85.47008547,,,,,,,,,,,,,,,,709.2332,710.5273,710.5273,711.8921,return,0.191,,52.60416667,,,,,,FBP-YG-81.png,0.37,1.2,22,0.5,,,,,,,,,,,,,,,,,,0,11,11,21,1,,,,,,,,,,,,,,,,,,,,,,,
,,,,,SRP24_022,20,Female,2024-04-09_16h05.41.185,jersey_experiment_5_v0,2023.2.2,Win32,85.47008547,,,,,,,,,,,,,,,,711.8923,712.9391,712.9392,714.1039,return,0.0942,,21.484375,,,,,,FBP-RB-81.png,0.35,1.2,36,0.25,,,,,,,,,,,,,,,,,,0,12,12,35,1,,,,,,,,,,,,,,,,,,,,,,,
,,,,,SRP24_022,20,Female,2024-04-09_16h05.41.185,jersey_experiment_5_v0,2023.2.2,Win32,85.47008547,,,,,,,,,,,,,,,,714.1042,715.151,715.1511,718.657,return,0.1919,,57.68229167,,,,,,FBP-OG-18.png,0.43,1.2,9,0.25,,,,,,,,,,,,,,,,,,0,13,13,8,1,,,,,,,,,,,,,,,,,,,,,,,
,,,,,SRP24_022,20,Female,2024-04-09_16h05.41.185,jersey_experiment_5_v0,2023.2.2,Win32,85.47008547,,,,,,,,,,,,,,,,718.6572,719.704,719.7041,720.5041,return,0.1647,,51.171875,,,,,,FBP-RB-71.png,0.37,1.2,32,0.25,,,,,,,,,,,,,,,,,,0,14,14,31,1,,,,,,,,,,,,,,,,,,,,,,,
,,,,,SRP24_022,20,Female,2024-04-09_16h05.41.185,jersey_experiment_5_v0,2023.2.2,Win32,85.47008547,,,,,,,,,,,,,,,,720.5043,721.5512,721.5513,722.4807,return,0.1002,,74.47916667,,,,,,FBP-RB-91.png,0.43,1.2,44,0.25,,,,,,,,,,,,,,,,,,0,15,15,43,1,,,,,,,,,,,,,,,,,,,,,,,
,,,,,SRP24_022,20,Female,2024-04-09_16h05.41.185,jersey_experiment_5_v0,2023.2.2,Win32,85.47008547,,,,,,,,,,,,,,,,722.4809,723.7749,723.7749,724.7749,return,0.1088,,56.51041667,,,,,,FBP-YG-81.png,0.4,1.2,23,0.5,,,,,,,,,,,,,,,,,,0,16,16,22,1,,,,,,,,,,,,,,,,,,,,,,,
,,,,,SRP24_022,20,Female,2024-04-09_16h05.41.185,jersey_experiment_5_v0,2023.2.2,Win32,85.47008547,,,,,,,,,,,,,,,,724.7751,725.8219,725.8219,726.5161,return,0.0846,,56.90104167,,,,,,FBP-OG-19.png,0.4,1.2,13,0.25,,,,,,,,,,,,,,,,,,0,17,17,12,1,,,,,,,,,,,,,,,,,,,,,,,
,,,,,SRP24_022,20,Female,2024-04-09_16h05.41.185,jersey_experiment_5_v0,2023.2.2,Win32,85.47008547,,,,,,,,,,,,,,,,726.5164,727.5632,727.5633,728.6812,return,0.1317,,71.61458333,,,,,,FBP-RB-81.png,0.45,1.2,40,0.25,,,,,,,,,,,,,,,,,,0,18,18,39,1,,,,,,,,,,,,,,,,,,,,,,,
,,,,,SRP24_022,20,Female,2024-04-09_16h05.41.185,jersey_experiment_5_v0,2023.2.2,Win32,85.47008547,,,,,,,,,,,,,,,,728.6815,729.7278,729.7279,731.2223,return,0.7669,,78.90625,,,,,,FBP-RB-91.png,0.45,1.2,45,0.25,,,,,,,,,,,,,,,,,,0,19,19,44,1,,,,,,,,,,,,,,,,,,,,,,,
,,,,,SRP24_022,20,Female,2024-04-09_16h05.41.185,jersey_experiment_5_v0,2023.2.2,Win32,85.47008547,,,,,,,,,,,,,,,,731.2225,732.5165,732.5165,733.1398,return,0.0501,,73.69791667,,,,,,FBP-YG-91.png,0.45,1.2,30,0.5,,,,,,,,,,,,,,,,,,0,20,20,29,1,,,,,,,,,,,,,,,,,,,,,,,
,,,,,SRP24_022,20,Female,2024-04-09_16h05.41.185,jersey_experiment_5_v0,2023.2.2,Win32,85.47008547,,,,,,,,,,,,,,,,733.14,734.1869,734.1869,734.9282,return,0.0869,,73.828125,,,,,,FBP-OG-17.png,0.45,1.2,5,0.25,,,,,,,,,,,,,,,,,,0,21,21,4,1,,,,,,,,,,,,,,,,,,,,,,,
,,,,,SRP24_022,20,Female,2024-04-09_16h05.41.185,jersey_experiment_5_v0,2023.2.2,Win32,85.47008547,,,,,,,,,,,,,,,,734.9284,736.2225,736.2225,736.9283,return,0.1094,,76.171875,,,,,,FBP-PT-91.png,0.45,1.2,60,0.5,,,,,,,,,,,,,,,,,,0,22,22,59,1,,,,,,,,,,,,,,,,,,,,,,,
,,,,,SRP24_022,20,Female,2024-04-09_16h05.41.185,jersey_experiment_5_v0,2023.2.2,Win32,85.47008547,,,,,,,,,,,,,,,,736.9285,738.2224,738.2225,739.1991,return,0.0904,,27.34375,,,,,,FBP-PT-91.png,0.37,1.2,57,0.5,,,,,,,,,,,,,,,,,,0,23,23,56,1,,,,,,,,,,,,,,,,,,,,,,,
,,,,,SRP24_022,20,Female,2024-04-09_16h05.41.185,jersey_experiment_5_v0,2023.2.2,Win32,85.47008547,,,,,,,,,,,,,,,,739.1994,740.246,740.246,741.9402,return,0.0962,,24.47916667,,,,,,FBP-RB-71.png,0.35,1.2,31,0.25,,,,,,,,,,,,,,,,,,0,24,24,30,1,,,,,,,,,,,,,,,,,,,,,,,
,,,,,SRP24_022,20,Female,2024-04-09_16h05.41.185,jersey_experiment_5_v0,2023.2.2,Win32,85.47008547,,,,,,,,,,,,,,,,741.9404,742.9873,742.9874,743.8698,return,0.0798,,48.56770833,,,,,,FBP-OG-19.png,0.43,1.2,14,0.25,,,,,,,,,,,,,,,,,,0,25,25,13,1,,,,,,,,,,,,,,,,,,,,,,,
,,,,,SRP24_022,20,Female,2024-04-09_16h05.41.185,jersey_experiment_5_v0,2023.2.2,Win32,85.47008547,,,,,,,,,,,,,,,,743.8701,745.1637,745.1637,746.5994,return,0.1039,,39.19270833,,,,,,FBP-PT-81.png,0.37,1.2,52,0.5,,,,,,,,,,,,,,,,,,0,26,26,51,1,,,,,,,,,,,,,,,,,,,,,,,
,,,,,SRP24_022,20,Female,2024-04-09_16h05.41.185,jersey_experiment_5_v0,2023.2.2,Win32,85.47008547,,,,,,,,,,,,,,,,746.5995,747.6465,747.6465,748.6935,return,0.0808,,72.39583333,,,,,,FBP-RB-71.png,0.45,1.2,35,0.25,,,,,,,,,,,,,,,,,,0,27,27,34,1,,,,,,,,,,,,,,,,,,,,,,,
,,,,,SRP24_022,20,Female,2024-04-09_16h05.41.185,jersey_experiment_5_v0,2023.2.2,Win32,85.47008547,,,,,,,,,,,,,,,,748.6936,749.9878,749.9878,752.8701,return,0.3531,,30.078125,,,,,,FBP-PT-81.png,0.35,1.2,51,0.5,,,,,,,,,,,,,,,,,,0,28,28,50,1,,,,,,,,,,,,,,,,,,,,,,,
,,,,,SRP24_022,20,Female,2024-04-09_16h05.41.185,jersey_experiment_5_v0,2023.2.2,Win32,85.47008547,,,,,,,,,,,,,,,,752.8702,754.1643,754.1644,756.8348,return,1.8492,,48.95833333,,,,,,FBP-YG-71.png,0.37,1.2,17,0.5,,,,,,,,,,,,,,,,,,0,29,29,16,1,,,,,,,,,,,,,,,,,,,,,,,
,,,,,SRP24_022,20,Female,2024-04-09_16h05.41.185,jersey_experiment_5_v0,2023.2.2,Win32,85.47008547,,,,,,,,,,,,,,,,756.8349,758.129,758.129,759.8702,return,0.2201,,52.21354167,,,,,,FBP-PT-91.png,0.43,1.2,59,0.5,,,,,,,,,,,,,,,,,,0,30,30,58,1,,,,,,,,,,,,,,,,,,,,,,,
,,,,,SRP24_022,20,Female,2024-04-09_16h05.41.185,jersey_experiment_5_v0,2023.2.2,Win32,85.47008547,,,,,,,,,,,,,,,,759.8705,760.9174,760.9174,762.4233,return,0.2025,,46.35416667,,,,,,FBP-OG-19.png,0.35,1.2,11,0.25,,,,,,,,,,,,,,,,,,0,31,31,10,1,,,,,,,,,,,,,,,,,,,,,,,
,,,,,SRP24_022,20,Female,2024-04-09_16h05.41.185,jersey_experiment_5_v0,2023.2.2,Win32,85.47008547,,,,,,,,,,,,,,,,762.4237,763.7177,763.7177,765.0706,return,0.173,,53.515625,,,,,,FBP-YG-81.png,0.43,1.2,24,0.5,,,,,,,,,,,,,,,,,,0,32,32,23,1,,,,,,,,,,,,,,,,,,,,,,,
,,,,,SRP24_022,20,Female,2024-04-09_16h05.41.185,jersey_experiment_5_v0,2023.2.2,Win32,85.47008547,,,,,,,,,,,,,,,,765.0708,766.3647,766.3648,766.953,return,0.1652,,50.26041667,,,,,,FBP-PT-91.png,0.4,1.2,58,0.5,,,,,,,,,,,,,,,,,,0,33,33,57,1,,,,,,,,,,,,,,,,,,,,,,,
,,,,,SRP24_022,20,Female,2024-04-09_16h05.41.185,jersey_experiment_5_v0,2023.2.2,Win32,85.47008547,,,,,,,,,,,,,,,,766.9531,768.2471,768.2471,769.2236,return,0.0609,,64.453125,,,,,,FBP-YG-71.png,0.43,1.2,19,0.5,,,,,,,,,,,,,,,,,,0,34,34,18,1,,,,,,,,,,,,,,,,,,,,,,,
,,,,,SRP24_022,20,Female,2024-04-09_16h05.41.185,jersey_experiment_5_v0,2023.2.2,Win32,85.47008547,,,,,,,,,,,,,,,,769.2238,770.5178,770.5178,771.8589,return,0.1329,,42.70833333,,,,,,FBP-PT-71.png,0.37,1.2,47,0.5,,,,,,,,,,,,,,,,,,0,35,35,46,1,,,,,,,,,,,,,,,,,,,,,,,
,,,,,SRP24_022,20,Female,2024-04-09_16h05.41.185,jersey_experiment_5_v0,2023.2.2,Win32,85.47008547,,,,,,,,,,,,,,,,771.8592,772.9061,772.9061,774.3769,return,0.6737,,67.05729167,,,,,,FBP-RB-71.png,0.43,1.2,34,0.25,,,,,,,,,,,,,,,,,,0,36,36,33,1,,,,,,,,,,,,,,,,,,,,,,,
,,,,,SRP24_022,20,Female,2024-04-09_16h05.41.185,jersey_experiment_5_v0,2023.2.2,Win32,85.47008547,,,,,,,,,,,,,,,,774.3771,775.4238,775.4238,776.3886,return,0.1765,,61.97916667,,,,,,FBP-RB-81.png,0.4,1.2,38,0.25,,,,,,,,,,,,,,,,,,0,37,37,37,1,,,,,,,,,,,,,,,,,,,,,,,
,,,,,SRP24_022,20,Female,2024-04-09_16h05.41.185,jersey_experiment_5_v0,2023.2.2,Win32,85.47008547,,,,,,,,,,,,,,,,776.3888,777.6827,777.6828,778.6593,return,0.1799,,55.72916667,,,,,,FBP-PT-81.png,0.4,1.2,53,0.5,,,,,,,,,,,,,,,,,,0,38,38,52,1,,,,,,,,,,,,,,,,,,,,,,,
,,,,,SRP24_022,20,Female,2024-04-09_16h05.41.185,jersey_experiment_5_v0,2023.2.2,Win32,85.47008547,,,,,,,,,,,,,,,,778.6595,779.9534,779.9534,780.8359,return,0.1774,,55.98958333,,,,,,FBP-YG-91.png,0.4,1.2,28,0.5,,,,,,,,,,,,,,,,,,0,39,39,27,1,,,,,,,,,,,,,,,,,,,,,,,
,,,,,SRP24_022,20,Female,2024-04-09_16h05.41.185,jersey_experiment_5_v0,2023.2.2,Win32,85.47008547,,,,,,,,,,,,,,,,780.8361,781.8827,781.8829,783.1183,return,0.1498,,64.453125,,,,,,FBP-RB-71.png,0.4,1.2,33,0.25,,,,,,,,,,,,,,,,,,0,40,40,32,1,,,,,,,,,,,,,,,,,,,,,,,
,,,,,SRP24_022,20,Female,2024-04-09_16h05.41.185,jersey_experiment_5_v0,2023.2.2,Win32,85.47008547,,,,,,,,,,,,,,,,783.1186,784.1655,784.1655,785.4595,return,0.1562,,32.29166667,,,,,,FBP-OG-18.png,0.35,1.2,6,0.25,,,,,,,,,,,,,,,,,,0,41,41,5,1,,,,,,,,,,,,,,,,,,,,,,,
,,,,,SRP24_022,20,Female,2024-04-09_16h05.41.185,jersey_experiment_5_v0,2023.2.2,Win32,85.47008547,,,,,,,,,,,,,,,,785.4597,786.5068,786.5068,787.3654,return,0.1312,,35.02604167,,,,,,FBP-RB-91.png,0.37,1.2,42,0.25,,,,,,,,,,,,,,,,,,0,42,42,41,1,,,,,,,,,,,,,,,,,,,,,,,
,,,,,SRP24_022,20,Female,2024-04-09_16h05.41.185,jersey_experiment_5_v0,2023.2.2,Win32,85.47008547,,,,,,,,,,,,,,,,787.3656,788.4125,788.4125,789.3772,return,0.1938,,58.59375,,,,,,FBP-RB-91.png,0.4,1.2,43,0.25,,,,,,,,,,,,,,,,,,0,43,43,42,1,,,,,,,,,,,,,,,,,,,,,,,
,,,,,SRP24_022,20,Female,2024-04-09_16h05.41.185,jersey_experiment_5_v0,2023.2.2,Win32,85.47008547,,,,,,,,,,,,,,,,789.3774,790.4245,790.4245,791.3302,return,0.0513,,26.04166667,,,,,,FBP-RB-91.png,0.35,1.2,41,0.25,,,,,,,,,,,,,,,,,,0,44,44,40,1,,,,,,,,,,,,,,,,,,,,,,,
,,,,,SRP24_022,20,Female,2024-04-09_16h05.41.185,jersey_experiment_5_v0,2023.2.2,Win32,85.47008547,,,,,,,,,,,,,,,,791.3303,792.6247,792.6247,794.0717,return,0.3914,,64.58333333,,,,,,FBP-PT-71.png,0.43,1.2,49,0.5,,,,,,,,,,,,,,,,,,0,45,45,48,1,,,,,,,,,,,,,,,,,,,,,,,
,,,,,SRP24_022,20,Female,2024-04-09_16h05.41.185,jersey_experiment_5_v0,2023.2.2,Win32,85.47008547,,,,,,,,,,,,,,,,794.0719,795.3658,795.3659,796.1658,return,0.1782,,65.88541667,,,,,,FBP-YG-71.png,0.4,1.2,18,0.5,,,,,,,,,,,,,,,,,,0,46,46,17,1,,,,,,,,,,,,,,,,,,,,,,,
,,,,,SRP24_022,20,Female,2024-04-09_16h05.41.185,jersey_experiment_5_v0,2023.2.2,Win32,85.47008547,,,,,,,,,,,,,,,,796.1661,797.2129,797.213,798.119,return,0.1083,,68.48958333,,,,,,FBP-RB-81.png,0.43,1.2,39,0.25,,,,,,,,,,,,,,,,,,0,47,47,38,1,,,,,,,,,,,,,,,,,,,,,,,
,,,,,SRP24_022,20,Female,2024-04-09_16h05.41.185,jersey_experiment_5_v0,2023.2.2,Win32,85.47008547,,,,,,,,,,,,,,,,798.1192,799.1658,799.1658,800.2483,return,0.1978,,28.515625,,,,,,FBP-OG-18.png,0.37,1.2,7,0.25,,,,,,,,,,,,,,,,,,0,48,48,6,1,,,,,,,,,,,,,,,,,,,,,,,
,,,,,SRP24_022,20,Female,2024-04-09_16h05.41.185,jersey_experiment_5_v0,2023.2.2,Win32,85.47008547,,,,,,,,,,,,,,,,800.2485,801.5425,801.5426,810.8369,return,8.1049,,67.44791667,,,,,,FBP-YG-91.png,0.43,1.2,29,0.5,,,,,,,,,,,,,,,,,,0,49,49,28,1,,,,,,,,,,,,,,,,,,,,,,,
,,,,,SRP24_022,20,Female,2024-04-09_16h05.41.185,jersey_experiment_5_v0,2023.2.2,Win32,85.47008547,,,,,,,,,,,,,,,,810.8418,812.1427,812.1428,814.1665,return,0.6966,,42.05729167,,,,,,FBP-PT-71.png,0.4,1.2,48,0.5,,,,,,,,,,,,,,,,,,0,50,50,47,1,,,,,,,,,,,,,,,,,,,,,,,
,,,,,SRP24_022,20,Female,2024-04-09_16h05.41.185,jersey_experiment_5_v0,2023.2.2,Win32,85.47008547,,,,,,,,,,,,,,,,814.1667,815.4607,815.4608,816.7078,return,0.5561,,28.90625,,,,,,FBP-YG-91.png,0.37,1.2,27,0.5,,,,,,,,,,,,,,,,,,0,51,51,26,1,,,,,,,,,,,,,,,,,,,,,,,
,,,,,SRP24_022,20,Female,2024-04-09_16h05.41.185,jersey_experiment_5_v0,2023.2.2,Win32,85.47008547,,,,,,,,,,,,,,,,816.708,817.7549,817.7549,819.0608,return,0.6727,,27.734375,,,,,,FBP-OG-18.png,0.4,1.2,8,0.25,,,,,,,,,,,,,,,,,,0,52,52,7,1,,,,,,,,,,,,,,,,,,,,,,,
,,,,,SRP24_022,20,Female,2024-04-09_16h05.41.185,jersey_experiment_5_v0,2023.2.2,Win32,85.47008547,,,,,,,,,,,,,,,,819.061,820.3551,820.3552,821.1431,return,0.1983,,26.30208333,,,,,,FBP-YG-81.png,0.35,1.2,21,0.5,,,,,,,,,,,,,,,,,,0,53,53,20,1,,,,,,,,,,,,,,,,,,,,,,,
,,,,,SRP24_022,20,Female,2024-04-09_16h05.41.185,jersey_experiment_5_v0,2023.2.2,Win32,85.47008547,,,,,,,,,,,,,,,,821.1432,822.1903,822.1903,823.0493,return,0.1647,,29.94791667,,,,,,FBP-RB-81.png,0.37,1.2,37,0.25,,,,,,,,,,,,,,,,,,0,54,54,36,1,,,,,,,,,,,,,,,,,,,,,,,
,,,,,SRP24_022,20,Female,2024-04-09_16h05.41.185,jersey_experiment_5_v0,2023.2.2,Win32,85.47008547,,,,,,,,,,,,,,,,823.0496,824.0962,824.0963,825.0257,return,0.1698,,30.20833333,,,,,,FBP-OG-17.png,0.37,1.2,2,0.25,,,,,,,,,,,,,,,,,,0,55,55,1,1,,,,,,,,,,,,,,,,,,,,,,,
,,,,,SRP24_022,20,Female,2024-04-09_16h05.41.185,jersey_experiment_5_v0,2023.2.2,Win32,85.47008547,,,,,,,,,,,,,,,,825.0259,826.32,826.32,827.061,return,0.1555,,54.16666667,,,,,,FBP-PT-81.png,0.43,1.2,54,0.5,,,,,,,,,,,,,,,,,,0,56,56,53,1,,,,,,,,,,,,,,,,,,,,,,,
,,,,,SRP24_022,20,Female,2024-04-09_16h05.41.185,jersey_experiment_5_v0,2023.2.2,Win32,85.47008547,,,,,,,,,,,,,,,,827.0612,828.1082,828.1083,828.9319,return,0.13,,69.79166667,,,,,,FBP-OG-19.png,0.45,1.2,15,0.25,,,,,,,,,,,,,,,,,,0,57,57,14,1,,,,,,,,,,,,,,,,,,,,,,,
,,,,,SRP24_022,20,Female,2024-04-09_16h05.41.185,jersey_experiment_5_v0,2023.2.2,Win32,85.47008547,,,,,,,,,,,,,,,,828.9321,830.2259,830.2259,830.8729,return,0.1417,,73.95833333,,,,,,FBP-YG-71.png,0.45,1.2,20,0.5,,,,,,,,,,,,,,,,,,0,58,58,19,1,,,,,,,,,,,,,,,,,,,,,,,
,,,,,SRP24_022,20,Female,2024-04-09_16h05.41.185,jersey_experiment_5_v0,2023.2.2,Win32,85.47008547,,,,,,,,,,,,,,,,830.8731,831.9199,831.9201,832.8377,return,0.1889,,75.91145833,,,,,,FBP-OG-18.png,0.45,1.2,10,0.25,,,,,,,,,,,,,,,,,,0,59,59,9,1,,,,,,,,,,,,,,,,,,,,,,,
,,,,,SRP24_022,20,Female,2024-04-09_16h05.41.185,jersey_experiment_5_v0,2023.2.2,Win32,85.47008547,,,,,,,,,,,,,,,,,,,,,,,,,,,,,,,,,,,,,,,,,,,,,,,,,,,,,,,,832.8381,835.0617,return,2.2113,,,,,,,,,,,,,,,,,,,
,,,,,SRP24_022,20,Female,2024-04-09_16h05.41.185,jersey_experiment_5_v0,2023.2.2,Win32,85.47008547,,,,,,,,,,,,,,,,,,,,,,,,,,,,,,,,,,,,,,,,,,,,,,,,,,,,,,,,,,,,,835.0618,838.1205,1,2.403,return,0.6352,,,,,,,,,,,,
,,,,,SRP24_022,20,Female,2024-04-09_16h05.41.185,jersey_experiment_5_v0,2023.2.2,Win32,85.47008547,,,,,,,,,,,,,,,,,,,,,,,,,,,,,,,,,,,,,,,,,,,,,,,,,,,,,,,,,,,,,,,,,,,,838.1207,896.0218,"Not sure what the study is about, but perhaps body image and how we evaluate thinness based on the race of the referent. I did not notice any particular patterns in the experiment.",right,51.6545,,,,,,
,,,,,SRP24_022,20,Female,2024-04-09_16h05.41.185,jersey_experiment_5_v0,2023.2.2,Win32,85.47008547,,,,,,,,,,,,,,,,,,,,,,,,,,,,,,,,,,,,,,,,,,,,,,,,,,,,,,,,,,,,,,,,,,,,,,,,,,896.0219,897.9343,return,1.9078,