requirements.started,requirements.stopped,key_resp_3.keys,key_resp_3.rt,key_resp_3.duration,Subject ID,Age,Gender,date,expName,psychopyVersion,OS,frameRate,instructions1.started,instructions1.stopped,key_resp.keys,key_resp.rt,key_resp.duration,example.started,example.stopped,enter_2.keys,enter_2.rt,enter_2.duration,instructions2.started,instructions2.stopped,enter_3.keys,enter_3.rt,enter_3.duration,image.started,image.stopped,slider_2.started,slider_2.stopped,next.keys,next.rt,next.duration,slider.response,trial_block_1.thisRepN,trial_block_1.thisTrialN,trial_block_1.thisN,trial_block_1.thisIndex,trial_block_1.ran,Path,Width,Height,Index,Duration,trial_block_2.thisRepN,trial_block_2.thisTrialN,trial_block_2.thisN,trial_block_2.thisIndex,trial_block_2.ran,rest_break.started,rest_break.stopped,end_break.started,end_break.stopped,key_resp_5.keys,key_resp_5.rt,key_resp_5.duration,trial_block_3.thisRepN,trial_block_3.thisTrialN,trial_block_3.thisN,trial_block_3.thisIndex,trial_block_3.ran,trial_block_4.thisRepN,trial_block_4.thisTrialN,trial_block_4.thisN,trial_block_4.thisIndex,trial_block_4.ran,questions_intro.started,questions_intro.stopped,enter_12.keys,enter_12.rt,enter_12.duration,question2.started,question2.stopped,question_doingbest.response,question_doingbest.rt,enter_15.keys,enter_15.rt,enter_15.duration,pattern.started,pattern.stopped,pattern_2.text,enter_17.keys,enter_17.rt,enter_17.duration,thankyou.started,thankyou.stopped,enter_14.keys,enter_14.rt,enter_14.duration
0.0001,7.4245,return,7.4173,,SRP24_033,21,Female,2024-04-10_16h30.23.644,jersey_experiment_5_v0,2023.2.2,Win32,84.74576271,,,,,,,,,,,,,,,,,,,,,,,,,,,,,,,,,,,,,,,,,,,,,,,,,,,,,,,,,,,,,,,,,,,,,,,,,,,,,,
,,,,,SRP24_033,21,Female,2024-04-10_16h30.23.644,jersey_experiment_5_v0,2023.2.2,Win32,84.74576271,7.4246,13.4129,return,5.9751,,,,,,,,,,,,,,,,,,,,,,,,,,,,,,,,,,,,,,,,,,,,,,,,,,,,,,,,,,,,,,,,,,,,,,,,,,
,,,,,SRP24_033,21,Female,2024-04-10_16h30.23.644,jersey_experiment_5_v0,2023.2.2,Win32,84.74576271,,,,,,13.4129,17.6129,return,4.169,,,,,,,,,,,,,,,,,,,,,,,,,,,,,,,,,,,,,,,,,,,,,,,,,,,,,,,,,,,,,,,,,,,,,
,,,,,SRP24_033,21,Female,2024-04-10_16h30.23.644,jersey_experiment_5_v0,2023.2.2,Win32,84.74576271,,,,,,,,,,,17.6131,32.637,return,15.0169,,,,,,,,,,,,,,,,,,,,,,,,,,,,,,,,,,,,,,,,,,,,,,,,,,,,,,,,,,,,,,,,
,,,,,SRP24_033,21,Female,2024-04-10_16h30.23.644,jersey_experiment_5_v0,2023.2.2,Win32,84.74576271,,,,,,,,,,,,,,,,32.6441,33.9427,33.9428,49.6139,return,5.4282,,74.609375,0,0,0,9,1,FBP-OG-81.png,0.45,1.2,10,0.5,,,,,,,,,,,,,,,,,,,,,,,,,,,,,,,,,,,,,,,,,,,,,
,,,,,SRP24_033,21,Female,2024-04-10_16h30.23.644,jersey_experiment_5_v0,2023.2.2,Win32,84.74576271,,,,,,,,,,,,,,,,49.6185,50.6611,50.6611,53.6022,return,0.9413,,24.86979167,0,1,1,46,1,FBP-PT-17.png,0.37,1.2,47,0.25,,,,,,,,,,,,,,,,,,,,,,,,,,,,,,,,,,,,,,,,,,,,,
,,,,,SRP24_033,21,Female,2024-04-10_16h30.23.644,jersey_experiment_5_v0,2023.2.2,Win32,84.74576271,,,,,,,,,,,,,,,,53.6025,54.8963,54.8964,59.0378,return,0.5931,,65.49479167,0,2,2,12,1,FBP-OG-91.png,0.4,1.2,13,0.5,,,,,,,,,,,,,,,,,,,,,,,,,,,,,,,,,,,,,,,,,,,,,
,,,,,SRP24_033,21,Female,2024-04-10_16h30.23.644,jersey_experiment_5_v0,2023.2.2,Win32,84.74576271,,,,,,,,,,,,,,,,59.0381,60.3318,60.3318,62.4966,return,0.6942,,83.203125,0,3,3,14,1,FBP-OG-91.png,0.45,1.2,15,0.5,,,,,,,,,,,,,,,,,,,,,,,,,,,,,,,,,,,,,,,,,,,,,
,,,,,SRP24_033,21,Female,2024-04-10_16h30.23.644,jersey_experiment_5_v0,2023.2.2,Win32,84.74576271,,,,,,,,,,,,,,,,62.4968,63.5437,63.5437,65.6966,return,0.6606,,83.07291667,0,4,4,49,1,FBP-PT-17.png,0.45,1.2,50,0.25,,,,,,,,,,,,,,,,,,,,,,,,,,,,,,,,,,,,,,,,,,,,,
,,,,,SRP24_033,21,Female,2024-04-10_16h30.23.644,jersey_experiment_5_v0,2023.2.2,Win32,84.74576271,,,,,,,,,,,,,,,,65.6968,66.7437,66.7438,68.9323,return,0.5086,,82.8125,0,5,5,25,1,FBP-YG-19.png,0.35,1.2,26,0.25,,,,,,,,,,,,,,,,,,,,,,,,,,,,,,,,,,,,,,,,,,,,,
,,,,,SRP24_033,21,Female,2024-04-10_16h30.23.644,jersey_experiment_5_v0,2023.2.2,Win32,84.74576271,,,,,,,,,,,,,,,,68.9325,70.2262,70.2262,73.3797,return,0.5426,,24.86979167,0,6,6,5,1,FBP-OG-81.png,0.35,1.2,6,0.5,,,,,,,,,,,,,,,,,,,,,,,,,,,,,,,,,,,,,,,,,,,,,
,,,,,SRP24_033,21,Female,2024-04-10_16h30.23.644,jersey_experiment_5_v0,2023.2.2,Win32,84.74576271,,,,,,,,,,,,,,,,73.3799,74.4264,74.4264,76.8501,return,0.4814,,74.73958333,0,7,7,48,1,FBP-PT-17.png,0.43,1.2,49,0.25,,,,,,,,,,,,,,,,,,,,,,,,,,,,,,,,,,,,,,,,,,,,,
,,,,,SRP24_033,21,Female,2024-04-10_16h30.23.644,jersey_experiment_5_v0,2023.2.2,Win32,84.74576271,,,,,,,,,,,,,,,,76.8502,77.8974,77.8974,80.1328,return,0.2484,,81.11979167,0,8,8,27,1,FBP-YG-19.png,0.4,1.2,28,0.25,,,,,,,,,,,,,,,,,,,,,,,,,,,,,,,,,,,,,,,,,,,,,
,,,,,SRP24_033,21,Female,2024-04-10_16h30.23.644,jersey_experiment_5_v0,2023.2.2,Win32,84.74576271,,,,,,,,,,,,,,,,80.1331,81.4269,81.4269,82.4621,return,0.4268,,81.11979167,0,9,9,36,1,FBP-RB-18.png,0.37,1.2,37,0.5,,,,,,,,,,,,,,,,,,,,,,,,,,,,,,,,,,,,,,,,,,,,,
,,,,,SRP24_033,21,Female,2024-04-10_16h30.23.644,jersey_experiment_5_v0,2023.2.2,Win32,84.74576271,,,,,,,,,,,,,,,,82.4624,83.7562,83.7562,84.6268,return,0.2833,,81.11979167,0,10,10,42,1,FBP-RB-19.png,0.4,1.2,43,0.5,,,,,,,,,,,,,,,,,,,,,,,,,,,,,,,,,,,,,,,,,,,,,
,,,,,SRP24_033,21,Female,2024-04-10_16h30.23.644,jersey_experiment_5_v0,2023.2.2,Win32,84.74576271,,,,,,,,,,,,,,,,84.627,85.6738,85.6738,86.7563,return,0.3401,,81.11979167,0,11,11,16,1,FBP-YG-17.png,0.37,1.2,17,0.25,,,,,,,,,,,,,,,,,,,,,,,,,,,,,,,,,,,,,,,,,,,,,
,,,,,SRP24_033,21,Female,2024-04-10_16h30.23.644,jersey_experiment_5_v0,2023.2.2,Win32,84.74576271,,,,,,,,,,,,,,,,86.7564,88.0504,88.0504,88.9565,return,0.2766,,80.98958333,0,12,12,3,1,FBP-OG-71.png,0.43,1.2,4,0.5,,,,,,,,,,,,,,,,,,,,,,,,,,,,,,,,,,,,,,,,,,,,,
,,,,,SRP24_033,21,Female,2024-04-10_16h30.23.644,jersey_experiment_5_v0,2023.2.2,Win32,84.74576271,,,,,,,,,,,,,,,,88.9567,90.0034,90.0034,94.1918,return,0.4123,,93.61979167,0,13,13,59,1,FBP-PT-19.png,0.45,1.2,60,0.25,,,,,,,,,,,,,,,,,,,,,,,,,,,,,,,,,,,,,,,,,,,,,
,,,,,SRP24_033,21,Female,2024-04-10_16h30.23.644,jersey_experiment_5_v0,2023.2.2,Win32,84.74576271,,,,,,,,,,,,,,,,94.192,95.2389,95.239,97.2037,return,0.2921,,74.73958333,0,14,14,55,1,FBP-PT-19.png,0.35,1.2,56,0.25,,,,,,,,,,,,,,,,,,,,,,,,,,,,,,,,,,,,,,,,,,,,,
,,,,,SRP24_033,21,Female,2024-04-10_16h30.23.644,jersey_experiment_5_v0,2023.2.2,Win32,84.74576271,,,,,,,,,,,,,,,,97.2039,98.4978,98.4979,99.5804,return,0.4164,,75,0,15,15,41,1,FBP-RB-19.png,0.37,1.2,42,0.5,,,,,,,,,,,,,,,,,,,,,,,,,,,,,,,,,,,,,,,,,,,,,
,,,,,SRP24_033,21,Female,2024-04-10_16h30.23.644,jersey_experiment_5_v0,2023.2.2,Win32,84.74576271,,,,,,,,,,,,,,,,99.5805,100.6274,100.6275,102.1451,return,0.5054,,75.52083333,0,16,16,20,1,FBP-YG-18.png,0.35,1.2,21,0.25,,,,,,,,,,,,,,,,,,,,,,,,,,,,,,,,,,,,,,,,,,,,,
,,,,,SRP24_033,21,Female,2024-04-10_16h30.23.644,jersey_experiment_5_v0,2023.2.2,Win32,84.74576271,,,,,,,,,,,,,,,,102.1453,103.4392,103.4392,104.1804,return,0.2824,,75.52083333,0,17,17,39,1,FBP-RB-18.png,0.45,1.2,40,0.5,,,,,,,,,,,,,,,,,,,,,,,,,,,,,,,,,,,,,,,,,,,,,
,,,,,SRP24_033,21,Female,2024-04-10_16h30.23.644,jersey_experiment_5_v0,2023.2.2,Win32,84.74576271,,,,,,,,,,,,,,,,104.1807,105.4746,105.4746,107.5217,return,1.5297,,81.51041667,0,18,18,13,1,FBP-OG-91.png,0.43,1.2,14,0.5,,,,,,,,,,,,,,,,,,,,,,,,,,,,,,,,,,,,,,,,,,,,,
,,,,,SRP24_033,21,Female,2024-04-10_16h30.23.644,jersey_experiment_5_v0,2023.2.2,Win32,84.74576271,,,,,,,,,,,,,,,,107.522,108.5687,108.5688,109.9689,return,0.1645,,75.13020833,0,19,19,26,1,FBP-YG-19.png,0.37,1.2,27,0.25,,,,,,,,,,,,,,,,,,,,,,,,,,,,,,,,,,,,,,,,,,,,,
,,,,,SRP24_033,21,Female,2024-04-10_16h30.23.644,jersey_experiment_5_v0,2023.2.2,Win32,84.74576271,,,,,,,,,,,,,,,,109.9691,111.0159,111.0159,111.969,return,0.1782,,75.13020833,0,20,20,51,1,FBP-PT-18.png,0.37,1.2,52,0.25,,,,,,,,,,,,,,,,,,,,,,,,,,,,,,,,,,,,,,,,,,,,,
,,,,,SRP24_033,21,Female,2024-04-10_16h30.23.644,jersey_experiment_5_v0,2023.2.2,Win32,84.74576271,,,,,,,,,,,,,,,,111.9693,113.2631,113.2632,114.6514,return,0.1836,,80.98958333,0,21,21,4,1,FBP-OG-71.png,0.45,1.2,5,0.5,,,,,,,,,,,,,,,,,,,,,,,,,,,,,,,,,,,,,,,,,,,,,
,,,,,SRP24_033,21,Female,2024-04-10_16h30.23.644,jersey_experiment_5_v0,2023.2.2,Win32,84.74576271,,,,,,,,,,,,,,,,114.6516,115.6985,115.6985,117.275,return,0.2188,,91.14583333,0,22,22,54,1,FBP-PT-18.png,0.45,1.2,55,0.25,,,,,,,,,,,,,,,,,,,,,,,,,,,,,,,,,,,,,,,,,,,,,
,,,,,SRP24_033,21,Female,2024-04-10_16h30.23.644,jersey_experiment_5_v0,2023.2.2,Win32,84.74576271,,,,,,,,,,,,,,,,117.2752,118.3222,118.3222,120.1222,return,0.3851,,85.28645833,0,23,23,22,1,FBP-YG-18.png,0.4,1.2,23,0.25,,,,,,,,,,,,,,,,,,,,,,,,,,,,,,,,,,,,,,,,,,,,,
,,,,,SRP24_033,21,Female,2024-04-10_16h30.23.644,jersey_experiment_5_v0,2023.2.2,Win32,84.74576271,,,,,,,,,,,,,,,,120.1224,121.1693,121.1693,123.2047,return,0.1646,,85.15625,0,24,24,18,1,FBP-YG-17.png,0.43,1.2,19,0.25,,,,,,,,,,,,,,,,,,,,,,,,,,,,,,,,,,,,,,,,,,,,,
,,,,,SRP24_033,21,Female,2024-04-10_16h30.23.644,jersey_experiment_5_v0,2023.2.2,Win32,84.74576271,,,,,,,,,,,,,,,,123.2048,124.4988,124.4988,127.2989,return,0.4563,,24.86979167,0,25,25,35,1,FBP-RB-18.png,0.35,1.2,36,0.5,,,,,,,,,,,,,,,,,,,,,,,,,,,,,,,,,,,,,,,,,,,,,
,,,,,SRP24_033,21,Female,2024-04-10_16h30.23.644,jersey_experiment_5_v0,2023.2.2,Win32,84.74576271,,,,,,,,,,,,,,,,127.2992,128.593,128.593,130.1109,return,0.2036,,75,0,26,26,6,1,FBP-OG-81.png,0.37,1.2,7,0.5,,,,,,,,,,,,,,,,,,,,,,,,,,,,,,,,,,,,,,,,,,,,,
,,,,,SRP24_033,21,Female,2024-04-10_16h30.23.644,jersey_experiment_5_v0,2023.2.2,Win32,84.74576271,,,,,,,,,,,,,,,,130.1111,131.405,131.4051,133.8286,return,1.2615,,87.109375,0,27,27,38,1,FBP-RB-18.png,0.43,1.2,39,0.5,,,,,,,,,,,,,,,,,,,,,,,,,,,,,,,,,,,,,,,,,,,,,
,,,,,SRP24_033,21,Female,2024-04-10_16h30.23.644,jersey_experiment_5_v0,2023.2.2,Win32,84.74576271,,,,,,,,,,,,,,,,133.8289,134.8756,134.8756,137.1345,return,0.1216,,74.47916667,0,28,28,56,1,FBP-PT-19.png,0.37,1.2,57,0.25,,,,,,,,,,,,,,,,,,,,,,,,,,,,,,,,,,,,,,,,,,,,,
,,,,,SRP24_033,21,Female,2024-04-10_16h30.23.644,jersey_experiment_5_v0,2023.2.2,Win32,84.74576271,,,,,,,,,,,,,,,,137.1348,138.4287,138.4288,139.723,return,0.2192,,87.890625,0,29,29,2,1,FBP-OG-71.png,0.4,1.2,3,0.5,,,,,,,,,,,,,,,,,,,,,,,,,,,,,,,,,,,,,,,,,,,,,
,,,,,SRP24_033,21,Female,2024-04-10_16h30.23.644,jersey_experiment_5_v0,2023.2.2,Win32,84.74576271,,,,,,,,,,,,,,,,139.7231,141.0169,141.017,142.9701,return,0.1599,,49.73958333,0,30,30,0,1,FBP-OG-71.png,0.35,1.2,1,0.5,,,,,,,,,,,,,,,,,,,,,,,,,,,,,,,,,,,,,,,,,,,,,
,,,,,SRP24_033,21,Female,2024-04-10_16h30.23.644,jersey_experiment_5_v0,2023.2.2,Win32,84.74576271,,,,,,,,,,,,,,,,142.9703,144.2641,144.2642,145.5232,return,0.1881,,75.390625,0,31,31,33,1,FBP-RB-17.png,0.43,1.2,34,0.5,,,,,,,,,,,,,,,,,,,,,,,,,,,,,,,,,,,,,,,,,,,,,
,,,,,SRP24_033,21,Female,2024-04-10_16h30.23.644,jersey_experiment_5_v0,2023.2.2,Win32,84.74576271,,,,,,,,,,,,,,,,145.5233,146.5701,146.5701,147.3465,return,0.1649,,75.26041667,0,32,32,57,1,FBP-PT-19.png,0.4,1.2,58,0.25,,,,,,,,,,,,,,,,,,,,,,,,,,,,,,,,,,,,,,,,,,,,,
,,,,,SRP24_033,21,Female,2024-04-10_16h30.23.644,jersey_experiment_5_v0,2023.2.2,Win32,84.74576271,,,,,,,,,,,,,,,,147.3466,148.3938,148.3938,151.1468,return,0.1137,,88.41145833,0,33,33,28,1,FBP-YG-19.png,0.43,1.2,29,0.25,,,,,,,,,,,,,,,,,,,,,,,,,,,,,,,,,,,,,,,,,,,,,
,,,,,SRP24_033,21,Female,2024-04-10_16h30.23.644,jersey_experiment_5_v0,2023.2.2,Win32,84.74576271,,,,,,,,,,,,,,,,151.147,152.1939,152.194,153.947,return,0.217,,75,0,34,34,50,1,FBP-PT-18.png,0.35,1.2,51,0.25,,,,,,,,,,,,,,,,,,,,,,,,,,,,,,,,,,,,,,,,,,,,,
,,,,,SRP24_033,21,Female,2024-04-10_16h30.23.644,jersey_experiment_5_v0,2023.2.2,Win32,84.74576271,,,,,,,,,,,,,,,,153.9472,154.9939,154.994,156.994,return,0.2458,,99.609375,0,35,35,19,1,FBP-YG-17.png,0.45,1.2,20,0.25,,,,,,,,,,,,,,,,,,,,,,,,,,,,,,,,,,,,,,,,,,,,,
,,,,,SRP24_033,21,Female,2024-04-10_16h30.23.644,jersey_experiment_5_v0,2023.2.2,Win32,84.74576271,,,,,,,,,,,,,,,,156.9943,158.2882,158.2883,160.3473,return,0.8524,,75.390625,0,36,36,40,1,FBP-RB-19.png,0.35,1.2,41,0.5,,,,,,,,,,,,,,,,,,,,,,,,,,,,,,,,,,,,,,,,,,,,,
,,,,,SRP24_033,21,Female,2024-04-10_16h30.23.644,jersey_experiment_5_v0,2023.2.2,Win32,84.74576271,,,,,,,,,,,,,,,,160.3474,161.3943,161.3944,162.7707,return,0.2114,,74.47916667,0,37,37,29,1,FBP-YG-19.png,0.45,1.2,30,0.25,,,,,,,,,,,,,,,,,,,,,,,,,,,,,,,,,,,,,,,,,,,,,
,,,,,SRP24_033,21,Female,2024-04-10_16h30.23.644,jersey_experiment_5_v0,2023.2.2,Win32,84.74576271,,,,,,,,,,,,,,,,162.7709,163.8178,163.8178,165.9709,return,0.4245,,88.93229167,0,38,38,23,1,FBP-YG-18.png,0.43,1.2,24,0.25,,,,,,,,,,,,,,,,,,,,,,,,,,,,,,,,,,,,,,,,,,,,,
,,,,,SRP24_033,21,Female,2024-04-10_16h30.23.644,jersey_experiment_5_v0,2023.2.2,Win32,84.74576271,,,,,,,,,,,,,,,,165.971,167.265,167.2651,168.9239,return,0.03,,75.13020833,0,39,39,43,1,FBP-RB-19.png,0.43,1.2,44,0.5,,,,,,,,,,,,,,,,,,,,,,,,,,,,,,,,,,,,,,,,,,,,,
,,,,,SRP24_033,21,Female,2024-04-10_16h30.23.644,jersey_experiment_5_v0,2023.2.2,Win32,84.74576271,,,,,,,,,,,,,,,,168.9241,170.218,170.2181,171.3477,return,0.1888,,25.390625,0,40,40,10,1,FBP-OG-91.png,0.35,1.2,11,0.5,,,,,,,,,,,,,,,,,,,,,,,,,,,,,,,,,,,,,,,,,,,,,
,,,,,SRP24_033,21,Female,2024-04-10_16h30.23.644,jersey_experiment_5_v0,2023.2.2,Win32,84.74576271,,,,,,,,,,,,,,,,171.3479,172.3946,172.3947,173.8536,return,0.1109,,25.65104167,0,41,41,21,1,FBP-YG-18.png,0.37,1.2,22,0.25,,,,,,,,,,,,,,,,,,,,,,,,,,,,,,,,,,,,,,,,,,,,,
,,,,,SRP24_033,21,Female,2024-04-10_16h30.23.644,jersey_experiment_5_v0,2023.2.2,Win32,84.74576271,,,,,,,,,,,,,,,,173.8538,174.9006,174.9006,176.3948,return,0.0997,,75.13020833,0,42,42,24,1,FBP-YG-18.png,0.45,1.2,25,0.25,,,,,,,,,,,,,,,,,,,,,,,,,,,,,,,,,,,,,,,,,,,,,
,,,,,SRP24_033,21,Female,2024-04-10_16h30.23.644,jersey_experiment_5_v0,2023.2.2,Win32,84.74576271,,,,,,,,,,,,,,,,176.395,177.4418,177.4418,179.5007,return,0.1219,,88.80208333,0,43,43,58,1,FBP-PT-19.png,0.43,1.2,59,0.25,,,,,,,,,,,,,,,,,,,,,,,,,,,,,,,,,,,,,,,,,,,,,
,,,,,SRP24_033,21,Female,2024-04-10_16h30.23.644,jersey_experiment_5_v0,2023.2.2,Win32,84.74576271,,,,,,,,,,,,,,,,179.5009,180.7949,180.795,181.5361,return,0.2709,,88.80208333,0,44,44,8,1,FBP-OG-81.png,0.43,1.2,9,0.5,,,,,,,,,,,,,,,,,,,,,,,,,,,,,,,,,,,,,,,,,,,,,
,,,,,SRP24_033,21,Female,2024-04-10_16h30.23.644,jersey_experiment_5_v0,2023.2.2,Win32,84.74576271,,,,,,,,,,,,,,,,181.5363,182.5832,182.5833,184.8774,return,0.9226,,49.86979167,0,45,45,45,1,FBP-PT-17.png,0.35,1.2,46,0.25,,,,,,,,,,,,,,,,,,,,,,,,,,,,,,,,,,,,,,,,,,,,,
,,,,,SRP24_033,21,Female,2024-04-10_16h30.23.644,jersey_experiment_5_v0,2023.2.2,Win32,84.74576271,,,,,,,,,,,,,,,,184.8777,185.9246,185.9246,187.7246,return,0.5333,,75.52083333,0,46,46,47,1,FBP-PT-17.png,0.4,1.2,48,0.25,,,,,,,,,,,,,,,,,,,,,,,,,,,,,,,,,,,,,,,,,,,,,
,,,,,SRP24_033,21,Female,2024-04-10_16h30.23.644,jersey_experiment_5_v0,2023.2.2,Win32,84.74576271,,,,,,,,,,,,,,,,187.7248,189.0187,189.0188,189.6423,return,0.2659,,74.609375,0,47,47,32,1,FBP-RB-17.png,0.4,1.2,33,0.5,,,,,,,,,,,,,,,,,,,,,,,,,,,,,,,,,,,,,,,,,,,,,
,,,,,SRP24_033,21,Female,2024-04-10_16h30.23.644,jersey_experiment_5_v0,2023.2.2,Win32,84.74576271,,,,,,,,,,,,,,,,189.6425,190.9365,190.9366,191.4658,return,0.0888,,74.47916667,0,48,48,11,1,FBP-OG-91.png,0.37,1.2,12,0.5,,,,,,,,,,,,,,,,,,,,,,,,,,,,,,,,,,,,,,,,,,,,,
,,,,,SRP24_033,21,Female,2024-04-10_16h30.23.644,jersey_experiment_5_v0,2023.2.2,Win32,84.74576271,,,,,,,,,,,,,,,,191.4662,192.513,192.513,193.1365,return,0.1194,,74.47916667,0,49,49,15,1,FBP-YG-17.png,0.35,1.2,16,0.25,,,,,,,,,,,,,,,,,,,,,,,,,,,,,,,,,,,,,,,,,,,,,
,,,,,SRP24_033,21,Female,2024-04-10_16h30.23.644,jersey_experiment_5_v0,2023.2.2,Win32,84.74576271,,,,,,,,,,,,,,,,193.1368,194.4306,194.4306,196.5132,return,0.1086,,24.609375,0,50,50,1,1,FBP-OG-71.png,0.37,1.2,2,0.5,,,,,,,,,,,,,,,,,,,,,,,,,,,,,,,,,,,,,,,,,,,,,
,,,,,SRP24_033,21,Female,2024-04-10_16h30.23.644,jersey_experiment_5_v0,2023.2.2,Win32,84.74576271,,,,,,,,,,,,,,,,196.5135,197.8074,197.8074,199.4546,return,0.7688,,25.13020833,0,51,51,30,1,FBP-RB-17.png,0.35,1.2,31,0.5,,,,,,,,,,,,,,,,,,,,,,,,,,,,,,,,,,,,,,,,,,,,,
,,,,,SRP24_033,21,Female,2024-04-10_16h30.23.644,jersey_experiment_5_v0,2023.2.2,Win32,84.74576271,,,,,,,,,,,,,,,,199.4549,200.5016,200.5016,202.9134,return,0.2125,,49.86979167,0,52,52,52,1,FBP-PT-18.png,0.4,1.2,53,0.25,,,,,,,,,,,,,,,,,,,,,,,,,,,,,,,,,,,,,,,,,,,,,
,,,,,SRP24_033,21,Female,2024-04-10_16h30.23.644,jersey_experiment_5_v0,2023.2.2,Win32,84.74576271,,,,,,,,,,,,,,,,202.9137,204.2076,204.2076,206.5253,return,1.2628,,75.26041667,0,53,53,44,1,FBP-RB-19.png,0.45,1.2,45,0.5,,,,,,,,,,,,,,,,,,,,,,,,,,,,,,,,,,,,,,,,,,,,,
,,,,,SRP24_033,21,Female,2024-04-10_16h30.23.644,jersey_experiment_5_v0,2023.2.2,Win32,84.74576271,,,,,,,,,,,,,,,,206.5255,207.5724,207.5725,208.2901,return,0.1747,,75.26041667,0,54,54,53,1,FBP-PT-18.png,0.43,1.2,54,0.25,,,,,,,,,,,,,,,,,,,,,,,,,,,,,,,,,,,,,,,,,,,,,
,,,,,SRP24_033,21,Female,2024-04-10_16h30.23.644,jersey_experiment_5_v0,2023.2.2,Win32,84.74576271,,,,,,,,,,,,,,,,208.2904,209.584,209.5841,210.1254,return,0.344,,75.26041667,0,55,55,37,1,FBP-RB-18.png,0.4,1.2,38,0.5,,,,,,,,,,,,,,,,,,,,,,,,,,,,,,,,,,,,,,,,,,,,,
,,,,,SRP24_033,21,Female,2024-04-10_16h30.23.644,jersey_experiment_5_v0,2023.2.2,Win32,84.74576271,,,,,,,,,,,,,,,,210.1257,211.4195,211.4196,213.0667,return,1.2416,,49.73958333,0,56,56,31,1,FBP-RB-17.png,0.37,1.2,32,0.5,,,,,,,,,,,,,,,,,,,,,,,,,,,,,,,,,,,,,,,,,,,,,
,,,,,SRP24_033,21,Female,2024-04-10_16h30.23.644,jersey_experiment_5_v0,2023.2.2,Win32,84.74576271,,,,,,,,,,,,,,,,213.0669,214.3608,214.3608,215.3962,return,0.165,,74.47916667,0,57,57,34,1,FBP-RB-17.png,0.45,1.2,35,0.5,,,,,,,,,,,,,,,,,,,,,,,,,,,,,,,,,,,,,,,,,,,,,
,,,,,SRP24_033,21,Female,2024-04-10_16h30.23.644,jersey_experiment_5_v0,2023.2.2,Win32,84.74576271,,,,,,,,,,,,,,,,215.3964,216.4432,216.4432,217.9375,return,0.1051,,50.26041667,0,58,58,17,1,FBP-YG-17.png,0.4,1.2,18,0.25,,,,,,,,,,,,,,,,,,,,,,,,,,,,,,,,,,,,,,,,,,,,,
,,,,,SRP24_033,21,Female,2024-04-10_16h30.23.644,jersey_experiment_5_v0,2023.2.2,Win32,84.74576271,,,,,,,,,,,,,,,,217.9377,219.2316,219.2316,219.8904,return,0.259,,50.26041667,0,59,59,7,1,FBP-OG-81.png,0.4,1.2,8,0.5,,,,,,,,,,,,,,,,,,,,,,,,,,,,,,,,,,,,,,,,,,,,,
,,,,,SRP24_033,21,Female,2024-04-10_16h30.23.644,jersey_experiment_5_v0,2023.2.2,Win32,84.74576271,,,,,,,,,,,,,,,,219.8919,221.1845,221.1846,221.8434,return,0.1515,,50.26041667,,,,,,FBP-OG-19.png,0.4,1.2,13,0.5,0,0,0,12,1,,,,,,,,,,,,,,,,,,,,,,,,,,,,,,,,,,,,,,,,
,,,,,SRP24_033,21,Female,2024-04-10_16h30.23.644,jersey_experiment_5_v0,2023.2.2,Win32,84.74576271,,,,,,,,,,,,,,,,221.8437,222.8906,222.8907,224.5142,return,0.1777,,74.47916667,,,,,,FBP-YG-81.png,0.43,1.2,24,0.25,0,1,1,23,1,,,,,,,,,,,,,,,,,,,,,,,,,,,,,,,,,,,,,,,,
,,,,,SRP24_033,21,Female,2024-04-10_16h30.23.644,jersey_experiment_5_v0,2023.2.2,Win32,84.74576271,,,,,,,,,,,,,,,,224.5145,225.5611,225.5612,227.2203,return,0.2256,,50.13020833,,,,,,FBP-YG-91.png,0.35,1.2,26,0.25,0,2,2,25,1,,,,,,,,,,,,,,,,,,,,,,,,,,,,,,,,,,,,,,,,
,,,,,SRP24_033,21,Female,2024-04-10_16h30.23.644,jersey_experiment_5_v0,2023.2.2,Win32,84.74576271,,,,,,,,,,,,,,,,227.2205,228.5143,228.5144,230.7613,return,0.1033,,50.52083333,,,,,,FBP-OG-17.png,0.45,1.2,5,0.5,0,3,3,4,1,,,,,,,,,,,,,,,,,,,,,,,,,,,,,,,,,,,,,,,,
,,,,,SRP24_033,21,Female,2024-04-10_16h30.23.644,jersey_experiment_5_v0,2023.2.2,Win32,84.74576271,,,,,,,,,,,,,,,,230.7616,231.8085,231.8086,232.6086,return,0.0005,,50.13020833,,,,,,FBP-PT-71.png,0.4,1.2,48,0.25,0,4,4,47,1,,,,,,,,,,,,,,,,,,,,,,,,,,,,,,,,,,,,,,,,
,,,,,SRP24_033,21,Female,2024-04-10_16h30.23.644,jersey_experiment_5_v0,2023.2.2,Win32,84.74576271,,,,,,,,,,,,,,,,232.6088,233.6556,233.6556,234.8793,return,0.0735,,74.73958333,,,,,,FBP-PT-81.png,0.43,1.2,54,0.25,0,5,5,53,1,,,,,,,,,,,,,,,,,,,,,,,,,,,,,,,,,,,,,,,,
,,,,,SRP24_033,21,Female,2024-04-10_16h30.23.644,jersey_experiment_5_v0,2023.2.2,Win32,84.74576271,,,,,,,,,,,,,,,,234.8795,235.9263,235.9264,237.4557,return,0.0848,,25.26041667,,,,,,FBP-PT-71.png,0.37,1.2,47,0.25,0,6,6,46,1,,,,,,,,,,,,,,,,,,,,,,,,,,,,,,,,,,,,,,,,
,,,,,SRP24_033,21,Female,2024-04-10_16h30.23.644,jersey_experiment_5_v0,2023.2.2,Win32,84.74576271,,,,,,,,,,,,,,,,237.456,238.5028,238.5029,241.5501,return,1.5692,,89.0625,,,,,,FBP-PT-91.png,0.45,1.2,60,0.25,0,7,7,59,1,,,,,,,,,,,,,,,,,,,,,,,,,,,,,,,,,,,,,,,,
,,,,,SRP24_033,21,Female,2024-04-10_16h30.23.644,jersey_experiment_5_v0,2023.2.2,Win32,84.74576271,,,,,,,,,,,,,,,,241.5504,242.8442,242.8443,244.7503,return,0.1808,,5.989583333,,,,,,FBP-OG-19.png,0.35,1.2,11,0.5,0,8,8,10,1,,,,,,,,,,,,,,,,,,,,,,,,,,,,,,,,,,,,,,,,
,,,,,SRP24_033,21,Female,2024-04-10_16h30.23.644,jersey_experiment_5_v0,2023.2.2,Win32,84.74576271,,,,,,,,,,,,,,,,244.7505,246.0443,246.0443,248.315,return,0.1012,,6.770833333,,,,,,FBP-RB-81.png,0.37,1.2,37,0.5,0,9,9,36,1,,,,,,,,,,,,,,,,,,,,,,,,,,,,,,,,,,,,,,,,
,,,,,SRP24_033,21,Female,2024-04-10_16h30.23.644,jersey_experiment_5_v0,2023.2.2,Win32,84.74576271,,,,,,,,,,,,,,,,248.3152,249.6093,249.6094,252.033,return,1.1306,,84.765625,,,,,,FBP-RB-81.png,0.45,1.2,40,0.5,0,10,10,39,1,,,,,,,,,,,,,,,,,,,,,,,,,,,,,,,,,,,,,,,,
,,,,,SRP24_033,21,Female,2024-04-10_16h30.23.644,jersey_experiment_5_v0,2023.2.2,Win32,84.74576271,,,,,,,,,,,,,,,,252.0331,253.0799,253.0799,254.2564,return,0.1081,,50.26041667,,,,,,FBP-YG-71.png,0.43,1.2,19,0.25,0,11,11,18,1,,,,,,,,,,,,,,,,,,,,,,,,,,,,,,,,,,,,,,,,
,,,,,SRP24_033,21,Female,2024-04-10_16h30.23.644,jersey_experiment_5_v0,2023.2.2,Win32,84.74576271,,,,,,,,,,,,,,,,254.2567,255.5506,255.5506,256.8214,return,0.1782,,37.63020833,,,,,,FBP-RB-71.png,0.35,1.2,31,0.5,0,12,12,30,1,,,,,,,,,,,,,,,,,,,,,,,,,,,,,,,,,,,,,,,,
,,,,,SRP24_033,21,Female,2024-04-10_16h30.23.644,jersey_experiment_5_v0,2023.2.2,Win32,84.74576271,,,,,,,,,,,,,,,,256.8216,258.1153,258.1154,260.2567,return,0.1086,,49.609375,,,,,,FBP-RB-71.png,0.4,1.2,33,0.5,0,13,13,32,1,,,,,,,,,,,,,,,,,,,,,,,,,,,,,,,,,,,,,,,,
,,,,,SRP24_033,21,Female,2024-04-10_16h30.23.644,jersey_experiment_5_v0,2023.2.2,Win32,84.74576271,,,,,,,,,,,,,,,,260.2569,261.3037,261.3037,261.9155,return,0.1246,,49.609375,,,,,,FBP-YG-81.png,0.4,1.2,23,0.25,0,14,14,22,1,,,,,,,,,,,,,,,,,,,,,,,,,,,,,,,,,,,,,,,,
,,,,,SRP24_033,21,Female,2024-04-10_16h30.23.644,jersey_experiment_5_v0,2023.2.2,Win32,84.74576271,,,,,,,,,,,,,,,,261.9157,262.9627,262.9627,265.951,return,0.0953,,68.359375,,,,,,FBP-YG-91.png,0.43,1.2,29,0.25,0,15,15,28,1,,,,,,,,,,,,,,,,,,,,,,,,,,,,,,,,,,,,,,,,
,,,,,SRP24_033,21,Female,2024-04-10_16h30.23.644,jersey_experiment_5_v0,2023.2.2,Win32,84.74576271,,,,,,,,,,,,,,,,265.9513,267.2452,267.2452,268.3511,return,0.109,,75.390625,,,,,,FBP-OG-19.png,0.45,1.2,15,0.5,0,16,16,14,1,,,,,,,,,,,,,,,,,,,,,,,,,,,,,,,,,,,,,,,,
,,,,,SRP24_033,21,Female,2024-04-10_16h30.23.644,jersey_experiment_5_v0,2023.2.2,Win32,84.74576271,,,,,,,,,,,,,,,,268.3513,269.398,269.3981,270.0333,return,0.095,,74.73958333,,,,,,FBP-PT-71.png,0.43,1.2,49,0.25,0,17,17,48,1,,,,,,,,,,,,,,,,,,,,,,,,,,,,,,,,,,,,,,,,
,,,,,SRP24_033,21,Female,2024-04-10_16h30.23.644,jersey_experiment_5_v0,2023.2.2,Win32,84.74576271,,,,,,,,,,,,,,,,270.0336,271.0804,271.0804,272.3983,return,0.0492,,74.609375,,,,,,FBP-PT-91.png,0.43,1.2,59,0.25,0,18,18,58,1,,,,,,,,,,,,,,,,,,,,,,,,,,,,,,,,,,,,,,,,
,,,,,SRP24_033,21,Female,2024-04-10_16h30.23.644,jersey_experiment_5_v0,2023.2.2,Win32,84.74576271,,,,,,,,,,,,,,,,272.3986,273.6924,273.6925,274.2217,return,0.0989,,74.609375,,,,,,FBP-OG-19.png,0.43,1.2,14,0.5,0,19,19,13,1,,,,,,,,,,,,,,,,,,,,,,,,,,,,,,,,,,,,,,,,
,,,,,SRP24_033,21,Female,2024-04-10_16h30.23.644,jersey_experiment_5_v0,2023.2.2,Win32,84.74576271,,,,,,,,,,,,,,,,274.222,275.5161,275.5162,277.7867,return,1.2902,,49.34895833,,,,,,FBP-OG-19.png,0.37,1.2,12,0.5,0,20,20,11,1,,,,,,,,,,,,,,,,,,,,,,,,,,,,,,,,,,,,,,,,
,,,,,SRP24_033,21,Female,2024-04-10_16h30.23.644,jersey_experiment_5_v0,2023.2.2,Win32,84.74576271,,,,,,,,,,,,,,,,277.787,278.8336,278.8338,279.422,return,0.0512,,49.08854167,,,,,,FBP-PT-91.png,0.37,1.2,57,0.25,0,21,21,56,1,,,,,,,,,,,,,,,,,,,,,,,,,,,,,,,,,,,,,,,,
,,,,,SRP24_033,21,Female,2024-04-10_16h30.23.644,jersey_experiment_5_v0,2023.2.2,Win32,84.74576271,,,,,,,,,,,,,,,,279.4223,280.4691,280.4691,281.2456,return,0.252,,49.08854167,,,,,,FBP-PT-81.png,0.4,1.2,53,0.25,0,22,22,52,1,,,,,,,,,,,,,,,,,,,,,,,,,,,,,,,,,,,,,,,,
,,,,,SRP24_033,21,Female,2024-04-10_16h30.23.644,jersey_experiment_5_v0,2023.2.2,Win32,84.74576271,,,,,,,,,,,,,,,,281.2458,282.2926,282.2927,283.5398,return,0.1275,,74.73958333,,,,,,FBP-PT-81.png,0.45,1.2,55,0.25,0,23,23,54,1,,,,,,,,,,,,,,,,,,,,,,,,,,,,,,,,,,,,,,,,
,,,,,SRP24_033,21,Female,2024-04-10_16h30.23.644,jersey_experiment_5_v0,2023.2.2,Win32,84.74576271,,,,,,,,,,,,,,,,283.54,284.5868,284.5868,285.1987,return,0.0391,,74.73958333,,,,,,FBP-YG-71.png,0.45,1.2,20,0.25,0,24,24,19,1,,,,,,,,,,,,,,,,,,,,,,,,,,,,,,,,,,,,,,,,
,,,,,SRP24_033,21,Female,2024-04-10_16h30.23.644,jersey_experiment_5_v0,2023.2.2,Win32,84.74576271,,,,,,,,,,,,,,,,285.1989,286.4929,286.4929,286.94,return,0.028,,74.73958333,,,,,,FBP-RB-91.png,0.43,1.2,44,0.5,0,25,25,43,1,,,,,,,,,,,,,,,,,,,,,,,,,,,,,,,,,,,,,,,,
,,,,,SRP24_033,21,Female,2024-04-10_16h30.23.644,jersey_experiment_5_v0,2023.2.2,Win32,84.74576271,,,,,,,,,,,,,,,,286.9402,288.2341,288.2342,290.1283,return,0.8593,,49.609375,,,,,,FBP-RB-91.png,0.37,1.2,42,0.5,0,26,26,41,1,,,,,,,,,,,,,,,,,,,,,,,,,,,,,,,,,,,,,,,,
,,,,,SRP24_033,21,Female,2024-04-10_16h30.23.644,jersey_experiment_5_v0,2023.2.2,Win32,84.74576271,,,,,,,,,,,,,,,,290.1284,291.4225,291.4225,292.3991,return,0.049,,24.47916667,,,,,,FBP-RB-81.png,0.35,1.2,36,0.5,0,27,27,35,1,,,,,,,,,,,,,,,,,,,,,,,,,,,,,,,,,,,,,,,,
,,,,,SRP24_033,21,Female,2024-04-10_16h30.23.644,jersey_experiment_5_v0,2023.2.2,Win32,84.74576271,,,,,,,,,,,,,,,,292.3992,293.6931,293.6932,295.0108,return,0.1408,,5.859375,,,,,,FBP-RB-91.png,0.35,1.2,41,0.5,0,28,28,40,1,,,,,,,,,,,,,,,,,,,,,,,,,,,,,,,,,,,,,,,,
,,,,,SRP24_033,21,Female,2024-04-10_16h30.23.644,jersey_experiment_5_v0,2023.2.2,Win32,84.74576271,,,,,,,,,,,,,,,,295.0111,296.3049,296.305,297.1638,return,0.1714,,6.770833333,,,,,,FBP-OG-17.png,0.35,1.2,1,0.5,0,29,29,0,1,,,,,,,,,,,,,,,,,,,,,,,,,,,,,,,,,,,,,,,,
,,,,,SRP24_033,21,Female,2024-04-10_16h30.23.644,jersey_experiment_5_v0,2023.2.2,Win32,84.74576271,,,,,,,,,,,,,,,,297.164,298.2109,298.2109,299.2343,return,0.2455,,6.770833333,,,,,,FBP-YG-71.png,0.35,1.2,16,0.25,0,30,30,15,1,,,,,,,,,,,,,,,,,,,,,,,,,,,,,,,,,,,,,,,,
,,,,,SRP24_033,21,Female,2024-04-10_16h30.23.644,jersey_experiment_5_v0,2023.2.2,Win32,84.74576271,,,,,,,,,,,,,,,,299.2346,300.2816,300.2816,301.7287,return,0.0818,,24.73958333,,,,,,FBP-YG-71.png,0.4,1.2,18,0.25,0,31,31,17,1,,,,,,,,,,,,,,,,,,,,,,,,,,,,,,,,,,,,,,,,
,,,,,SRP24_033,21,Female,2024-04-10_16h30.23.644,jersey_experiment_5_v0,2023.2.2,Win32,84.74576271,,,,,,,,,,,,,,,,301.7289,303.023,303.0231,305.0111,return,0.1652,,74.08854167,,,,,,FBP-RB-71.png,0.45,1.2,35,0.5,0,32,32,34,1,,,,,,,,,,,,,,,,,,,,,,,,,,,,,,,,,,,,,,,,
,,,,,SRP24_033,21,Female,2024-04-10_16h30.23.644,jersey_experiment_5_v0,2023.2.2,Win32,84.74576271,,,,,,,,,,,,,,,,305.0113,306.3054,306.3054,308.7408,return,0.9647,,84.24479167,,,,,,FBP-RB-71.png,0.43,1.2,34,0.5,0,33,33,33,1,,,,,,,,,,,,,,,,,,,,,,,,,,,,,,,,,,,,,,,,
,,,,,SRP24_033,21,Female,2024-04-10_16h30.23.644,jersey_experiment_5_v0,2023.2.2,Win32,84.74576271,,,,,,,,,,,,,,,,308.741,309.7877,309.7877,311.7644,return,0.0474,,25.52083333,,,,,,FBP-YG-81.png,0.37,1.2,22,0.25,0,34,34,21,1,,,,,,,,,,,,,,,,,,,,,,,,,,,,,,,,,,,,,,,,
,,,,,SRP24_033,21,Female,2024-04-10_16h30.23.644,jersey_experiment_5_v0,2023.2.2,Win32,84.74576271,,,,,,,,,,,,,,,,311.7646,312.8114,312.8115,314.6821,return,0.124,,90.88541667,,,,,,FBP-PT-71.png,0.45,1.2,50,0.25,0,35,35,49,1,,,,,,,,,,,,,,,,,,,,,,,,,,,,,,,,,,,,,,,,
,,,,,SRP24_033,21,Female,2024-04-10_16h30.23.644,jersey_experiment_5_v0,2023.2.2,Win32,84.74576271,,,,,,,,,,,,,,,,314.6824,315.9765,315.9765,317.2469,return,0.1662,,23.95833333,,,,,,FBP-OG-17.png,0.37,1.2,2,0.5,0,36,36,1,1,,,,,,,,,,,,,,,,,,,,,,,,,,,,,,,,,,,,,,,,
,,,,,SRP24_033,21,Female,2024-04-10_16h30.23.644,jersey_experiment_5_v0,2023.2.2,Win32,84.74576271,,,,,,,,,,,,,,,,317.2472,318.294,318.2941,319.8117,return,0.0219,,24.86979167,,,,,,FBP-PT-91.png,0.35,1.2,56,0.25,0,37,37,55,1,,,,,,,,,,,,,,,,,,,,,,,,,,,,,,,,,,,,,,,,
,,,,,SRP24_033,21,Female,2024-04-10_16h30.23.644,jersey_experiment_5_v0,2023.2.2,Win32,84.74576271,,,,,,,,,,,,,,,,319.8119,321.1059,321.1059,322.4588,return,0.205,,74.34895833,,,,,,FBP-OG-17.png,0.43,1.2,4,0.5,0,38,38,3,1,,,,,,,,,,,,,,,,,,,,,,,,,,,,,,,,,,,,,,,,
,,,,,SRP24_033,21,Female,2024-04-10_16h30.23.644,jersey_experiment_5_v0,2023.2.2,Win32,84.74576271,,,,,,,,,,,,,,,,322.4591,323.5058,323.5058,324.5649,return,0.272,,48.95833333,,,,,,FBP-PT-91.png,0.4,1.2,58,0.25,0,39,39,57,1,,,,,,,,,,,,,,,,,,,,,,,,,,,,,,,,,,,,,,,,
,,,,,SRP24_033,21,Female,2024-04-10_16h30.23.644,jersey_experiment_5_v0,2023.2.2,Win32,84.74576271,,,,,,,,,,,,,,,,324.565,325.8588,325.8589,327.0237,return,0.0827,,50.26041667,,,,,,FBP-OG-18.png,0.43,1.2,9,0.5,0,40,40,8,1,,,,,,,,,,,,,,,,,,,,,,,,,,,,,,,,,,,,,,,,
,,,,,SRP24_033,21,Female,2024-04-10_16h30.23.644,jersey_experiment_5_v0,2023.2.2,Win32,84.74576271,,,,,,,,,,,,,,,,327.0239,328.0708,328.0708,329.565,return,0.17,,35.02604167,,,,,,FBP-PT-81.png,0.37,1.2,52,0.25,0,41,41,51,1,,,,,,,,,,,,,,,,,,,,,,,,,,,,,,,,,,,,,,,,
,,,,,SRP24_033,21,Female,2024-04-10_16h30.23.644,jersey_experiment_5_v0,2023.2.2,Win32,84.74576271,,,,,,,,,,,,,,,,329.5652,330.859,330.8591,332.4122,return,0.0532,,74.08854167,,,,,,FBP-OG-18.png,0.45,1.2,10,0.5,0,42,42,9,1,,,,,,,,,,,,,,,,,,,,,,,,,,,,,,,,,,,,,,,,
,,,,,SRP24_033,21,Female,2024-04-10_16h30.23.644,jersey_experiment_5_v0,2023.2.2,Win32,84.74576271,,,,,,,,,,,,,,,,332.4124,333.7061,333.7062,336.0593,return,0.1716,,25.91145833,,,,,,FBP-RB-71.png,0.37,1.2,32,0.5,0,43,43,31,1,,,,,,,,,,,,,,,,,,,,,,,,,,,,,,,,,,,,,,,,
,,,,,SRP24_033,21,Female,2024-04-10_16h30.23.644,jersey_experiment_5_v0,2023.2.2,Win32,84.74576271,,,,,,,,,,,,,,,,336.0596,337.3535,337.3535,339.0124,return,0.2967,,50.52083333,,,,,,FBP-OG-17.png,0.4,1.2,3,0.5,0,44,44,2,1,,,,,,,,,,,,,,,,,,,,,,,,,,,,,,,,,,,,,,,,
,,,,,SRP24_033,21,Female,2024-04-10_16h30.23.644,jersey_experiment_5_v0,2023.2.2,Win32,84.74576271,,,,,,,,,,,,,,,,339.0126,340.3065,340.3065,341.5654,return,0.2029,,49.47916667,,,,,,FBP-OG-18.png,0.37,1.2,7,0.5,0,45,45,6,1,,,,,,,,,,,,,,,,,,,,,,,,,,,,,,,,,,,,,,,,
,,,,,SRP24_033,21,Female,2024-04-10_16h30.23.644,jersey_experiment_5_v0,2023.2.2,Win32,84.74576271,,,,,,,,,,,,,,,,341.5657,342.6125,342.6126,344.1772,return,0.5655,,73.69791667,,,,,,FBP-YG-81.png,0.45,1.2,25,0.25,0,46,46,24,1,,,,,,,,,,,,,,,,,,,,,,,,,,,,,,,,,,,,,,,,
,,,,,SRP24_033,21,Female,2024-04-10_16h30.23.644,jersey_experiment_5_v0,2023.2.2,Win32,84.74576271,,,,,,,,,,,,,,,,344.1775,345.4715,345.4715,348.3538,return,0.1307,,68.88020833,,,,,,FBP-RB-91.png,0.4,1.2,43,0.5,0,47,47,42,1,,,,,,,,,,,,,,,,,,,,,,,,,,,,,,,,,,,,,,,,
,,,,,SRP24_033,21,Female,2024-04-10_16h30.23.644,jersey_experiment_5_v0,2023.2.2,Win32,84.74576271,,,,,,,,,,,,,,,,348.3541,349.4009,349.4009,350.9894,return,0.1346,,35.9375,,,,,,FBP-YG-71.png,0.37,1.2,17,0.25,0,48,48,16,1,,,,,,,,,,,,,,,,,,,,,,,,,,,,,,,,,,,,,,,,
,,,,,SRP24_033,21,Female,2024-04-10_16h30.23.644,jersey_experiment_5_v0,2023.2.2,Win32,84.74576271,,,,,,,,,,,,,,,,350.9897,352.0363,352.0363,353.1306,return,0.0057,,25.91145833,,,,,,FBP-PT-81.png,0.35,1.2,51,0.25,0,49,49,50,1,,,,,,,,,,,,,,,,,,,,,,,,,,,,,,,,,,,,,,,,
,,,,,SRP24_033,21,Female,2024-04-10_16h30.23.644,jersey_experiment_5_v0,2023.2.2,Win32,84.74576271,,,,,,,,,,,,,,,,353.1308,354.1774,354.1774,355.3893,return,0.0736,,73.828125,,,,,,FBP-YG-91.png,0.45,1.2,30,0.25,0,50,50,29,1,,,,,,,,,,,,,,,,,,,,,,,,,,,,,,,,,,,,,,,,
,,,,,SRP24_033,21,Female,2024-04-10_16h30.23.644,jersey_experiment_5_v0,2023.2.2,Win32,84.74576271,,,,,,,,,,,,,,,,355.3895,356.6836,356.6836,357.2483,return,0.0372,,74.86979167,,,,,,FBP-RB-81.png,0.43,1.2,39,0.5,0,51,51,38,1,,,,,,,,,,,,,,,,,,,,,,,,,,,,,,,,,,,,,,,,
,,,,,SRP24_033,21,Female,2024-04-10_16h30.23.644,jersey_experiment_5_v0,2023.2.2,Win32,84.74576271,,,,,,,,,,,,,,,,357.2486,358.2955,358.2955,360.8133,return,1.3797,,50.13020833,,,,,,FBP-YG-91.png,0.37,1.2,27,0.25,0,52,52,26,1,,,,,,,,,,,,,,,,,,,,,,,,,,,,,,,,,,,,,,,,
,,,,,SRP24_033,21,Female,2024-04-10_16h30.23.644,jersey_experiment_5_v0,2023.2.2,Win32,84.74576271,,,,,,,,,,,,,,,,360.8135,361.8603,361.8603,363.3426,return,0.0624,,25.390625,,,,,,FBP-PT-71.png,0.35,1.2,46,0.25,0,53,53,45,1,,,,,,,,,,,,,,,,,,,,,,,,,,,,,,,,,,,,,,,,
,,,,,SRP24_033,21,Female,2024-04-10_16h30.23.644,jersey_experiment_5_v0,2023.2.2,Win32,84.74576271,,,,,,,,,,,,,,,,363.3428,364.6368,364.6368,365.8251,return,0.0116,,25.52083333,,,,,,FBP-OG-18.png,0.4,1.2,8,0.5,0,54,54,7,1,,,,,,,,,,,,,,,,,,,,,,,,,,,,,,,,,,,,,,,,
,,,,,SRP24_033,21,Female,2024-04-10_16h30.23.644,jersey_experiment_5_v0,2023.2.2,Win32,84.74576271,,,,,,,,,,,,,,,,365.8253,366.8722,366.8722,367.6604,return,0.1001,,25.52083333,,,,,,FBP-YG-91.png,0.4,1.2,28,0.25,0,55,55,27,1,,,,,,,,,,,,,,,,,,,,,,,,,,,,,,,,,,,,,,,,
,,,,,SRP24_033,21,Female,2024-04-10_16h30.23.644,jersey_experiment_5_v0,2023.2.2,Win32,84.74576271,,,,,,,,,,,,,,,,367.6606,368.9545,368.9545,369.3546,return,0.1489,,25.52083333,,,,,,FBP-OG-18.png,0.35,1.2,6,0.5,0,56,56,5,1,,,,,,,,,,,,,,,,,,,,,,,,,,,,,,,,,,,,,,,,
,,,,,SRP24_033,21,Female,2024-04-10_16h30.23.644,jersey_experiment_5_v0,2023.2.2,Win32,84.74576271,,,,,,,,,,,,,,,,369.3549,370.649,370.649,371.5313,return,0.0422,,75,,,,,,FBP-RB-91.png,0.45,1.2,45,0.5,0,57,57,44,1,,,,,,,,,,,,,,,,,,,,,,,,,,,,,,,,,,,,,,,,
,,,,,SRP24_033,21,Female,2024-04-10_16h30.23.644,jersey_experiment_5_v0,2023.2.2,Win32,84.74576271,,,,,,,,,,,,,,,,371.5314,372.8254,372.8254,373.8609,return,0.014,,50.390625,,,,,,FBP-RB-81.png,0.4,1.2,38,0.5,0,58,58,37,1,,,,,,,,,,,,,,,,,,,,,,,,,,,,,,,,,,,,,,,,
,,,,,SRP24_033,21,Female,2024-04-10_16h30.23.644,jersey_experiment_5_v0,2023.2.2,Win32,84.74576271,,,,,,,,,,,,,,,,373.861,374.9078,374.9078,376.4491,return,0.1178,,25.13020833,,,,,,FBP-YG-81.png,0.35,1.2,21,0.25,0,59,59,20,1,,,,,,,,,,,,,,,,,,,,,,,,,,,,,,,,,,,,,,,,
,,,,,SRP24_033,21,Female,2024-04-10_16h30.23.644,jersey_experiment_5_v0,2023.2.2,Win32,84.74576271,,,,,,,,,,,,,,,,,,,,,,,,,,,,,,,,,,,,,,,376.4495,496.4419,,,,,,,,,,,,,,,,,,,,,,,,,,,,,,,,,,,,,,
,,,,,SRP24_033,21,Female,2024-04-10_16h30.23.644,jersey_experiment_5_v0,2023.2.2,Win32,84.74576271,,,,,,,,,,,,,,,,,,,,,,,,,,,,,,,,,,,,,,,,,496.442,505.8422,return,9.3884,,,,,,,,,,,,,,,,,,,,,,,,,,,,,,,,,,
,,,,,SRP24_033,21,Female,2024-04-10_16h30.23.644,jersey_experiment_5_v0,2023.2.2,Win32,84.74576271,,,,,,,,,,,,,,,,505.8483,507.1477,507.1477,510.701,return,1.4642,,50.390625,,,,,,FBP-YG-18.png,0.4,1.2,23,0.5,,,,,,,,,,,,,0,0,0,22,1,,,,,,,,,,,,,,,,,,,,,,,,,,,,
,,,,,SRP24_033,21,Female,2024-04-10_16h30.23.644,jersey_experiment_5_v0,2023.2.2,Win32,84.74576271,,,,,,,,,,,,,,,,510.7012,511.7479,511.748,512.7481,return,0.0158,,74.73958333,,,,,,FBP-RB-17.png,0.45,1.2,35,0.25,,,,,,,,,,,,,0,1,1,34,1,,,,,,,,,,,,,,,,,,,,,,,,,,,,
,,,,,SRP24_033,21,Female,2024-04-10_16h30.23.644,jersey_experiment_5_v0,2023.2.2,Win32,84.74576271,,,,,,,,,,,,,,,,512.7484,514.0422,514.0423,515.101,return,0.052,,24.08854167,,,,,,FBP-PT-19.png,0.37,1.2,57,0.5,,,,,,,,,,,,,0,2,2,56,1,,,,,,,,,,,,,,,,,,,,,,,,,,,,
,,,,,SRP24_033,21,Female,2024-04-10_16h30.23.644,jersey_experiment_5_v0,2023.2.2,Win32,84.74576271,,,,,,,,,,,,,,,,515.1012,516.3951,516.3951,517.4541,return,0.0276,,75.13020833,,,,,,FBP-YG-18.png,0.45,1.2,25,0.5,,,,,,,,,,,,,0,3,3,24,1,,,,,,,,,,,,,,,,,,,,,,,,,,,,
,,,,,SRP24_033,21,Female,2024-04-10_16h30.23.644,jersey_experiment_5_v0,2023.2.2,Win32,84.74576271,,,,,,,,,,,,,,,,517.4542,518.7482,518.7483,519.3247,return,0.0503,,74.73958333,,,,,,FBP-PT-18.png,0.45,1.2,55,0.5,,,,,,,,,,,,,0,4,4,54,1,,,,,,,,,,,,,,,,,,,,,,,,,,,,
,,,,,SRP24_033,21,Female,2024-04-10_16h30.23.644,jersey_experiment_5_v0,2023.2.2,Win32,84.74576271,,,,,,,,,,,,,,,,519.3249,520.6189,520.6189,521.1719,return,0.0329,,74.73958333,,,,,,FBP-YG-19.png,0.45,1.2,30,0.5,,,,,,,,,,,,,0,5,5,29,1,,,,,,,,,,,,,,,,,,,,,,,,,,,,
,,,,,SRP24_033,21,Female,2024-04-10_16h30.23.644,jersey_experiment_5_v0,2023.2.2,Win32,84.74576271,,,,,,,,,,,,,,,,521.1721,522.4658,522.4659,522.8777,return,0.0255,,74.73958333,,,,,,FBP-YG-17.png,0.43,1.2,19,0.5,,,,,,,,,,,,,0,6,6,18,1,,,,,,,,,,,,,,,,,,,,,,,,,,,,
,,,,,SRP24_033,21,Female,2024-04-10_16h30.23.644,jersey_experiment_5_v0,2023.2.2,Win32,84.74576271,,,,,,,,,,,,,,,,522.878,524.1723,524.1723,525.5836,return,0.753,,50,,,,,,FBP-YG-17.png,0.4,1.2,18,0.5,,,,,,,,,,,,,0,7,7,17,1,,,,,,,,,,,,,,,,,,,,,,,,,,,,
,,,,,SRP24_033,21,Female,2024-04-10_16h30.23.644,jersey_experiment_5_v0,2023.2.2,Win32,84.74576271,,,,,,,,,,,,,,,,525.5839,526.6307,526.6308,527.8072,return,0.0829,,75.13020833,,,,,,FBP-OG-71.png,0.4,1.2,3,0.25,,,,,,,,,,,,,0,8,8,2,1,,,,,,,,,,,,,,,,,,,,,,,,,,,,
,,,,,SRP24_033,21,Female,2024-04-10_16h30.23.644,jersey_experiment_5_v0,2023.2.2,Win32,84.74576271,,,,,,,,,,,,,,,,527.8074,529.1015,529.1015,530.1487,return,0.0228,,24.08854167,,,,,,FBP-YG-17.png,0.35,1.2,16,0.5,,,,,,,,,,,,,0,9,9,15,1,,,,,,,,,,,,,,,,,,,,,,,,,,,,
,,,,,SRP24_033,21,Female,2024-04-10_16h30.23.644,jersey_experiment_5_v0,2023.2.2,Win32,84.74576271,,,,,,,,,,,,,,,,530.1489,531.1957,531.1957,532.0782,return,0.0391,,50.91145833,,,,,,FBP-RB-18.png,0.4,1.2,38,0.25,,,,,,,,,,,,,0,10,10,37,1,,,,,,,,,,,,,,,,,,,,,,,,,,,,
,,,,,SRP24_033,21,Female,2024-04-10_16h30.23.644,jersey_experiment_5_v0,2023.2.2,Win32,84.74576271,,,,,,,,,,,,,,,,532.0784,533.3723,533.3723,534.384,return,0.0139,,25,,,,,,FBP-PT-18.png,0.37,1.2,52,0.5,,,,,,,,,,,,,0,11,11,51,1,,,,,,,,,,,,,,,,,,,,,,,,,,,,
,,,,,SRP24_033,21,Female,2024-04-10_16h30.23.644,jersey_experiment_5_v0,2023.2.2,Win32,84.74576271,,,,,,,,,,,,,,,,534.3844,535.6783,535.6783,537.1723,return,0.5279,,75.390625,,,,,,FBP-YG-18.png,0.43,1.2,24,0.5,,,,,,,,,,,,,0,12,12,23,1,,,,,,,,,,,,,,,,,,,,,,,,,,,,
,,,,,SRP24_033,21,Female,2024-04-10_16h30.23.644,jersey_experiment_5_v0,2023.2.2,Win32,84.74576271,,,,,,,,,,,,,,,,537.1726,538.2195,538.2195,539.8196,return,1.2041,,88.41145833,,,,,,FBP-OG-91.png,0.43,1.2,14,0.25,,,,,,,,,,,,,0,13,13,13,1,,,,,,,,,,,,,,,,,,,,,,,,,,,,
,,,,,SRP24_033,21,Female,2024-04-10_16h30.23.644,jersey_experiment_5_v0,2023.2.2,Win32,84.74576271,,,,,,,,,,,,,,,,539.8198,540.8665,540.8665,543.149,return,0.0282,,89.71354167,,,,,,FBP-RB-18.png,0.45,1.2,40,0.25,,,,,,,,,,,,,0,14,14,39,1,,,,,,,,,,,,,,,,,,,,,,,,,,,,
,,,,,SRP24_033,21,Female,2024-04-10_16h30.23.644,jersey_experiment_5_v0,2023.2.2,Win32,84.74576271,,,,,,,,,,,,,,,,543.1492,544.1962,544.1962,544.8903,return,0.031,,89.71354167,,,,,,FBP-RB-17.png,0.43,1.2,34,0.25,,,,,,,,,,,,,0,15,15,33,1,,,,,,,,,,,,,,,,,,,,,,,,,,,,
,,,,,SRP24_033,21,Female,2024-04-10_16h30.23.644,jersey_experiment_5_v0,2023.2.2,Win32,84.74576271,,,,,,,,,,,,,,,,544.8905,545.9374,545.9375,547.1493,return,0.0519,,74.08854167,,,,,,FBP-OG-81.png,0.45,1.2,10,0.25,,,,,,,,,,,,,0,16,16,9,1,,,,,,,,,,,,,,,,,,,,,,,,,,,,
,,,,,SRP24_033,21,Female,2024-04-10_16h30.23.644,jersey_experiment_5_v0,2023.2.2,Win32,84.74576271,,,,,,,,,,,,,,,,547.1495,548.4435,548.4435,549.4552,return,0.0261,,24.21875,,,,,,FBP-PT-17.png,0.35,1.2,46,0.5,,,,,,,,,,,,,0,17,17,45,1,,,,,,,,,,,,,,,,,,,,,,,,,,,,
,,,,,SRP24_033,21,Female,2024-04-10_16h30.23.644,jersey_experiment_5_v0,2023.2.2,Win32,84.74576271,,,,,,,,,,,,,,,,549.4555,550.7492,550.7492,553.0436,return,0.3899,,10.9375,,,,,,FBP-PT-18.png,0.35,1.2,51,0.5,,,,,,,,,,,,,0,18,18,50,1,,,,,,,,,,,,,,,,,,,,,,,,,,,,
,,,,,SRP24_033,21,Female,2024-04-10_16h30.23.644,jersey_experiment_5_v0,2023.2.2,Win32,84.74576271,,,,,,,,,,,,,,,,553.0438,554.0906,554.0906,557.0438,return,1.1288,,6.510416667,,,,,,FBP-RB-19.png,0.37,1.2,42,0.25,,,,,,,,,,,,,0,19,19,41,1,,,,,,,,,,,,,,,,,,,,,,,,,,,,
,,,,,SRP24_033,21,Female,2024-04-10_16h30.23.644,jersey_experiment_5_v0,2023.2.2,Win32,84.74576271,,,,,,,,,,,,,,,,557.044,558.0906,558.0906,559.5142,return,0.2545,,73.828125,,,,,,FBP-OG-81.png,0.43,1.2,9,0.25,,,,,,,,,,,,,0,20,20,8,1,,,,,,,,,,,,,,,,,,,,,,,,,,,,
,,,,,SRP24_033,21,Female,2024-04-10_16h30.23.644,jersey_experiment_5_v0,2023.2.2,Win32,84.74576271,,,,,,,,,,,,,,,,559.5144,560.5613,560.5613,562.2085,return,0.6369,,50.78125,,,,,,FBP-RB-19.png,0.4,1.2,43,0.25,,,,,,,,,,,,,0,21,21,42,1,,,,,,,,,,,,,,,,,,,,,,,,,,,,
,,,,,SRP24_033,21,Female,2024-04-10_16h30.23.644,jersey_experiment_5_v0,2023.2.2,Win32,84.74576271,,,,,,,,,,,,,,,,562.2087,563.5026,563.5027,563.9145,return,0.0288,,50.78125,,,,,,FBP-YG-19.png,0.4,1.2,28,0.5,,,,,,,,,,,,,0,22,22,27,1,,,,,,,,,,,,,,,,,,,,,,,,,,,,
,,,,,SRP24_033,21,Female,2024-04-10_16h30.23.644,jersey_experiment_5_v0,2023.2.2,Win32,84.74576271,,,,,,,,,,,,,,,,563.9148,564.9615,564.9615,565.9382,return,0.4249,,49.86979167,,,,,,FBP-RB-17.png,0.4,1.2,33,0.25,,,,,,,,,,,,,0,23,23,32,1,,,,,,,,,,,,,,,,,,,,,,,,,,,,
,,,,,SRP24_033,21,Female,2024-04-10_16h30.23.644,jersey_experiment_5_v0,2023.2.2,Win32,84.74576271,,,,,,,,,,,,,,,,565.9385,566.985,566.985,568.6559,return,1.1549,,34.50520833,,,,,,FBP-OG-71.png,0.37,1.2,2,0.25,,,,,,,,,,,,,0,24,24,1,1,,,,,,,,,,,,,,,,,,,,,,,,,,,,
,,,,,SRP24_033,21,Female,2024-04-10_16h30.23.644,jersey_experiment_5_v0,2023.2.2,Win32,84.74576271,,,,,,,,,,,,,,,,568.6561,569.9499,569.9499,571.6325,return,0.0139,,25.78125,,,,,,FBP-YG-17.png,0.37,1.2,17,0.5,,,,,,,,,,,,,0,25,25,16,1,,,,,,,,,,,,,,,,,,,,,,,,,,,,
,,,,,SRP24_033,21,Female,2024-04-10_16h30.23.644,jersey_experiment_5_v0,2023.2.2,Win32,84.74576271,,,,,,,,,,,,,,,,571.6327,572.6794,572.6794,574.2561,return,0.4828,,74.609375,,,,,,FBP-OG-71.png,0.45,1.2,5,0.25,,,,,,,,,,,,,0,26,26,4,1,,,,,,,,,,,,,,,,,,,,,,,,,,,,
,,,,,SRP24_033,21,Female,2024-04-10_16h30.23.644,jersey_experiment_5_v0,2023.2.2,Win32,84.74576271,,,,,,,,,,,,,,,,574.2563,575.5502,575.5503,576.0678,return,0.0003,,75.390625,,,,,,FBP-PT-17.png,0.43,1.2,49,0.5,,,,,,,,,,,,,0,27,27,48,1,,,,,,,,,,,,,,,,,,,,,,,,,,,,
,,,,,SRP24_033,21,Female,2024-04-10_16h30.23.644,jersey_experiment_5_v0,2023.2.2,Win32,84.74576271,,,,,,,,,,,,,,,,576.068,577.3619,577.3619,578.1149,return,0.3165,,75.390625,,,,,,FBP-PT-18.png,0.43,1.2,54,0.5,,,,,,,,,,,,,0,28,28,53,1,,,,,,,,,,,,,,,,,,,,,,,,,,,,
,,,,,SRP24_033,21,Female,2024-04-10_16h30.23.644,jersey_experiment_5_v0,2023.2.2,Win32,84.74576271,,,,,,,,,,,,,,,,578.1151,579.162,579.1621,579.6443,return,0.0764,,75.390625,,,,,,FBP-OG-91.png,0.45,1.2,15,0.25,,,,,,,,,,,,,0,29,29,14,1,,,,,,,,,,,,,,,,,,,,,,,,,,,,
,,,,,SRP24_033,21,Female,2024-04-10_16h30.23.644,jersey_experiment_5_v0,2023.2.2,Win32,84.74576271,,,,,,,,,,,,,,,,579.6446,580.6915,580.6916,582.3858,return,0.767,,25.26041667,,,,,,FBP-OG-81.png,0.35,1.2,6,0.25,,,,,,,,,,,,,0,30,30,5,1,,,,,,,,,,,,,,,,,,,,,,,,,,,,
,,,,,SRP24_033,21,Female,2024-04-10_16h30.23.644,jersey_experiment_5_v0,2023.2.2,Win32,84.74576271,,,,,,,,,,,,,,,,582.3861,583.4328,583.4328,585.1858,return,0.0141,,5.729166667,,,,,,FBP-RB-17.png,0.35,1.2,31,0.25,,,,,,,,,,,,,0,31,31,30,1,,,,,,,,,,,,,,,,,,,,,,,,,,,,
,,,,,SRP24_033,21,Female,2024-04-10_16h30.23.644,jersey_experiment_5_v0,2023.2.2,Win32,84.74576271,,,,,,,,,,,,,,,,585.186,586.2329,586.2329,587.6331,return,0.3767,,26.04166667,,,,,,FBP-RB-17.png,0.37,1.2,32,0.25,,,,,,,,,,,,,0,32,32,31,1,,,,,,,,,,,,,,,,,,,,,,,,,,,,
,,,,,SRP24_033,21,Female,2024-04-10_16h30.23.644,jersey_experiment_5_v0,2023.2.2,Win32,84.74576271,,,,,,,,,,,,,,,,587.6333,588.9274,588.9274,589.7742,return,0.1186,,24.34895833,,,,,,FBP-PT-17.png,0.37,1.2,47,0.5,,,,,,,,,,,,,0,33,33,46,1,,,,,,,,,,,,,,,,,,,,,,,,,,,,
,,,,,SRP24_033,21,Female,2024-04-10_16h30.23.644,jersey_experiment_5_v0,2023.2.2,Win32,84.74576271,,,,,,,,,,,,,,,,589.7744,590.8212,590.8213,591.4564,return,0.1995,,24.34895833,,,,,,FBP-OG-71.png,0.35,1.2,1,0.25,,,,,,,,,,,,,0,34,34,0,1,,,,,,,,,,,,,,,,,,,,,,,,,,,,
,,,,,SRP24_033,21,Female,2024-04-10_16h30.23.644,jersey_experiment_5_v0,2023.2.2,Win32,84.74576271,,,,,,,,,,,,,,,,591.4565,592.7508,592.7508,593.1391,return,0.0244,,24.34895833,,,,,,FBP-YG-18.png,0.37,1.2,22,0.5,,,,,,,,,,,,,0,35,35,21,1,,,,,,,,,,,,,,,,,,,,,,,,,,,,
,,,,,SRP24_033,21,Female,2024-04-10_16h30.23.644,jersey_experiment_5_v0,2023.2.2,Win32,84.74576271,,,,,,,,,,,,,,,,593.1393,594.1861,594.1862,596.2921,return,0.141,,74.08854167,,,,,,FBP-RB-18.png,0.43,1.2,39,0.25,,,,,,,,,,,,,0,36,36,38,1,,,,,,,,,,,,,,,,,,,,,,,,,,,,
,,,,,SRP24_033,21,Female,2024-04-10_16h30.23.644,jersey_experiment_5_v0,2023.2.2,Win32,84.74576271,,,,,,,,,,,,,,,,596.2923,597.3391,597.3392,598.9628,return,0.1044,,25.78125,,,,,,FBP-OG-91.png,0.35,1.2,11,0.25,,,,,,,,,,,,,0,37,37,10,1,,,,,,,,,,,,,,,,,,,,,,,,,,,,
,,,,,SRP24_033,21,Female,2024-04-10_16h30.23.644,jersey_experiment_5_v0,2023.2.2,Win32,84.74576271,,,,,,,,,,,,,,,,598.963,600.2569,600.2569,600.7041,return,0.0487,,26.04166667,,,,,,FBP-PT-19.png,0.35,1.2,56,0.5,,,,,,,,,,,,,0,38,38,55,1,,,,,,,,,,,,,,,,,,,,,,,,,,,,
,,,,,SRP24_033,21,Female,2024-04-10_16h30.23.644,jersey_experiment_5_v0,2023.2.2,Win32,84.74576271,,,,,,,,,,,,,,,,600.7044,601.7511,601.7511,602.3629,return,0.0658,,26.04166667,,,,,,FBP-RB-18.png,0.35,1.2,36,0.25,,,,,,,,,,,,,0,39,39,35,1,,,,,,,,,,,,,,,,,,,,,,,,,,,,
,,,,,SRP24_033,21,Female,2024-04-10_16h30.23.644,jersey_experiment_5_v0,2023.2.2,Win32,84.74576271,,,,,,,,,,,,,,,,602.3632,603.41,603.41,605.9983,return,1.0151,,75.390625,,,,,,FBP-OG-91.png,0.4,1.2,13,0.25,,,,,,,,,,,,,0,40,40,12,1,,,,,,,,,,,,,,,,,,,,,,,,,,,,
,,,,,SRP24_033,21,Female,2024-04-10_16h30.23.644,jersey_experiment_5_v0,2023.2.2,Win32,84.74576271,,,,,,,,,,,,,,,,605.9985,607.2925,607.2925,608.8572,return,0.077,,24.609375,,,,,,FBP-YG-18.png,0.35,1.2,21,0.5,,,,,,,,,,,,,0,41,41,20,1,,,,,,,,,,,,,,,,,,,,,,,,,,,,
,,,,,SRP24_033,21,Female,2024-04-10_16h30.23.644,jersey_experiment_5_v0,2023.2.2,Win32,84.74576271,,,,,,,,,,,,,,,,608.8574,609.9043,609.9044,611.1042,return,0.1286,,74.47916667,,,,,,FBP-OG-81.png,0.4,1.2,8,0.25,,,,,,,,,,,,,0,42,42,7,1,,,,,,,,,,,,,,,,,,,,,,,,,,,,
,,,,,SRP24_033,21,Female,2024-04-10_16h30.23.644,jersey_experiment_5_v0,2023.2.2,Win32,84.74576271,,,,,,,,,,,,,,,,611.1045,612.1515,612.1515,613.5986,return,0.1073,,89.19270833,,,,,,FBP-RB-19.png,0.43,1.2,44,0.25,,,,,,,,,,,,,0,43,43,43,1,,,,,,,,,,,,,,,,,,,,,,,,,,,,
,,,,,SRP24_033,21,Female,2024-04-10_16h30.23.644,jersey_experiment_5_v0,2023.2.2,Win32,84.74576271,,,,,,,,,,,,,,,,613.5989,614.8928,614.8928,615.3869,return,0.0874,,88.28125,,,,,,FBP-YG-17.png,0.45,1.2,20,0.5,,,,,,,,,,,,,0,44,44,19,1,,,,,,,,,,,,,,,,,,,,,,,,,,,,
,,,,,SRP24_033,21,Female,2024-04-10_16h30.23.644,jersey_experiment_5_v0,2023.2.2,Win32,84.74576271,,,,,,,,,,,,,,,,615.3871,616.434,616.434,617.6575,return,0.0438,,24.86979167,,,,,,FBP-RB-19.png,0.35,1.2,41,0.25,,,,,,,,,,,,,0,45,45,40,1,,,,,,,,,,,,,,,,,,,,,,,,,,,,
,,,,,SRP24_033,21,Female,2024-04-10_16h30.23.644,jersey_experiment_5_v0,2023.2.2,Win32,84.74576271,,,,,,,,,,,,,,,,617.6578,618.9517,618.9518,620.5753,return,0.0142,,50.390625,,,,,,FBP-PT-17.png,0.4,1.2,48,0.5,,,,,,,,,,,,,0,46,46,47,1,,,,,,,,,,,,,,,,,,,,,,,,,,,,
,,,,,SRP24_033,21,Female,2024-04-10_16h30.23.644,jersey_experiment_5_v0,2023.2.2,Win32,84.74576271,,,,,,,,,,,,,,,,620.5754,621.6223,621.6224,622.6225,return,0.0243,,75.13020833,,,,,,FBP-RB-19.png,0.45,1.2,45,0.25,,,,,,,,,,,,,0,47,47,44,1,,,,,,,,,,,,,,,,,,,,,,,,,,,,
,,,,,SRP24_033,21,Female,2024-04-10_16h30.23.644,jersey_experiment_5_v0,2023.2.2,Win32,84.74576271,,,,,,,,,,,,,,,,622.6227,623.6695,623.6695,625.3755,return,0.5555,,24.47916667,,,,,,FBP-RB-18.png,0.37,1.2,37,0.25,,,,,,,,,,,,,0,48,48,36,1,,,,,,,,,,,,,,,,,,,,,,,,,,,,
,,,,,SRP24_033,21,Female,2024-04-10_16h30.23.644,jersey_experiment_5_v0,2023.2.2,Win32,84.74576271,,,,,,,,,,,,,,,,625.3757,626.4226,626.4226,627.9991,return,0.0258,,49.34895833,,,,,,FBP-OG-91.png,0.37,1.2,12,0.25,,,,,,,,,,,,,0,49,49,11,1,,,,,,,,,,,,,,,,,,,,,,,,,,,,
,,,,,SRP24_033,21,Female,2024-04-10_16h30.23.644,jersey_experiment_5_v0,2023.2.2,Win32,84.74576271,,,,,,,,,,,,,,,,627.9993,629.0462,629.0463,629.4698,return,0.0391,,49.34895833,,,,,,FBP-OG-71.png,0.43,1.2,4,0.25,,,,,,,,,,,,,0,50,50,3,1,,,,,,,,,,,,,,,,,,,,,,,,,,,,
,,,,,SRP24_033,21,Female,2024-04-10_16h30.23.644,jersey_experiment_5_v0,2023.2.2,Win32,84.74576271,,,,,,,,,,,,,,,,629.47,630.5168,630.5169,631.1992,return,0.107,,49.34895833,,,,,,FBP-OG-81.png,0.37,1.2,7,0.25,,,,,,,,,,,,,0,51,51,6,1,,,,,,,,,,,,,,,,,,,,,,,,,,,,
,,,,,SRP24_033,21,Female,2024-04-10_16h30.23.644,jersey_experiment_5_v0,2023.2.2,Win32,84.74576271,,,,,,,,,,,,,,,,631.1995,632.4934,632.4935,633.764,return,0.5044,,75.65104167,,,,,,FBP-PT-19.png,0.43,1.2,59,0.5,,,,,,,,,,,,,0,52,52,58,1,,,,,,,,,,,,,,,,,,,,,,,,,,,,
,,,,,SRP24_033,21,Female,2024-04-10_16h30.23.644,jersey_experiment_5_v0,2023.2.2,Win32,84.74576271,,,,,,,,,,,,,,,,633.7642,635.0581,635.0581,636.0112,return,0.3246,,75.52083333,,,,,,FBP-PT-19.png,0.45,1.2,60,0.5,,,,,,,,,,,,,0,53,53,59,1,,,,,,,,,,,,,,,,,,,,,,,,,,,,
,,,,,SRP24_033,21,Female,2024-04-10_16h30.23.644,jersey_experiment_5_v0,2023.2.2,Win32,84.74576271,,,,,,,,,,,,,,,,636.0115,637.3053,637.3053,638.9053,return,0.7496,,50.13020833,,,,,,FBP-PT-18.png,0.4,1.2,53,0.5,,,,,,,,,,,,,0,54,54,52,1,,,,,,,,,,,,,,,,,,,,,,,,,,,,
,,,,,SRP24_033,21,Female,2024-04-10_16h30.23.644,jersey_experiment_5_v0,2023.2.2,Win32,84.74576271,,,,,,,,,,,,,,,,638.9055,640.1996,640.1996,641.6466,return,0.0737,,51.953125,,,,,,FBP-YG-19.png,0.37,1.2,27,0.5,,,,,,,,,,,,,0,55,55,26,1,,,,,,,,,,,,,,,,,,,,,,,,,,,,
,,,,,SRP24_033,21,Female,2024-04-10_16h30.23.644,jersey_experiment_5_v0,2023.2.2,Win32,84.74576271,,,,,,,,,,,,,,,,641.6468,642.9408,642.9409,643.8114,return,0.5175,,49.86979167,,,,,,FBP-PT-19.png,0.4,1.2,58,0.5,,,,,,,,,,,,,0,56,56,57,1,,,,,,,,,,,,,,,,,,,,,,,,,,,,
,,,,,SRP24_033,21,Female,2024-04-10_16h30.23.644,jersey_experiment_5_v0,2023.2.2,Win32,84.74576271,,,,,,,,,,,,,,,,643.8117,645.1057,645.1057,645.7292,return,0.0707,,75.13020833,,,,,,FBP-PT-17.png,0.45,1.2,50,0.5,,,,,,,,,,,,,0,57,57,49,1,,,,,,,,,,,,,,,,,,,,,,,,,,,,
,,,,,SRP24_033,21,Female,2024-04-10_16h30.23.644,jersey_experiment_5_v0,2023.2.2,Win32,84.74576271,,,,,,,,,,,,,,,,645.7295,647.0235,647.0235,648.188,return,0.4764,,25,,,,,,FBP-YG-19.png,0.35,1.2,26,0.5,,,,,,,,,,,,,0,58,58,25,1,,,,,,,,,,,,,,,,,,,,,,,,,,,,
,,,,,SRP24_033,21,Female,2024-04-10_16h30.23.644,jersey_experiment_5_v0,2023.2.2,Win32,84.74576271,,,,,,,,,,,,,,,,648.1883,649.4822,649.4822,650.8119,return,0.4518,,75,,,,,,FBP-YG-19.png,0.43,1.2,29,0.5,,,,,,,,,,,,,0,59,59,28,1,,,,,,,,,,,,,,,,,,,,,,,,,,,,
,,,,,SRP24_033,21,Female,2024-04-10_16h30.23.644,jersey_experiment_5_v0,2023.2.2,Win32,84.74576271,,,,,,,,,,,,,,,,650.8132,651.8586,651.8587,653.2354,return,0.1076,,25.52083333,,,,,,FBP-RB-81.png,0.35,1.2,36,0.25,,,,,,,,,,,,,,,,,,0,0,0,35,1,,,,,,,,,,,,,,,,,,,,,,,
,,,,,SRP24_033,21,Female,2024-04-10_16h30.23.644,jersey_experiment_5_v0,2023.2.2,Win32,84.74576271,,,,,,,,,,,,,,,,653.2356,654.2824,654.2825,655.506,return,0.2227,,50.26041667,,,,,,FBP-RB-81.png,0.37,1.2,37,0.25,,,,,,,,,,,,,,,,,,0,1,1,36,1,,,,,,,,,,,,,,,,,,,,,,,
,,,,,SRP24_033,21,Female,2024-04-10_16h30.23.644,jersey_experiment_5_v0,2023.2.2,Win32,84.74576271,,,,,,,,,,,,,,,,655.5062,656.553,656.5531,657.659,return,0.1362,,75.26041667,,,,,,FBP-RB-91.png,0.45,1.2,45,0.25,,,,,,,,,,,,,,,,,,0,2,2,44,1,,,,,,,,,,,,,,,,,,,,,,,
,,,,,SRP24_033,21,Female,2024-04-10_16h30.23.644,jersey_experiment_5_v0,2023.2.2,Win32,84.74576271,,,,,,,,,,,,,,,,657.6592,658.706,658.7061,659.4238,return,0.0378,,75.26041667,,,,,,FBP-RB-91.png,0.43,1.2,44,0.25,,,,,,,,,,,,,,,,,,0,3,3,43,1,,,,,,,,,,,,,,,,,,,,,,,
,,,,,SRP24_033,21,Female,2024-04-10_16h30.23.644,jersey_experiment_5_v0,2023.2.2,Win32,84.74576271,,,,,,,,,,,,,,,,659.424,660.7179,660.718,661.6003,return,0.0353,,24.34895833,,,,,,FBP-YG-91.png,0.35,1.2,26,0.5,,,,,,,,,,,,,,,,,,0,4,4,25,1,,,,,,,,,,,,,,,,,,,,,,,
,,,,,SRP24_033,21,Female,2024-04-10_16h30.23.644,jersey_experiment_5_v0,2023.2.2,Win32,84.74576271,,,,,,,,,,,,,,,,661.6006,662.6474,662.6474,664.3299,return,0.0889,,73.95833333,,,,,,FBP-RB-71.png,0.35,1.2,31,0.25,,,,,,,,,,,,,,,,,,0,5,5,30,1,,,,,,,,,,,,,,,,,,,,,,,
,,,,,SRP24_033,21,Female,2024-04-10_16h30.23.644,jersey_experiment_5_v0,2023.2.2,Win32,84.74576271,,,,,,,,,,,,,,,,664.3301,665.6241,665.6242,666.6121,return,0.0472,,49.609375,,,,,,FBP-PT-91.png,0.35,1.2,56,0.5,,,,,,,,,,,,,,,,,,0,6,6,55,1,,,,,,,,,,,,,,,,,,,,,,,
,,,,,SRP24_033,21,Female,2024-04-10_16h30.23.644,jersey_experiment_5_v0,2023.2.2,Win32,84.74576271,,,,,,,,,,,,,,,,666.6122,667.9063,667.9064,668.6711,return,0.179,,49.609375,,,,,,FBP-PT-71.png,0.35,1.2,46,0.5,,,,,,,,,,,,,,,,,,0,7,7,45,1,,,,,,,,,,,,,,,,,,,,,,,
,,,,,SRP24_033,21,Female,2024-04-10_16h30.23.644,jersey_experiment_5_v0,2023.2.2,Win32,84.74576271,,,,,,,,,,,,,,,,668.6712,669.9653,669.9654,671.1536,return,0.1882,,74.34895833,,,,,,FBP-PT-91.png,0.45,1.2,60,0.5,,,,,,,,,,,,,,,,,,0,8,8,59,1,,,,,,,,,,,,,,,,,,,,,,,
,,,,,SRP24_033,21,Female,2024-04-10_16h30.23.644,jersey_experiment_5_v0,2023.2.2,Win32,84.74576271,,,,,,,,,,,,,,,,671.1538,672.2006,672.2007,673.389,return,0.075,,50.390625,,,,,,FBP-RB-71.png,0.37,1.2,32,0.25,,,,,,,,,,,,,,,,,,0,9,9,31,1,,,,,,,,,,,,,,,,,,,,,,,
,,,,,SRP24_033,21,Female,2024-04-10_16h30.23.644,jersey_experiment_5_v0,2023.2.2,Win32,84.74576271,,,,,,,,,,,,,,,,673.3892,674.4361,674.4361,675.5066,return,0.0108,,75.91145833,,,,,,FBP-RB-81.png,0.43,1.2,39,0.25,,,,,,,,,,,,,,,,,,0,10,10,38,1,,,,,,,,,,,,,,,,,,,,,,,
,,,,,SRP24_033,21,Female,2024-04-10_16h30.23.644,jersey_experiment_5_v0,2023.2.2,Win32,84.74576271,,,,,,,,,,,,,,,,675.5067,676.8007,676.8008,677.9539,return,0.0944,,99.609375,,,,,,FBP-YG-81.png,0.45,1.2,25,0.5,,,,,,,,,,,,,,,,,,0,11,11,24,1,,,,,,,,,,,,,,,,,,,,,,,
,,,,,SRP24_033,21,Female,2024-04-10_16h30.23.644,jersey_experiment_5_v0,2023.2.2,Win32,84.74576271,,,,,,,,,,,,,,,,677.9541,679.2482,679.2482,680.0128,return,0.0405,,48.828125,,,,,,FBP-YG-71.png,0.4,1.2,18,0.5,,,,,,,,,,,,,,,,,,0,12,12,17,1,,,,,,,,,,,,,,,,,,,,,,,
,,,,,SRP24_033,21,Female,2024-04-10_16h30.23.644,jersey_experiment_5_v0,2023.2.2,Win32,84.74576271,,,,,,,,,,,,,,,,680.013,681.3069,681.307,681.9303,return,0.0876,,50.26041667,,,,,,FBP-YG-71.png,0.35,1.2,16,0.5,,,,,,,,,,,,,,,,,,0,13,13,15,1,,,,,,,,,,,,,,,,,,,,,,,
,,,,,SRP24_033,21,Female,2024-04-10_16h30.23.644,jersey_experiment_5_v0,2023.2.2,Win32,84.74576271,,,,,,,,,,,,,,,,681.9305,682.9776,682.9776,685.0248,return,1.1764,,75.26041667,,,,,,FBP-OG-19.png,0.43,1.2,14,0.25,,,,,,,,,,,,,,,,,,0,14,14,13,1,,,,,,,,,,,,,,,,,,,,,,,
,,,,,SRP24_033,21,Female,2024-04-10_16h30.23.644,jersey_experiment_5_v0,2023.2.2,Win32,84.74576271,,,,,,,,,,,,,,,,685.0249,686.0716,686.0716,686.6717,return,0.0717,,75,,,,,,FBP-OG-19.png,0.45,1.2,15,0.25,,,,,,,,,,,,,,,,,,0,15,15,14,1,,,,,,,,,,,,,,,,,,,,,,,
,,,,,SRP24_033,21,Female,2024-04-10_16h30.23.644,jersey_experiment_5_v0,2023.2.2,Win32,84.74576271,,,,,,,,,,,,,,,,686.6721,687.9662,687.9662,689.7543,return,0.1136,,50.26041667,,,,,,FBP-YG-71.png,0.37,1.2,17,0.5,,,,,,,,,,,,,,,,,,0,16,16,16,1,,,,,,,,,,,,,,,,,,,,,,,
,,,,,SRP24_033,21,Female,2024-04-10_16h30.23.644,jersey_experiment_5_v0,2023.2.2,Win32,84.74576271,,,,,,,,,,,,,,,,689.7545,690.8013,690.8013,692.4602,return,0.4751,,75.390625,,,,,,FBP-OG-19.png,0.37,1.2,12,0.25,,,,,,,,,,,,,,,,,,0,17,17,11,1,,,,,,,,,,,,,,,,,,,,,,,
,,,,,SRP24_033,21,Female,2024-04-10_16h30.23.644,jersey_experiment_5_v0,2023.2.2,Win32,84.74576271,,,,,,,,,,,,,,,,692.4604,693.7543,693.7544,694.2251,return,0.1082,,75,,,,,,FBP-PT-81.png,0.43,1.2,54,0.5,,,,,,,,,,,,,,,,,,0,18,18,53,1,,,,,,,,,,,,,,,,,,,,,,,
,,,,,SRP24_033,21,Female,2024-04-10_16h30.23.644,jersey_experiment_5_v0,2023.2.2,Win32,84.74576271,,,,,,,,,,,,,,,,694.2253,695.5193,695.5193,696.8135,return,1.0278,,49.73958333,,,,,,FBP-PT-91.png,0.37,1.2,57,0.5,,,,,,,,,,,,,,,,,,0,19,19,56,1,,,,,,,,,,,,,,,,,,,,,,,
,,,,,SRP24_033,21,Female,2024-04-10_16h30.23.644,jersey_experiment_5_v0,2023.2.2,Win32,84.74576271,,,,,,,,,,,,,,,,696.8136,698.1075,698.1075,698.5898,return,0.2494,,49.73958333,,,,,,FBP-YG-81.png,0.35,1.2,21,0.5,,,,,,,,,,,,,,,,,,0,20,20,20,1,,,,,,,,,,,,,,,,,,,,,,,
,,,,,SRP24_033,21,Female,2024-04-10_16h30.23.644,jersey_experiment_5_v0,2023.2.2,Win32,84.74576271,,,,,,,,,,,,,,,,698.59,699.6369,699.637,700.7782,return,0.3711,,49.73958333,,,,,,FBP-OG-19.png,0.35,1.2,11,0.25,,,,,,,,,,,,,,,,,,0,21,21,10,1,,,,,,,,,,,,,,,,,,,,,,,
,,,,,SRP24_033,21,Female,2024-04-10_16h30.23.644,jersey_experiment_5_v0,2023.2.2,Win32,84.74576271,,,,,,,,,,,,,,,,700.7784,701.8252,701.8252,702.4488,return,0.1512,,49.73958333,,,,,,FBP-OG-18.png,0.37,1.2,7,0.25,,,,,,,,,,,,,,,,,,0,22,22,6,1,,,,,,,,,,,,,,,,,,,,,,,
,,,,,SRP24_033,21,Female,2024-04-10_16h30.23.644,jersey_experiment_5_v0,2023.2.2,Win32,84.74576271,,,,,,,,,,,,,,,,702.449,703.4959,703.496,704.0489,return,0.0814,,49.73958333,,,,,,FBP-RB-91.png,0.35,1.2,41,0.25,,,,,,,,,,,,,,,,,,0,23,23,40,1,,,,,,,,,,,,,,,,,,,,,,,
,,,,,SRP24_033,21,Female,2024-04-10_16h30.23.644,jersey_experiment_5_v0,2023.2.2,Win32,84.74576271,,,,,,,,,,,,,,,,704.0491,705.096,705.096,706.2371,return,0.0988,,74.609375,,,,,,FBP-OG-17.png,0.43,1.2,4,0.25,,,,,,,,,,,,,,,,,,0,24,24,3,1,,,,,,,,,,,,,,,,,,,,,,,
,,,,,SRP24_033,21,Female,2024-04-10_16h30.23.644,jersey_experiment_5_v0,2023.2.2,Win32,84.74576271,,,,,,,,,,,,,,,,706.2374,707.2843,707.2843,708.8843,return,1.1671,,74.08854167,,,,,,FBP-OG-17.png,0.45,1.2,5,0.25,,,,,,,,,,,,,,,,,,0,25,25,4,1,,,,,,,,,,,,,,,,,,,,,,,
,,,,,SRP24_033,21,Female,2024-04-10_16h30.23.644,jersey_experiment_5_v0,2023.2.2,Win32,84.74576271,,,,,,,,,,,,,,,,708.8846,709.9313,709.9313,711.0022,return,0.0665,,75.26041667,,,,,,FBP-OG-18.png,0.43,1.2,9,0.25,,,,,,,,,,,,,,,,,,0,26,26,8,1,,,,,,,,,,,,,,,,,,,,,,,
,,,,,SRP24_033,21,Female,2024-04-10_16h30.23.644,jersey_experiment_5_v0,2023.2.2,Win32,84.74576271,,,,,,,,,,,,,,,,711.0024,712.0492,712.0492,714.1904,return,1.0153,,50,,,,,,FBP-OG-17.png,0.37,1.2,2,0.25,,,,,,,,,,,,,,,,,,0,27,27,1,1,,,,,,,,,,,,,,,,,,,,,,,
,,,,,SRP24_033,21,Female,2024-04-10_16h30.23.644,jersey_experiment_5_v0,2023.2.2,Win32,84.74576271,,,,,,,,,,,,,,,,714.1906,715.4848,715.4849,716.4258,return,0.1489,,74.73958333,,,,,,FBP-YG-91.png,0.43,1.2,29,0.5,,,,,,,,,,,,,,,,,,0,28,28,28,1,,,,,,,,,,,,,,,,,,,,,,,
,,,,,SRP24_033,21,Female,2024-04-10_16h30.23.644,jersey_experiment_5_v0,2023.2.2,Win32,84.74576271,,,,,,,,,,,,,,,,716.4261,717.72,717.7201,718.8258,return,0.0653,,49.86979167,,,,,,FBP-YG-81.png,0.37,1.2,22,0.5,,,,,,,,,,,,,,,,,,0,29,29,21,1,,,,,,,,,,,,,,,,,,,,,,,
,,,,,SRP24_033,21,Female,2024-04-10_16h30.23.644,jersey_experiment_5_v0,2023.2.2,Win32,84.74576271,,,,,,,,,,,,,,,,718.8261,720.1199,720.1199,720.626,return,0.1319,,49.86979167,,,,,,FBP-PT-91.png,0.43,1.2,59,0.5,,,,,,,,,,,,,,,,,,0,30,30,58,1,,,,,,,,,,,,,,,,,,,,,,,
,,,,,SRP24_033,21,Female,2024-04-10_16h30.23.644,jersey_experiment_5_v0,2023.2.2,Win32,84.74576271,,,,,,,,,,,,,,,,720.6262,721.9202,721.9202,722.2848,return,0.0989,,49.86979167,,,,,,FBP-YG-91.png,0.4,1.2,28,0.5,,,,,,,,,,,,,,,,,,0,31,31,27,1,,,,,,,,,,,,,,,,,,,,,,,
,,,,,SRP24_033,21,Female,2024-04-10_16h30.23.644,jersey_experiment_5_v0,2023.2.2,Win32,84.74576271,,,,,,,,,,,,,,,,722.2851,723.5788,723.5788,724.3555,return,0.1179,,74.47916667,,,,,,FBP-YG-91.png,0.45,1.2,30,0.5,,,,,,,,,,,,,,,,,,0,32,32,29,1,,,,,,,,,,,,,,,,,,,,,,,
,,,,,SRP24_033,21,Female,2024-04-10_16h30.23.644,jersey_experiment_5_v0,2023.2.2,Win32,84.74576271,,,,,,,,,,,,,,,,724.3557,725.4024,725.4024,725.979,return,0.1241,,74.47916667,,,,,,FBP-RB-71.png,0.4,1.2,33,0.25,,,,,,,,,,,,,,,,,,0,33,33,32,1,,,,,,,,,,,,,,,,,,,,,,,
,,,,,SRP24_033,21,Female,2024-04-10_16h30.23.644,jersey_experiment_5_v0,2023.2.2,Win32,84.74576271,,,,,,,,,,,,,,,,725.9792,727.0262,727.0262,728.2379,return,0.0971,,49.609375,,,,,,FBP-RB-91.png,0.37,1.2,42,0.25,,,,,,,,,,,,,,,,,,0,34,34,41,1,,,,,,,,,,,,,,,,,,,,,,,
,,,,,SRP24_033,21,Female,2024-04-10_16h30.23.644,jersey_experiment_5_v0,2023.2.2,Win32,84.74576271,,,,,,,,,,,,,,,,728.2381,729.532,729.532,729.9792,return,0.1241,,49.73958333,,,,,,FBP-PT-71.png,0.37,1.2,47,0.5,,,,,,,,,,,,,,,,,,0,35,35,46,1,,,,,,,,,,,,,,,,,,,,,,,
,,,,,SRP24_033,21,Female,2024-04-10_16h30.23.644,jersey_experiment_5_v0,2023.2.2,Win32,84.74576271,,,,,,,,,,,,,,,,729.9794,731.0264,731.0264,731.5793,return,0.1006,,49.73958333,,,,,,FBP-RB-81.png,0.4,1.2,38,0.25,,,,,,,,,,,,,,,,,,0,36,36,37,1,,,,,,,,,,,,,,,,,,,,,,,
,,,,,SRP24_033,21,Female,2024-04-10_16h30.23.644,jersey_experiment_5_v0,2023.2.2,Win32,84.74576271,,,,,,,,,,,,,,,,731.5795,732.8734,732.8734,733.6617,return,0.0626,,49.73958333,,,,,,FBP-YG-81.png,0.43,1.2,24,0.5,,,,,,,,,,,,,,,,,,0,37,37,23,1,,,,,,,,,,,,,,,,,,,,,,,
,,,,,SRP24_033,21,Female,2024-04-10_16h30.23.644,jersey_experiment_5_v0,2023.2.2,Win32,84.74576271,,,,,,,,,,,,,,,,733.662,734.9558,734.9559,736.2266,return,0.8143,,49.73958333,,,,,,FBP-YG-71.png,0.43,1.2,19,0.5,,,,,,,,,,,,,,,,,,0,38,38,18,1,,,,,,,,,,,,,,,,,,,,,,,
,,,,,SRP24_033,21,Female,2024-04-10_16h30.23.644,jersey_experiment_5_v0,2023.2.2,Win32,84.74576271,,,,,,,,,,,,,,,,736.2268,737.2736,737.2736,738.4266,return,0.0175,,50.91145833,,,,,,FBP-OG-18.png,0.4,1.2,8,0.25,,,,,,,,,,,,,,,,,,0,39,39,7,1,,,,,,,,,,,,,,,,,,,,,,,
,,,,,SRP24_033,21,Female,2024-04-10_16h30.23.644,jersey_experiment_5_v0,2023.2.2,Win32,84.74576271,,,,,,,,,,,,,,,,738.4268,739.7206,739.7206,740.0737,return,0.1488,,50.91145833,,,,,,FBP-YG-81.png,0.4,1.2,23,0.5,,,,,,,,,,,,,,,,,,0,40,40,22,1,,,,,,,,,,,,,,,,,,,,,,,
,,,,,SRP24_033,21,Female,2024-04-10_16h30.23.644,jersey_experiment_5_v0,2023.2.2,Win32,84.74576271,,,,,,,,,,,,,,,,740.0739,741.1209,741.1209,742.8033,return,0.3634,,26.04166667,,,,,,FBP-OG-17.png,0.35,1.2,1,0.25,,,,,,,,,,,,,,,,,,0,41,41,0,1,,,,,,,,,,,,,,,,,,,,,,,
,,,,,SRP24_033,21,Female,2024-04-10_16h30.23.644,jersey_experiment_5_v0,2023.2.2,Win32,84.74576271,,,,,,,,,,,,,,,,742.8035,744.0974,744.0974,744.7326,return,0.0518,,49.08854167,,,,,,FBP-YG-71.png,0.45,1.2,20,0.5,,,,,,,,,,,,,,,,,,0,42,42,19,1,,,,,,,,,,,,,,,,,,,,,,,
,,,,,SRP24_033,21,Female,2024-04-10_16h30.23.644,jersey_experiment_5_v0,2023.2.2,Win32,84.74576271,,,,,,,,,,,,,,,,744.7328,745.7797,745.7797,746.8268,return,0.4772,,49.47916667,,,,,,FBP-OG-17.png,0.4,1.2,3,0.25,,,,,,,,,,,,,,,,,,0,43,43,2,1,,,,,,,,,,,,,,,,,,,,,,,
,,,,,SRP24_033,21,Female,2024-04-10_16h30.23.644,jersey_experiment_5_v0,2023.2.2,Win32,84.74576271,,,,,,,,,,,,,,,,746.827,747.874,747.874,749.0976,return,0.1141,,75.52083333,,,,,,FBP-RB-71.png,0.43,1.2,34,0.25,,,,,,,,,,,,,,,,,,0,44,44,33,1,,,,,,,,,,,,,,,,,,,,,,,
,,,,,SRP24_033,21,Female,2024-04-10_16h30.23.644,jersey_experiment_5_v0,2023.2.2,Win32,84.74576271,,,,,,,,,,,,,,,,749.0978,750.3919,750.3919,751.4387,return,0.366,,50.26041667,,,,,,FBP-PT-81.png,0.4,1.2,53,0.5,,,,,,,,,,,,,,,,,,0,45,45,52,1,,,,,,,,,,,,,,,,,,,,,,,
,,,,,SRP24_033,21,Female,2024-04-10_16h30.23.644,jersey_experiment_5_v0,2023.2.2,Win32,84.74576271,,,,,,,,,,,,,,,,751.4389,752.4859,752.4859,753.4506,return,0.0425,,74.47916667,,,,,,FBP-RB-71.png,0.45,1.2,35,0.25,,,,,,,,,,,,,,,,,,0,46,46,34,1,,,,,,,,,,,,,,,,,,,,,,,
,,,,,SRP24_033,21,Female,2024-04-10_16h30.23.644,jersey_experiment_5_v0,2023.2.2,Win32,84.74576271,,,,,,,,,,,,,,,,753.4509,754.4978,754.4978,755.18,return,0.1941,,74.21875,,,,,,FBP-RB-81.png,0.45,1.2,40,0.25,,,,,,,,,,,,,,,,,,0,47,47,39,1,,,,,,,,,,,,,,,,,,,,,,,
,,,,,SRP24_033,21,Female,2024-04-10_16h30.23.644,jersey_experiment_5_v0,2023.2.2,Win32,84.74576271,,,,,,,,,,,,,,,,755.1803,756.4742,756.4743,757.0038,return,0.0519,,74.08854167,,,,,,FBP-PT-71.png,0.43,1.2,49,0.5,,,,,,,,,,,,,,,,,,0,48,48,48,1,,,,,,,,,,,,,,,,,,,,,,,
,,,,,SRP24_033,21,Female,2024-04-10_16h30.23.644,jersey_experiment_5_v0,2023.2.2,Win32,84.74576271,,,,,,,,,,,,,,,,757.004,758.0508,758.0508,759.2625,return,0.1555,,51.171875,,,,,,FBP-RB-91.png,0.4,1.2,43,0.25,,,,,,,,,,,,,,,,,,0,49,49,42,1,,,,,,,,,,,,,,,,,,,,,,,
,,,,,SRP24_033,21,Female,2024-04-10_16h30.23.644,jersey_experiment_5_v0,2023.2.2,Win32,84.74576271,,,,,,,,,,,,,,,,759.2628,760.3096,760.3097,761.6157,return,0.26,,25.52083333,,,,,,FBP-OG-18.png,0.35,1.2,6,0.25,,,,,,,,,,,,,,,,,,0,50,50,5,1,,,,,,,,,,,,,,,,,,,,,,,
,,,,,SRP24_033,21,Female,2024-04-10_16h30.23.644,jersey_experiment_5_v0,2023.2.2,Win32,84.74576271,,,,,,,,,,,,,,,,761.6159,762.9098,762.9099,763.8862,return,0.0737,,25.52083333,,,,,,FBP-PT-81.png,0.37,1.2,52,0.5,,,,,,,,,,,,,,,,,,0,51,51,51,1,,,,,,,,,,,,,,,,,,,,,,,
,,,,,SRP24_033,21,Female,2024-04-10_16h30.23.644,jersey_experiment_5_v0,2023.2.2,Win32,84.74576271,,,,,,,,,,,,,,,,763.8865,765.1804,765.1805,766.6042,return,0.3337,,25.52083333,,,,,,FBP-PT-81.png,0.35,1.2,51,0.5,,,,,,,,,,,,,,,,,,0,52,52,50,1,,,,,,,,,,,,,,,,,,,,,,,
,,,,,SRP24_033,21,Female,2024-04-10_16h30.23.644,jersey_experiment_5_v0,2023.2.2,Win32,84.74576271,,,,,,,,,,,,,,,,766.6044,767.8981,767.8982,768.8276,return,0.1,,50.52083333,,,,,,FBP-PT-91.png,0.4,1.2,58,0.5,,,,,,,,,,,,,,,,,,0,53,53,57,1,,,,,,,,,,,,,,,,,,,,,,,
,,,,,SRP24_033,21,Female,2024-04-10_16h30.23.644,jersey_experiment_5_v0,2023.2.2,Win32,84.74576271,,,,,,,,,,,,,,,,768.8278,770.1217,770.1217,771.1454,return,0.1375,,74.34895833,,,,,,FBP-PT-71.png,0.45,1.2,50,0.5,,,,,,,,,,,,,,,,,,0,54,54,49,1,,,,,,,,,,,,,,,,,,,,,,,
,,,,,SRP24_033,21,Female,2024-04-10_16h30.23.644,jersey_experiment_5_v0,2023.2.2,Win32,84.74576271,,,,,,,,,,,,,,,,771.1456,772.1925,772.1925,773.0867,return,0.249,,74.08854167,,,,,,FBP-OG-18.png,0.45,1.2,10,0.25,,,,,,,,,,,,,,,,,,0,55,55,9,1,,,,,,,,,,,,,,,,,,,,,,,
,,,,,SRP24_033,21,Female,2024-04-10_16h30.23.644,jersey_experiment_5_v0,2023.2.2,Win32,84.74576271,,,,,,,,,,,,,,,,773.0869,774.1337,774.1338,775.4515,return,0.2061,,51.43229167,,,,,,FBP-OG-19.png,0.4,1.2,13,0.25,,,,,,,,,,,,,,,,,,0,56,56,12,1,,,,,,,,,,,,,,,,,,,,,,,
,,,,,SRP24_033,21,Female,2024-04-10_16h30.23.644,jersey_experiment_5_v0,2023.2.2,Win32,84.74576271,,,,,,,,,,,,,,,,775.4517,776.7455,776.7456,777.428,return,0.0005,,51.171875,,,,,,FBP-PT-81.png,0.45,1.2,55,0.5,,,,,,,,,,,,,,,,,,0,57,57,54,1,,,,,,,,,,,,,,,,,,,,,,,
,,,,,SRP24_033,21,Female,2024-04-10_16h30.23.644,jersey_experiment_5_v0,2023.2.2,Win32,84.74576271,,,,,,,,,,,,,,,,777.4283,778.7222,778.7222,780.1457,return,0.1885,,24.609375,,,,,,FBP-YG-91.png,0.37,1.2,27,0.5,,,,,,,,,,,,,,,,,,0,58,58,26,1,,,,,,,,,,,,,,,,,,,,,,,
,,,,,SRP24_033,21,Female,2024-04-10_16h30.23.644,jersey_experiment_5_v0,2023.2.2,Win32,84.74576271,,,,,,,,,,,,,,,,780.1459,781.4398,781.4399,782.1223,return,0.1718,,24.609375,,,,,,FBP-PT-71.png,0.4,1.2,48,0.5,,,,,,,,,,,,,,,,,,0,59,59,47,1,,,,,,,,,,,,,,,,,,,,,,,
,,,,,SRP24_033,21,Female,2024-04-10_16h30.23.644,jersey_experiment_5_v0,2023.2.2,Win32,84.74576271,,,,,,,,,,,,,,,,,,,,,,,,,,,,,,,,,,,,,,,,,,,,,,,,,,,,,,,,782.1227,786.2875,return,4.1523,,,,,,,,,,,,,,,,,,,
,,,,,SRP24_033,21,Female,2024-04-10_16h30.23.644,jersey_experiment_5_v0,2023.2.2,Win32,84.74576271,,,,,,,,,,,,,,,,,,,,,,,,,,,,,,,,,,,,,,,,,,,,,,,,,,,,,,,,,,,,,786.2875,790.0992,1,3.1086,return,0.6821,,,,,,,,,,,,
,,,,,SRP24_033,21,Female,2024-04-10_16h30.23.644,jersey_experiment_5_v0,2023.2.2,Win32,84.74576271,,,,,,,,,,,,,,,,,,,,,,,,,,,,,,,,,,,,,,,,,,,,,,,,,,,,,,,,,,,,,,,,,,,,790.0993,852.8826,"Whether a pattern in size affects what your guess will be, but I didn't recognize any particular patterns.",right,56.4388,,,,,,
,,,,,SRP24_033,21,Female,2024-04-10_16h30.23.644,jersey_experiment_5_v0,2023.2.2,Win32,84.74576271,,,,,,,,,,,,,,,,,,,,,,,,,,,,,,,,,,,,,,,,,,,,,,,,,,,,,,,,,,,,,,,,,,,,,,,,,,852.8828,856.4307,return,3.5382,