requirements.started,requirements.stopped,key_resp_3.keys,key_resp_3.rt,key_resp_3.duration,Subject ID,Age,Gender,date,expName,psychopyVersion,OS,frameRate,instructions1.started,instructions1.stopped,key_resp.keys,key_resp.rt,key_resp.duration,example.started,example.stopped,enter_2.keys,enter_2.rt,enter_2.duration,instructions2.started,instructions2.stopped,enter_3.keys,enter_3.rt,enter_3.duration,image.started,image.stopped,slider_2.started,slider_2.stopped,next.keys,next.rt,next.duration,slider.response,trial_block_1.thisRepN,trial_block_1.thisTrialN,trial_block_1.thisN,trial_block_1.thisIndex,trial_block_1.ran,Path,Width,Height,Index,Duration,trial_block_2.thisRepN,trial_block_2.thisTrialN,trial_block_2.thisN,trial_block_2.thisIndex,trial_block_2.ran,rest_break.started,rest_break.stopped,end_break.started,end_break.stopped,key_resp_5.keys,key_resp_5.rt,key_resp_5.duration,trial_block_3.thisRepN,trial_block_3.thisTrialN,trial_block_3.thisN,trial_block_3.thisIndex,trial_block_3.ran,trial_block_4.thisRepN,trial_block_4.thisTrialN,trial_block_4.thisN,trial_block_4.thisIndex,trial_block_4.ran,questions_intro.started,questions_intro.stopped,enter_12.keys,enter_12.rt,enter_12.duration,question2.started,question2.stopped,question_doingbest.response,question_doingbest.rt,enter_15.keys,enter_15.rt,enter_15.duration,pattern.started,pattern.stopped,pattern_2.text,enter_17.keys,enter_17.rt,enter_17.duration,thankyou.started,thankyou.stopped,enter_14.keys,enter_14.rt,enter_14.duration
0.0001,7.7973,return,7.7912,,SRP24_041,20,Female,2024-04-11_16h28.50.046,jersey_experiment_5_v0,2023.2.2,Win32,85.47008547,,,,,,,,,,,,,,,,,,,,,,,,,,,,,,,,,,,,,,,,,,,,,,,,,,,,,,,,,,,,,,,,,,,,,,,,,,,,,,
,,,,,SRP24_041,20,Female,2024-04-11_16h28.50.046,jersey_experiment_5_v0,2023.2.2,Win32,85.47008547,7.7974,16.2562,return,8.4545,,,,,,,,,,,,,,,,,,,,,,,,,,,,,,,,,,,,,,,,,,,,,,,,,,,,,,,,,,,,,,,,,,,,,,,,,,
,,,,,SRP24_041,20,Female,2024-04-11_16h28.50.046,jersey_experiment_5_v0,2023.2.2,Win32,85.47008547,,,,,,16.2562,21.5152,return,5.2236,,,,,,,,,,,,,,,,,,,,,,,,,,,,,,,,,,,,,,,,,,,,,,,,,,,,,,,,,,,,,,,,,,,,,
,,,,,SRP24_041,20,Female,2024-04-11_16h28.50.046,jersey_experiment_5_v0,2023.2.2,Win32,85.47008547,,,,,,,,,,,21.5153,39.7864,return,18.2586,,,,,,,,,,,,,,,,,,,,,,,,,,,,,,,,,,,,,,,,,,,,,,,,,,,,,,,,,,,,,,,,
,,,,,SRP24_041,20,Female,2024-04-11_16h28.50.046,jersey_experiment_5_v0,2023.2.2,Win32,85.47008547,,,,,,,,,,,,,,,,39.7936,40.845,40.8451,50.61,return,2.0889,,89.19270833,0,0,0,26,1,FBP-YG-19.png,0.37,1.2,27,0.25,,,,,,,,,,,,,,,,,,,,,,,,,,,,,,,,,,,,,,,,,,,,,
,,,,,SRP24_041,20,Female,2024-04-11_16h28.50.046,jersey_experiment_5_v0,2023.2.2,Win32,85.47008547,,,,,,,,,,,,,,,,50.6105,51.9043,51.9044,54.7632,return,1.1382,,60.15625,0,1,1,30,1,FBP-RB-17.png,0.35,1.2,31,0.5,,,,,,,,,,,,,,,,,,,,,,,,,,,,,,,,,,,,,,,,,,,,,
,,,,,SRP24_041,20,Female,2024-04-11_16h28.50.046,jersey_experiment_5_v0,2023.2.2,Win32,85.47008547,,,,,,,,,,,,,,,,54.7634,55.8104,55.8104,58.3398,return,0.7344,,89.0625,0,2,2,27,1,FBP-YG-19.png,0.4,1.2,28,0.25,,,,,,,,,,,,,,,,,,,,,,,,,,,,,,,,,,,,,,,,,,,,,
,,,,,SRP24_041,20,Female,2024-04-11_16h28.50.046,jersey_experiment_5_v0,2023.2.2,Win32,85.47008547,,,,,,,,,,,,,,,,58.34,59.3868,59.3868,61.5046,return,0.7597,,89.0625,0,3,3,53,1,FBP-PT-18.png,0.43,1.2,54,0.25,,,,,,,,,,,,,,,,,,,,,,,,,,,,,,,,,,,,,,,,,,,,,
,,,,,SRP24_041,20,Female,2024-04-11_16h28.50.046,jersey_experiment_5_v0,2023.2.2,Win32,85.47008547,,,,,,,,,,,,,,,,61.5047,62.5517,62.5517,69.8461,return,4.8264,,49.34895833,0,4,4,45,1,FBP-PT-17.png,0.35,1.2,46,0.25,,,,,,,,,,,,,,,,,,,,,,,,,,,,,,,,,,,,,,,,,,,,,
,,,,,SRP24_041,20,Female,2024-04-11_16h28.50.046,jersey_experiment_5_v0,2023.2.2,Win32,85.47008547,,,,,,,,,,,,,,,,69.8463,70.8932,70.8932,73.2697,return,0.6026,,57.8125,0,5,5,55,1,FBP-PT-19.png,0.35,1.2,56,0.25,,,,,,,,,,,,,,,,,,,,,,,,,,,,,,,,,,,,,,,,,,,,,
,,,,,SRP24_041,20,Female,2024-04-11_16h28.50.046,jersey_experiment_5_v0,2023.2.2,Win32,85.47008547,,,,,,,,,,,,,,,,73.2699,74.5638,74.5638,76.6818,return,0.7302,,36.97916667,0,6,6,0,1,FBP-OG-71.png,0.35,1.2,1,0.5,,,,,,,,,,,,,,,,,,,,,,,,,,,,,,,,,,,,,,,,,,,,,
,,,,,SRP24_041,20,Female,2024-04-11_16h28.50.046,jersey_experiment_5_v0,2023.2.2,Win32,85.47008547,,,,,,,,,,,,,,,,76.6819,77.9757,77.9758,79.7641,return,0.581,,100,0,7,7,32,1,FBP-RB-17.png,0.4,1.2,33,0.5,,,,,,,,,,,,,,,,,,,,,,,,,,,,,,,,,,,,,,,,,,,,,
,,,,,SRP24_041,20,Female,2024-04-11_16h28.50.046,jersey_experiment_5_v0,2023.2.2,Win32,85.47008547,,,,,,,,,,,,,,,,79.7643,81.0583,81.0583,84.1642,return,0.6512,,74.86979167,0,8,8,36,1,FBP-RB-18.png,0.37,1.2,37,0.5,,,,,,,,,,,,,,,,,,,,,,,,,,,,,,,,,,,,,,,,,,,,,
,,,,,SRP24_041,20,Female,2024-04-11_16h28.50.046,jersey_experiment_5_v0,2023.2.2,Win32,85.47008547,,,,,,,,,,,,,,,,84.1643,85.4583,85.4583,87.0937,return,0.5305,,100,0,9,9,14,1,FBP-OG-91.png,0.45,1.2,15,0.5,,,,,,,,,,,,,,,,,,,,,,,,,,,,,,,,,,,,,,,,,,,,,
,,,,,SRP24_041,20,Female,2024-04-11_16h28.50.046,jersey_experiment_5_v0,2023.2.2,Win32,85.47008547,,,,,,,,,,,,,,,,87.0939,88.1408,88.1409,90.9292,return,0.5485,,72.65625,0,10,10,21,1,FBP-YG-18.png,0.37,1.2,22,0.25,,,,,,,,,,,,,,,,,,,,,,,,,,,,,,,,,,,,,,,,,,,,,
,,,,,SRP24_041,20,Female,2024-04-11_16h28.50.046,jersey_experiment_5_v0,2023.2.2,Win32,85.47008547,,,,,,,,,,,,,,,,90.9294,91.9763,91.9763,96,return,0.4438,,78.64583333,0,11,11,46,1,FBP-PT-17.png,0.37,1.2,47,0.25,,,,,,,,,,,,,,,,,,,,,,,,,,,,,,,,,,,,,,,,,,,,,
,,,,,SRP24_041,20,Female,2024-04-11_16h28.50.046,jersey_experiment_5_v0,2023.2.2,Win32,85.47008547,,,,,,,,,,,,,,,,96.0001,97.047,97.047,98.5529,return,0.4565,,78.64583333,0,12,12,52,1,FBP-PT-18.png,0.4,1.2,53,0.25,,,,,,,,,,,,,,,,,,,,,,,,,,,,,,,,,,,,,,,,,,,,,
,,,,,SRP24_041,20,Female,2024-04-11_16h28.50.046,jersey_experiment_5_v0,2023.2.2,Win32,85.47008547,,,,,,,,,,,,,,,,98.5531,99.847,99.8471,104.4708,return,2.401,,93.09895833,0,13,13,38,1,FBP-RB-18.png,0.43,1.2,39,0.5,,,,,,,,,,,,,,,,,,,,,,,,,,,,,,,,,,,,,,,,,,,,,
,,,,,SRP24_041,20,Female,2024-04-11_16h28.50.046,jersey_experiment_5_v0,2023.2.2,Win32,85.47008547,,,,,,,,,,,,,,,,104.471,105.7651,105.7651,107.8591,return,0.4028,,96.484375,0,14,14,2,1,FBP-OG-71.png,0.4,1.2,3,0.5,,,,,,,,,,,,,,,,,,,,,,,,,,,,,,,,,,,,,,,,,,,,,
,,,,,SRP24_041,20,Female,2024-04-11_16h28.50.046,jersey_experiment_5_v0,2023.2.2,Win32,85.47008547,,,,,,,,,,,,,,,,107.8594,108.9061,108.9062,111.377,return,0.3841,,63.671875,0,15,15,16,1,FBP-YG-17.png,0.37,1.2,17,0.25,,,,,,,,,,,,,,,,,,,,,,,,,,,,,,,,,,,,,,,,,,,,,
,,,,,SRP24_041,20,Female,2024-04-11_16h28.50.046,jersey_experiment_5_v0,2023.2.2,Win32,85.47008547,,,,,,,,,,,,,,,,111.3771,112.6711,112.6712,114.3064,return,0.3707,,70.96354167,0,16,16,37,1,FBP-RB-18.png,0.4,1.2,38,0.5,,,,,,,,,,,,,,,,,,,,,,,,,,,,,,,,,,,,,,,,,,,,,
,,,,,SRP24_041,20,Female,2024-04-11_16h28.50.046,jersey_experiment_5_v0,2023.2.2,Win32,85.47008547,,,,,,,,,,,,,,,,114.3066,115.3535,115.3536,116.9301,return,0.4158,,100,0,17,17,49,1,FBP-PT-17.png,0.45,1.2,50,0.25,,,,,,,,,,,,,,,,,,,,,,,,,,,,,,,,,,,,,,,,,,,,,
,,,,,SRP24_041,20,Female,2024-04-11_16h28.50.046,jersey_experiment_5_v0,2023.2.2,Win32,85.47008547,,,,,,,,,,,,,,,,116.9302,117.9773,117.9773,120.8478,return,0.7028,,23.046875,0,18,18,25,1,FBP-YG-19.png,0.35,1.2,26,0.25,,,,,,,,,,,,,,,,,,,,,,,,,,,,,,,,,,,,,,,,,,,,,
,,,,,SRP24_041,20,Female,2024-04-11_16h28.50.046,jersey_experiment_5_v0,2023.2.2,Win32,85.47008547,,,,,,,,,,,,,,,,120.848,121.895,121.895,125.7304,return,0.9237,,88.28125,0,19,19,48,1,FBP-PT-17.png,0.43,1.2,49,0.25,,,,,,,,,,,,,,,,,,,,,,,,,,,,,,,,,,,,,,,,,,,,,
,,,,,SRP24_041,20,Female,2024-04-11_16h28.50.046,jersey_experiment_5_v0,2023.2.2,Win32,85.47008547,,,,,,,,,,,,,,,,125.7305,126.7776,126.7777,128.4717,return,0.5074,,100,0,20,20,28,1,FBP-YG-19.png,0.43,1.2,29,0.25,,,,,,,,,,,,,,,,,,,,,,,,,,,,,,,,,,,,,,,,,,,,,
,,,,,SRP24_041,20,Female,2024-04-11_16h28.50.046,jersey_experiment_5_v0,2023.2.2,Win32,85.47008547,,,,,,,,,,,,,,,,128.4718,129.5187,129.5187,131.8129,return,0.5328,,37.76041667,0,21,21,20,1,FBP-YG-18.png,0.35,1.2,21,0.25,,,,,,,,,,,,,,,,,,,,,,,,,,,,,,,,,,,,,,,,,,,,,
,,,,,SRP24_041,20,Female,2024-04-11_16h28.50.046,jersey_experiment_5_v0,2023.2.2,Win32,85.47008547,,,,,,,,,,,,,,,,131.8132,132.8601,132.8601,135.6836,return,0.4611,,58.85416667,0,22,22,51,1,FBP-PT-18.png,0.37,1.2,52,0.25,,,,,,,,,,,,,,,,,,,,,,,,,,,,,,,,,,,,,,,,,,,,,
,,,,,SRP24_041,20,Female,2024-04-11_16h28.50.046,jersey_experiment_5_v0,2023.2.2,Win32,85.47008547,,,,,,,,,,,,,,,,135.6839,136.9778,136.9778,138.625,return,0.3702,,67.1875,0,23,23,12,1,FBP-OG-91.png,0.4,1.2,13,0.5,,,,,,,,,,,,,,,,,,,,,,,,,,,,,,,,,,,,,,,,,,,,,
,,,,,SRP24_041,20,Female,2024-04-11_16h28.50.046,jersey_experiment_5_v0,2023.2.2,Win32,85.47008547,,,,,,,,,,,,,,,,138.6252,139.6721,139.6721,146.9665,return,0.4715,,72.78645833,0,24,24,56,1,FBP-PT-19.png,0.37,1.2,57,0.25,,,,,,,,,,,,,,,,,,,,,,,,,,,,,,,,,,,,,,,,,,,,,
,,,,,SRP24_041,20,Female,2024-04-11_16h28.50.046,jersey_experiment_5_v0,2023.2.2,Win32,85.47008547,,,,,,,,,,,,,,,,146.9667,148.0136,148.0136,149.5431,return,0.5661,,86.71875,0,25,25,18,1,FBP-YG-17.png,0.43,1.2,19,0.25,,,,,,,,,,,,,,,,,,,,,,,,,,,,,,,,,,,,,,,,,,,,,
,,,,,SRP24_041,20,Female,2024-04-11_16h28.50.046,jersey_experiment_5_v0,2023.2.2,Win32,85.47008547,,,,,,,,,,,,,,,,149.5432,150.8372,150.8372,153.3784,return,0.3916,,64.19270833,0,26,26,1,1,FBP-OG-71.png,0.37,1.2,2,0.5,,,,,,,,,,,,,,,,,,,,,,,,,,,,,,,,,,,,,,,,,,,,,
,,,,,SRP24_041,20,Female,2024-04-11_16h28.50.046,jersey_experiment_5_v0,2023.2.2,Win32,85.47008547,,,,,,,,,,,,,,,,153.3786,154.6726,154.6726,156.9198,return,0.9543,,54.03645833,0,27,27,5,1,FBP-OG-81.png,0.35,1.2,6,0.5,,,,,,,,,,,,,,,,,,,,,,,,,,,,,,,,,,,,,,,,,,,,,
,,,,,SRP24_041,20,Female,2024-04-11_16h28.50.046,jersey_experiment_5_v0,2023.2.2,Win32,85.47008547,,,,,,,,,,,,,,,,156.92,158.214,158.214,159.7316,return,0.3813,,93.48958333,0,28,28,8,1,FBP-OG-81.png,0.43,1.2,9,0.5,,,,,,,,,,,,,,,,,,,,,,,,,,,,,,,,,,,,,,,,,,,,,
,,,,,SRP24_041,20,Female,2024-04-11_16h28.50.046,jersey_experiment_5_v0,2023.2.2,Win32,85.47008547,,,,,,,,,,,,,,,,159.7318,161.0257,161.0257,162.4847,return,0.2725,,85.28645833,0,29,29,7,1,FBP-OG-81.png,0.4,1.2,8,0.5,,,,,,,,,,,,,,,,,,,,,,,,,,,,,,,,,,,,,,,,,,,,,
,,,,,SRP24_041,20,Female,2024-04-11_16h28.50.046,jersey_experiment_5_v0,2023.2.2,Win32,85.47008547,,,,,,,,,,,,,,,,162.4849,163.5317,163.5318,168.3554,return,1.8287,,100,0,30,30,54,1,FBP-PT-18.png,0.45,1.2,55,0.25,,,,,,,,,,,,,,,,,,,,,,,,,,,,,,,,,,,,,,,,,,,,,
,,,,,SRP24_041,20,Female,2024-04-11_16h28.50.046,jersey_experiment_5_v0,2023.2.2,Win32,85.47008547,,,,,,,,,,,,,,,,168.3556,169.6496,169.6497,171.779,return,0.3921,,100,0,31,31,39,1,FBP-RB-18.png,0.45,1.2,40,0.5,,,,,,,,,,,,,,,,,,,,,,,,,,,,,,,,,,,,,,,,,,,,,
,,,,,SRP24_041,20,Female,2024-04-11_16h28.50.046,jersey_experiment_5_v0,2023.2.2,Win32,85.47008547,,,,,,,,,,,,,,,,171.7792,173.0732,173.0732,174.6499,return,0.4705,,92.578125,0,32,32,3,1,FBP-OG-71.png,0.43,1.2,4,0.5,,,,,,,,,,,,,,,,,,,,,,,,,,,,,,,,,,,,,,,,,,,,,
,,,,,SRP24_041,20,Female,2024-04-11_16h28.50.046,jersey_experiment_5_v0,2023.2.2,Win32,85.47008547,,,,,,,,,,,,,,,,174.65,175.697,175.697,177.7323,return,0.4039,,21.875,0,33,33,50,1,FBP-PT-18.png,0.35,1.2,51,0.25,,,,,,,,,,,,,,,,,,,,,,,,,,,,,,,,,,,,,,,,,,,,,
,,,,,SRP24_041,20,Female,2024-04-11_16h28.50.046,jersey_experiment_5_v0,2023.2.2,Win32,85.47008547,,,,,,,,,,,,,,,,177.7324,179.0263,179.0264,180.5322,return,0.3677,,100,0,34,34,44,1,FBP-RB-19.png,0.45,1.2,45,0.5,,,,,,,,,,,,,,,,,,,,,,,,,,,,,,,,,,,,,,,,,,,,,
,,,,,SRP24_041,20,Female,2024-04-11_16h28.50.046,jersey_experiment_5_v0,2023.2.2,Win32,85.47008547,,,,,,,,,,,,,,,,180.5325,181.8265,181.8265,183.8149,return,0.8484,,100,0,35,35,9,1,FBP-OG-81.png,0.45,1.2,10,0.5,,,,,,,,,,,,,,,,,,,,,,,,,,,,,,,,,,,,,,,,,,,,,
,,,,,SRP24_041,20,Female,2024-04-11_16h28.50.046,jersey_experiment_5_v0,2023.2.2,Win32,85.47008547,,,,,,,,,,,,,,,,183.8152,185.109,185.1091,187.0738,return,0.3232,,100,0,36,36,4,1,FBP-OG-71.png,0.45,1.2,5,0.5,,,,,,,,,,,,,,,,,,,,,,,,,,,,,,,,,,,,,,,,,,,,,
,,,,,SRP24_041,20,Female,2024-04-11_16h28.50.046,jersey_experiment_5_v0,2023.2.2,Win32,85.47008547,,,,,,,,,,,,,,,,187.0739,188.121,188.121,189.8268,return,0.3678,,72.65625,0,37,37,47,1,FBP-PT-17.png,0.4,1.2,48,0.25,,,,,,,,,,,,,,,,,,,,,,,,,,,,,,,,,,,,,,,,,,,,,
,,,,,SRP24_041,20,Female,2024-04-11_16h28.50.046,jersey_experiment_5_v0,2023.2.2,Win32,85.47008547,,,,,,,,,,,,,,,,189.827,190.874,190.874,192.7916,return,0.3398,,15.75520833,0,38,38,15,1,FBP-YG-17.png,0.35,1.2,16,0.25,,,,,,,,,,,,,,,,,,,,,,,,,,,,,,,,,,,,,,,,,,,,,
,,,,,SRP24_041,20,Female,2024-04-11_16h28.50.046,jersey_experiment_5_v0,2023.2.2,Win32,85.47008547,,,,,,,,,,,,,,,,192.7917,194.0857,194.0858,195.8977,return,0.3403,,33.59375,0,39,39,41,1,FBP-RB-19.png,0.37,1.2,42,0.5,,,,,,,,,,,,,,,,,,,,,,,,,,,,,,,,,,,,,,,,,,,,,
,,,,,SRP24_041,20,Female,2024-04-11_16h28.50.046,jersey_experiment_5_v0,2023.2.2,Win32,85.47008547,,,,,,,,,,,,,,,,195.8979,197.1918,197.1918,198.9331,return,0.5916,,93.88020833,0,40,40,43,1,FBP-RB-19.png,0.43,1.2,44,0.5,,,,,,,,,,,,,,,,,,,,,,,,,,,,,,,,,,,,,,,,,,,,,
,,,,,SRP24_041,20,Female,2024-04-11_16h28.50.046,jersey_experiment_5_v0,2023.2.2,Win32,85.47008547,,,,,,,,,,,,,,,,198.9333,200.2272,200.2272,201.7918,return,0.4305,,63.80208333,0,41,41,6,1,FBP-OG-81.png,0.37,1.2,7,0.5,,,,,,,,,,,,,,,,,,,,,,,,,,,,,,,,,,,,,,,,,,,,,
,,,,,SRP24_041,20,Female,2024-04-11_16h28.50.046,jersey_experiment_5_v0,2023.2.2,Win32,85.47008547,,,,,,,,,,,,,,,,201.792,203.0861,203.0862,205.2156,return,0.2674,,39.19270833,0,42,42,31,1,FBP-RB-17.png,0.37,1.2,32,0.5,,,,,,,,,,,,,,,,,,,,,,,,,,,,,,,,,,,,,,,,,,,,,
,,,,,SRP24_041,20,Female,2024-04-11_16h28.50.046,jersey_experiment_5_v0,2023.2.2,Win32,85.47008547,,,,,,,,,,,,,,,,205.2158,206.5097,206.5098,208.5334,return,0.285,,26.82291667,0,43,43,35,1,FBP-RB-18.png,0.35,1.2,36,0.5,,,,,,,,,,,,,,,,,,,,,,,,,,,,,,,,,,,,,,,,,,,,,
,,,,,SRP24_041,20,Female,2024-04-11_16h28.50.046,jersey_experiment_5_v0,2023.2.2,Win32,85.47008547,,,,,,,,,,,,,,,,208.5337,209.8275,209.8276,211.2864,return,0.378,,28.515625,0,44,44,10,1,FBP-OG-91.png,0.35,1.2,11,0.5,,,,,,,,,,,,,,,,,,,,,,,,,,,,,,,,,,,,,,,,,,,,,
,,,,,SRP24_041,20,Female,2024-04-11_16h28.50.046,jersey_experiment_5_v0,2023.2.2,Win32,85.47008547,,,,,,,,,,,,,,,,211.2867,212.3336,212.3336,214.0159,return,0.4789,,100,0,45,45,24,1,FBP-YG-18.png,0.45,1.2,25,0.25,,,,,,,,,,,,,,,,,,,,,,,,,,,,,,,,,,,,,,,,,,,,,
,,,,,SRP24_041,20,Female,2024-04-11_16h28.50.046,jersey_experiment_5_v0,2023.2.2,Win32,85.47008547,,,,,,,,,,,,,,,,214.0162,215.3101,215.3101,220.9456,return,3.1587,,87.890625,0,46,46,42,1,FBP-RB-19.png,0.4,1.2,43,0.5,,,,,,,,,,,,,,,,,,,,,,,,,,,,,,,,,,,,,,,,,,,,,
,,,,,SRP24_041,20,Female,2024-04-11_16h28.50.046,jersey_experiment_5_v0,2023.2.2,Win32,85.47008547,,,,,,,,,,,,,,,,220.9458,221.9926,221.9927,223.7223,return,0.3904,,74.47916667,0,47,47,17,1,FBP-YG-17.png,0.4,1.2,18,0.25,,,,,,,,,,,,,,,,,,,,,,,,,,,,,,,,,,,,,,,,,,,,,
,,,,,SRP24_041,20,Female,2024-04-11_16h28.50.046,jersey_experiment_5_v0,2023.2.2,Win32,85.47008547,,,,,,,,,,,,,,,,223.7227,225.0163,225.0163,226.7458,return,0.5283,,87.109375,0,48,48,33,1,FBP-RB-17.png,0.43,1.2,34,0.5,,,,,,,,,,,,,,,,,,,,,,,,,,,,,,,,,,,,,,,,,,,,,
,,,,,SRP24_041,20,Female,2024-04-11_16h28.50.046,jersey_experiment_5_v0,2023.2.2,Win32,85.47008547,,,,,,,,,,,,,,,,226.746,228.0399,228.0399,229.6634,return,0.2674,,92.578125,0,49,49,13,1,FBP-OG-91.png,0.43,1.2,14,0.5,,,,,,,,,,,,,,,,,,,,,,,,,,,,,,,,,,,,,,,,,,,,,
,,,,,SRP24_041,20,Female,2024-04-11_16h28.50.046,jersey_experiment_5_v0,2023.2.2,Win32,85.47008547,,,,,,,,,,,,,,,,229.6636,230.9576,230.9576,232.6401,return,0.4069,,50.78125,0,50,50,11,1,FBP-OG-91.png,0.37,1.2,12,0.5,,,,,,,,,,,,,,,,,,,,,,,,,,,,,,,,,,,,,,,,,,,,,
,,,,,SRP24_041,20,Female,2024-04-11_16h28.50.046,jersey_experiment_5_v0,2023.2.2,Win32,85.47008547,,,,,,,,,,,,,,,,232.6403,233.6872,233.6872,235.1697,return,0.5111,,100,0,51,51,59,1,FBP-PT-19.png,0.45,1.2,60,0.25,,,,,,,,,,,,,,,,,,,,,,,,,,,,,,,,,,,,,,,,,,,,,
,,,,,SRP24_041,20,Female,2024-04-11_16h28.50.046,jersey_experiment_5_v0,2023.2.2,Win32,85.47008547,,,,,,,,,,,,,,,,235.1698,236.2167,236.2168,238.0168,return,0.5957,,100,0,52,52,29,1,FBP-YG-19.png,0.45,1.2,30,0.25,,,,,,,,,,,,,,,,,,,,,,,,,,,,,,,,,,,,,,,,,,,,,
,,,,,SRP24_041,20,Female,2024-04-11_16h28.50.046,jersey_experiment_5_v0,2023.2.2,Win32,85.47008547,,,,,,,,,,,,,,,,238.0169,239.3109,239.3109,240.8404,return,0.3633,,93.48958333,0,53,53,34,1,FBP-RB-17.png,0.45,1.2,35,0.5,,,,,,,,,,,,,,,,,,,,,,,,,,,,,,,,,,,,,,,,,,,,,
,,,,,SRP24_041,20,Female,2024-04-11_16h28.50.046,jersey_experiment_5_v0,2023.2.2,Win32,85.47008547,,,,,,,,,,,,,,,,240.8406,241.8876,241.8877,243.6642,return,0.3847,,83.46354167,0,54,54,58,1,FBP-PT-19.png,0.43,1.2,59,0.25,,,,,,,,,,,,,,,,,,,,,,,,,,,,,,,,,,,,,,,,,,,,,
,,,,,SRP24_041,20,Female,2024-04-11_16h28.50.046,jersey_experiment_5_v0,2023.2.2,Win32,85.47008547,,,,,,,,,,,,,,,,243.6643,244.9581,244.9582,246.77,return,0.3593,,22.52604167,0,55,55,40,1,FBP-RB-19.png,0.35,1.2,41,0.5,,,,,,,,,,,,,,,,,,,,,,,,,,,,,,,,,,,,,,,,,,,,,
,,,,,SRP24_041,20,Female,2024-04-11_16h28.50.046,jersey_experiment_5_v0,2023.2.2,Win32,85.47008547,,,,,,,,,,,,,,,,246.7701,247.8171,247.8172,250.3467,return,0.3874,,84.765625,0,56,56,23,1,FBP-YG-18.png,0.43,1.2,24,0.25,,,,,,,,,,,,,,,,,,,,,,,,,,,,,,,,,,,,,,,,,,,,,
,,,,,SRP24_041,20,Female,2024-04-11_16h28.50.046,jersey_experiment_5_v0,2023.2.2,Win32,85.47008547,,,,,,,,,,,,,,,,250.3469,251.3938,251.3939,253.4174,return,0.3668,,82.421875,0,57,57,57,1,FBP-PT-19.png,0.4,1.2,58,0.25,,,,,,,,,,,,,,,,,,,,,,,,,,,,,,,,,,,,,,,,,,,,,
,,,,,SRP24_041,20,Female,2024-04-11_16h28.50.046,jersey_experiment_5_v0,2023.2.2,Win32,85.47008547,,,,,,,,,,,,,,,,253.4176,254.4645,254.4645,255.9116,return,0.3191,,97.91666667,0,58,58,19,1,FBP-YG-17.png,0.45,1.2,20,0.25,,,,,,,,,,,,,,,,,,,,,,,,,,,,,,,,,,,,,,,,,,,,,
,,,,,SRP24_041,20,Female,2024-04-11_16h28.50.046,jersey_experiment_5_v0,2023.2.2,Win32,85.47008547,,,,,,,,,,,,,,,,255.9118,256.9586,256.9587,259.0646,return,0.3765,,50.65104167,0,59,59,22,1,FBP-YG-18.png,0.4,1.2,23,0.25,,,,,,,,,,,,,,,,,,,,,,,,,,,,,,,,,,,,,,,,,,,,,
,,,,,SRP24_041,20,Female,2024-04-11_16h28.50.046,jersey_experiment_5_v0,2023.2.2,Win32,85.47008547,,,,,,,,,,,,,,,,259.0667,260.3588,260.3588,262.6178,return,0.4843,,77.734375,,,,,,FBP-OG-19.png,0.43,1.2,14,0.5,0,0,0,13,1,,,,,,,,,,,,,,,,,,,,,,,,,,,,,,,,,,,,,,,,
,,,,,SRP24_041,20,Female,2024-04-11_16h28.50.046,jersey_experiment_5_v0,2023.2.2,Win32,85.47008547,,,,,,,,,,,,,,,,262.6179,263.9118,263.9118,270.8534,return,0.4855,,83.33333333,,,,,,FBP-RB-81.png,0.45,1.2,40,0.5,0,1,1,39,1,,,,,,,,,,,,,,,,,,,,,,,,,,,,,,,,,,,,,,,,
,,,,,SRP24_041,20,Female,2024-04-11_16h28.50.046,jersey_experiment_5_v0,2023.2.2,Win32,85.47008547,,,,,,,,,,,,,,,,270.8536,272.1475,272.1475,274.9476,return,0.9442,,20.3125,,,,,,FBP-RB-71.png,0.35,1.2,31,0.5,0,2,2,30,1,,,,,,,,,,,,,,,,,,,,,,,,,,,,,,,,,,,,,,,,
,,,,,SRP24_041,20,Female,2024-04-11_16h28.50.046,jersey_experiment_5_v0,2023.2.2,Win32,85.47008547,,,,,,,,,,,,,,,,274.9478,276.2418,276.2418,278.1593,return,0.3476,,18.48958333,,,,,,FBP-RB-91.png,0.35,1.2,41,0.5,0,3,3,40,1,,,,,,,,,,,,,,,,,,,,,,,,,,,,,,,,,,,,,,,,
,,,,,SRP24_041,20,Female,2024-04-11_16h28.50.046,jersey_experiment_5_v0,2023.2.2,Win32,85.47008547,,,,,,,,,,,,,,,,278.1595,279.2065,279.2065,280.7242,return,0.4509,,18.359375,,,,,,FBP-YG-91.png,0.37,1.2,27,0.25,0,4,4,26,1,,,,,,,,,,,,,,,,,,,,,,,,,,,,,,,,,,,,,,,,
,,,,,SRP24_041,20,Female,2024-04-11_16h28.50.046,jersey_experiment_5_v0,2023.2.2,Win32,85.47008547,,,,,,,,,,,,,,,,280.7244,281.7714,281.7715,283.9243,return,0.4617,,23.69791667,,,,,,FBP-PT-71.png,0.35,1.2,46,0.25,0,5,5,45,1,,,,,,,,,,,,,,,,,,,,,,,,,,,,,,,,,,,,,,,,
,,,,,SRP24_041,20,Female,2024-04-11_16h28.50.046,jersey_experiment_5_v0,2023.2.2,Win32,85.47008547,,,,,,,,,,,,,,,,283.9245,285.2185,285.2185,288.8893,return,0.4343,,75.78125,,,,,,FBP-RB-71.png,0.43,1.2,34,0.5,0,6,6,33,1,,,,,,,,,,,,,,,,,,,,,,,,,,,,,,,,,,,,,,,,
,,,,,SRP24_041,20,Female,2024-04-11_16h28.50.046,jersey_experiment_5_v0,2023.2.2,Win32,85.47008547,,,,,,,,,,,,,,,,288.8895,290.1833,290.1834,292.2658,return,0.4936,,96.09375,,,,,,FBP-OG-19.png,0.45,1.2,15,0.5,0,7,7,14,1,,,,,,,,,,,,,,,,,,,,,,,,,,,,,,,,,,,,,,,,
,,,,,SRP24_041,20,Female,2024-04-11_16h28.50.046,jersey_experiment_5_v0,2023.2.2,Win32,85.47008547,,,,,,,,,,,,,,,,292.2659,293.3128,293.3128,294.6778,return,0.4358,,100,,,,,,FBP-PT-91.png,0.45,1.2,60,0.25,0,8,8,59,1,,,,,,,,,,,,,,,,,,,,,,,,,,,,,,,,,,,,,,,,
,,,,,SRP24_041,20,Female,2024-04-11_16h28.50.046,jersey_experiment_5_v0,2023.2.2,Win32,85.47008547,,,,,,,,,,,,,,,,294.678,295.9719,295.9719,299.1718,return,0.3429,,70.83333333,,,,,,FBP-OG-19.png,0.37,1.2,12,0.5,0,9,9,11,1,,,,,,,,,,,,,,,,,,,,,,,,,,,,,,,,,,,,,,,,
,,,,,SRP24_041,20,Female,2024-04-11_16h28.50.046,jersey_experiment_5_v0,2023.2.2,Win32,85.47008547,,,,,,,,,,,,,,,,299.1721,300.4661,300.4661,303.9721,return,0.4041,,84.50520833,,,,,,FBP-RB-81.png,0.43,1.2,39,0.5,0,10,10,38,1,,,,,,,,,,,,,,,,,,,,,,,,,,,,,,,,,,,,,,,,
,,,,,SRP24_041,20,Female,2024-04-11_16h28.50.046,jersey_experiment_5_v0,2023.2.2,Win32,85.47008547,,,,,,,,,,,,,,,,303.9723,305.2662,305.2663,307.2663,return,0.453,,50,,,,,,FBP-RB-91.png,0.37,1.2,42,0.5,0,11,11,41,1,,,,,,,,,,,,,,,,,,,,,,,,,,,,,,,,,,,,,,,,
,,,,,SRP24_041,20,Female,2024-04-11_16h28.50.046,jersey_experiment_5_v0,2023.2.2,Win32,85.47008547,,,,,,,,,,,,,,,,307.2666,308.5605,308.5605,311.1136,return,1.0126,,97.39583333,,,,,,FBP-OG-17.png,0.45,1.2,5,0.5,0,12,12,4,1,,,,,,,,,,,,,,,,,,,,,,,,,,,,,,,,,,,,,,,,
,,,,,SRP24_041,20,Female,2024-04-11_16h28.50.046,jersey_experiment_5_v0,2023.2.2,Win32,85.47008547,,,,,,,,,,,,,,,,311.1137,312.1606,312.1606,314.4314,return,0.5249,,49.609375,,,,,,FBP-YG-91.png,0.35,1.2,26,0.25,0,13,13,25,1,,,,,,,,,,,,,,,,,,,,,,,,,,,,,,,,,,,,,,,,
,,,,,SRP24_041,20,Female,2024-04-11_16h28.50.046,jersey_experiment_5_v0,2023.2.2,Win32,85.47008547,,,,,,,,,,,,,,,,314.4316,315.7256,315.7256,317.8904,return,0.4283,,66.92708333,,,,,,FBP-RB-81.png,0.4,1.2,38,0.5,0,14,14,37,1,,,,,,,,,,,,,,,,,,,,,,,,,,,,,,,,,,,,,,,,
,,,,,SRP24_041,20,Female,2024-04-11_16h28.50.046,jersey_experiment_5_v0,2023.2.2,Win32,85.47008547,,,,,,,,,,,,,,,,317.8907,319.1847,319.1847,322.4198,return,0.5456,,45.05208333,,,,,,FBP-OG-19.png,0.35,1.2,11,0.5,0,15,15,10,1,,,,,,,,,,,,,,,,,,,,,,,,,,,,,,,,,,,,,,,,
,,,,,SRP24_041,20,Female,2024-04-11_16h28.50.046,jersey_experiment_5_v0,2023.2.2,Win32,85.47008547,,,,,,,,,,,,,,,,322.42,323.7139,323.714,329.9612,return,2.8708,,69.79166667,,,,,,FBP-RB-71.png,0.4,1.2,33,0.5,0,16,16,32,1,,,,,,,,,,,,,,,,,,,,,,,,,,,,,,,,,,,,,,,,
,,,,,SRP24_041,20,Female,2024-04-11_16h28.50.046,jersey_experiment_5_v0,2023.2.2,Win32,85.47008547,,,,,,,,,,,,,,,,329.9614,331.0084,331.0084,334.1849,return,1.2576,,46.74479167,,,,,,FBP-YG-81.png,0.35,1.2,21,0.25,0,17,17,20,1,,,,,,,,,,,,,,,,,,,,,,,,,,,,,,,,,,,,,,,,
,,,,,SRP24_041,20,Female,2024-04-11_16h28.50.046,jersey_experiment_5_v0,2023.2.2,Win32,85.47008547,,,,,,,,,,,,,,,,334.1852,335.479,335.4791,338.2792,return,0.3298,,56.77083333,,,,,,FBP-RB-71.png,0.37,1.2,32,0.5,0,18,18,31,1,,,,,,,,,,,,,,,,,,,,,,,,,,,,,,,,,,,,,,,,
,,,,,SRP24_041,20,Female,2024-04-11_16h28.50.046,jersey_experiment_5_v0,2023.2.2,Win32,85.47008547,,,,,,,,,,,,,,,,338.2795,339.5734,339.5734,340.9146,return,0.3688,,100,,,,,,FBP-OG-18.png,0.45,1.2,10,0.5,0,19,19,9,1,,,,,,,,,,,,,,,,,,,,,,,,,,,,,,,,,,,,,,,,
,,,,,SRP24_041,20,Female,2024-04-11_16h28.50.046,jersey_experiment_5_v0,2023.2.2,Win32,85.47008547,,,,,,,,,,,,,,,,340.9148,341.9617,341.9618,344.4089,return,1.2127,,89.453125,,,,,,FBP-PT-71.png,0.4,1.2,48,0.25,0,20,20,47,1,,,,,,,,,,,,,,,,,,,,,,,,,,,,,,,,,,,,,,,,
,,,,,SRP24_041,20,Female,2024-04-11_16h28.50.046,jersey_experiment_5_v0,2023.2.2,Win32,85.47008547,,,,,,,,,,,,,,,,344.409,345.7031,345.7031,346.8561,return,0.33,,100,,,,,,FBP-RB-71.png,0.45,1.2,35,0.5,0,21,21,34,1,,,,,,,,,,,,,,,,,,,,,,,,,,,,,,,,,,,,,,,,
,,,,,SRP24_041,20,Female,2024-04-11_16h28.50.046,jersey_experiment_5_v0,2023.2.2,Win32,85.47008547,,,,,,,,,,,,,,,,346.8564,347.9031,347.9031,349.5266,return,0.2943,,100,,,,,,FBP-PT-81.png,0.43,1.2,54,0.25,0,22,22,53,1,,,,,,,,,,,,,,,,,,,,,,,,,,,,,,,,,,,,,,,,
,,,,,SRP24_041,20,Female,2024-04-11_16h28.50.046,jersey_experiment_5_v0,2023.2.2,Win32,85.47008547,,,,,,,,,,,,,,,,349.5268,350.5738,350.5738,352.4679,return,0.2632,,100,,,,,,FBP-YG-81.png,0.45,1.2,25,0.25,0,23,23,24,1,,,,,,,,,,,,,,,,,,,,,,,,,,,,,,,,,,,,,,,,
,,,,,SRP24_041,20,Female,2024-04-11_16h28.50.046,jersey_experiment_5_v0,2023.2.2,Win32,85.47008547,,,,,,,,,,,,,,,,352.4681,353.515,353.515,354.8092,return,0.2107,,100,,,,,,FBP-PT-81.png,0.45,1.2,55,0.25,0,24,24,54,1,,,,,,,,,,,,,,,,,,,,,,,,,,,,,,,,,,,,,,,,
,,,,,SRP24_041,20,Female,2024-04-11_16h28.50.046,jersey_experiment_5_v0,2023.2.2,Win32,85.47008547,,,,,,,,,,,,,,,,354.8093,355.8562,355.8562,357.3505,return,0.2249,,93.61979167,,,,,,FBP-YG-71.png,0.43,1.2,19,0.25,0,25,25,18,1,,,,,,,,,,,,,,,,,,,,,,,,,,,,,,,,,,,,,,,,
,,,,,SRP24_041,20,Female,2024-04-11_16h28.50.046,jersey_experiment_5_v0,2023.2.2,Win32,85.47008547,,,,,,,,,,,,,,,,357.3507,358.6447,358.6448,362.1153,return,0.2969,,49.609375,,,,,,FBP-OG-17.png,0.37,1.2,2,0.5,0,26,26,1,1,,,,,,,,,,,,,,,,,,,,,,,,,,,,,,,,,,,,,,,,
,,,,,SRP24_041,20,Female,2024-04-11_16h28.50.046,jersey_experiment_5_v0,2023.2.2,Win32,85.47008547,,,,,,,,,,,,,,,,362.1154,363.1625,363.1625,364.7742,return,0.2005,,39.84375,,,,,,FBP-PT-81.png,0.35,1.2,51,0.25,0,27,27,50,1,,,,,,,,,,,,,,,,,,,,,,,,,,,,,,,,,,,,,,,,
,,,,,SRP24_041,20,Female,2024-04-11_16h28.50.046,jersey_experiment_5_v0,2023.2.2,Win32,85.47008547,,,,,,,,,,,,,,,,364.7744,366.0685,366.0686,369.8568,return,2.2753,,88.54166667,,,,,,FBP-OG-18.png,0.43,1.2,9,0.5,0,28,28,8,1,,,,,,,,,,,,,,,,,,,,,,,,,,,,,,,,,,,,,,,,
,,,,,SRP24_041,20,Female,2024-04-11_16h28.50.046,jersey_experiment_5_v0,2023.2.2,Win32,85.47008547,,,,,,,,,,,,,,,,369.857,371.151,371.151,373.5746,return,0.2473,,56.38020833,,,,,,FBP-RB-81.png,0.37,1.2,37,0.5,0,29,29,36,1,,,,,,,,,,,,,,,,,,,,,,,,,,,,,,,,,,,,,,,,
,,,,,SRP24_041,20,Female,2024-04-11_16h28.50.046,jersey_experiment_5_v0,2023.2.2,Win32,85.47008547,,,,,,,,,,,,,,,,373.5748,374.6218,374.6218,376.5983,return,0.5316,,88.671875,,,,,,FBP-YG-71.png,0.45,1.2,20,0.25,0,30,30,19,1,,,,,,,,,,,,,,,,,,,,,,,,,,,,,,,,,,,,,,,,
,,,,,SRP24_041,20,Female,2024-04-11_16h28.50.046,jersey_experiment_5_v0,2023.2.2,Win32,85.47008547,,,,,,,,,,,,,,,,376.5985,377.6452,377.6453,380.7865,return,0.2762,,59.50520833,,,,,,FBP-YG-81.png,0.37,1.2,22,0.25,0,31,31,21,1,,,,,,,,,,,,,,,,,,,,,,,,,,,,,,,,,,,,,,,,
,,,,,SRP24_041,20,Female,2024-04-11_16h28.50.046,jersey_experiment_5_v0,2023.2.2,Win32,85.47008547,,,,,,,,,,,,,,,,380.7867,382.0808,382.0808,383.7986,return,0.343,,65.234375,,,,,,FBP-OG-17.png,0.4,1.2,3,0.5,0,32,32,2,1,,,,,,,,,,,,,,,,,,,,,,,,,,,,,,,,,,,,,,,,
,,,,,SRP24_041,20,Female,2024-04-11_16h28.50.046,jersey_experiment_5_v0,2023.2.2,Win32,85.47008547,,,,,,,,,,,,,,,,383.7988,384.8455,384.8455,385.9514,return,0.338,,65.234375,,,,,,FBP-YG-71.png,0.4,1.2,18,0.25,0,33,33,17,1,,,,,,,,,,,,,,,,,,,,,,,,,,,,,,,,,,,,,,,,
,,,,,SRP24_041,20,Female,2024-04-11_16h28.50.046,jersey_experiment_5_v0,2023.2.2,Win32,85.47008547,,,,,,,,,,,,,,,,385.9516,387.2456,387.2456,389.5045,return,0.2528,,50.390625,,,,,,FBP-OG-18.png,0.35,1.2,6,0.5,0,34,34,5,1,,,,,,,,,,,,,,,,,,,,,,,,,,,,,,,,,,,,,,,,
,,,,,SRP24_041,20,Female,2024-04-11_16h28.50.046,jersey_experiment_5_v0,2023.2.2,Win32,85.47008547,,,,,,,,,,,,,,,,389.5047,390.7987,390.7987,393.3166,return,0.3329,,59.375,,,,,,FBP-OG-19.png,0.4,1.2,13,0.5,0,35,35,12,1,,,,,,,,,,,,,,,,,,,,,,,,,,,,,,,,,,,,,,,,
,,,,,SRP24_041,20,Female,2024-04-11_16h28.50.046,jersey_experiment_5_v0,2023.2.2,Win32,85.47008547,,,,,,,,,,,,,,,,393.3167,394.3636,394.3636,395.8342,return,0.2118,,77.99479167,,,,,,FBP-YG-81.png,0.43,1.2,24,0.25,0,36,36,23,1,,,,,,,,,,,,,,,,,,,,,,,,,,,,,,,,,,,,,,,,
,,,,,SRP24_041,20,Female,2024-04-11_16h28.50.046,jersey_experiment_5_v0,2023.2.2,Win32,85.47008547,,,,,,,,,,,,,,,,395.8344,396.8813,396.8813,399.3519,return,0.26,,40.36458333,,,,,,FBP-YG-71.png,0.37,1.2,17,0.25,0,37,37,16,1,,,,,,,,,,,,,,,,,,,,,,,,,,,,,,,,,,,,,,,,
,,,,,SRP24_041,20,Female,2024-04-11_16h28.50.046,jersey_experiment_5_v0,2023.2.2,Win32,85.47008547,,,,,,,,,,,,,,,,399.3522,400.3989,400.3989,403.1874,return,1.3578,,69.921875,,,,,,FBP-YG-91.png,0.4,1.2,28,0.25,0,38,38,27,1,,,,,,,,,,,,,,,,,,,,,,,,,,,,,,,,,,,,,,,,
,,,,,SRP24_041,20,Female,2024-04-11_16h28.50.046,jersey_experiment_5_v0,2023.2.2,Win32,85.47008547,,,,,,,,,,,,,,,,403.1876,404.2344,404.2344,407.5876,return,0.2987,,50.390625,,,,,,FBP-PT-91.png,0.35,1.2,56,0.25,0,39,39,55,1,,,,,,,,,,,,,,,,,,,,,,,,,,,,,,,,,,,,,,,,
,,,,,SRP24_041,20,Female,2024-04-11_16h28.50.046,jersey_experiment_5_v0,2023.2.2,Win32,85.47008547,,,,,,,,,,,,,,,,407.5878,408.6346,408.6346,410.7052,return,0.242,,91.015625,,,,,,FBP-PT-71.png,0.43,1.2,49,0.25,0,40,40,48,1,,,,,,,,,,,,,,,,,,,,,,,,,,,,,,,,,,,,,,,,
,,,,,SRP24_041,20,Female,2024-04-11_16h28.50.046,jersey_experiment_5_v0,2023.2.2,Win32,85.47008547,,,,,,,,,,,,,,,,410.7053,411.9994,411.9994,413.8583,return,0.3914,,49.47916667,,,,,,FBP-OG-18.png,0.37,1.2,7,0.5,0,41,41,6,1,,,,,,,,,,,,,,,,,,,,,,,,,,,,,,,,,,,,,,,,
,,,,,SRP24_041,20,Female,2024-04-11_16h28.50.046,jersey_experiment_5_v0,2023.2.2,Win32,85.47008547,,,,,,,,,,,,,,,,413.8586,414.9055,414.9055,416.4821,return,0.3473,,40.36458333,,,,,,FBP-YG-71.png,0.35,1.2,16,0.25,0,42,42,15,1,,,,,,,,,,,,,,,,,,,,,,,,,,,,,,,,,,,,,,,,
,,,,,SRP24_041,20,Female,2024-04-11_16h28.50.046,jersey_experiment_5_v0,2023.2.2,Win32,85.47008547,,,,,,,,,,,,,,,,416.4822,417.5291,417.5291,420.3998,return,0.136,,50.65104167,,,,,,FBP-PT-81.png,0.37,1.2,52,0.25,0,43,43,51,1,,,,,,,,,,,,,,,,,,,,,,,,,,,,,,,,,,,,,,,,
,,,,,SRP24_041,20,Female,2024-04-11_16h28.50.046,jersey_experiment_5_v0,2023.2.2,Win32,85.47008547,,,,,,,,,,,,,,,,420.4001,421.4469,421.4469,423.1057,return,0.1817,,53.125,,,,,,FBP-PT-91.png,0.37,1.2,57,0.25,0,44,44,56,1,,,,,,,,,,,,,,,,,,,,,,,,,,,,,,,,,,,,,,,,
,,,,,SRP24_041,20,Female,2024-04-11_16h28.50.046,jersey_experiment_5_v0,2023.2.2,Win32,85.47008547,,,,,,,,,,,,,,,,423.1058,424.1529,424.1529,426.5177,return,0.2139,,68.75,,,,,,FBP-PT-81.png,0.4,1.2,53,0.25,0,45,45,52,1,,,,,,,,,,,,,,,,,,,,,,,,,,,,,,,,,,,,,,,,
,,,,,SRP24_041,20,Female,2024-04-11_16h28.50.046,jersey_experiment_5_v0,2023.2.2,Win32,85.47008547,,,,,,,,,,,,,,,,426.5178,427.5647,427.5647,429.0824,return,0.3166,,88.02083333,,,,,,FBP-PT-71.png,0.45,1.2,50,0.25,0,46,46,49,1,,,,,,,,,,,,,,,,,,,,,,,,,,,,,,,,,,,,,,,,
,,,,,SRP24_041,20,Female,2024-04-11_16h28.50.046,jersey_experiment_5_v0,2023.2.2,Win32,85.47008547,,,,,,,,,,,,,,,,429.0825,430.1296,430.1296,432.1648,return,0.2256,,84.11458333,,,,,,FBP-YG-91.png,0.43,1.2,29,0.25,0,47,47,28,1,,,,,,,,,,,,,,,,,,,,,,,,,,,,,,,,,,,,,,,,
,,,,,SRP24_041,20,Female,2024-04-11_16h28.50.046,jersey_experiment_5_v0,2023.2.2,Win32,85.47008547,,,,,,,,,,,,,,,,432.165,433.212,433.212,434.3062,return,0.2986,,84.11458333,,,,,,FBP-YG-81.png,0.4,1.2,23,0.25,0,48,48,22,1,,,,,,,,,,,,,,,,,,,,,,,,,,,,,,,,,,,,,,,,
,,,,,SRP24_041,20,Female,2024-04-11_16h28.50.046,jersey_experiment_5_v0,2023.2.2,Win32,85.47008547,,,,,,,,,,,,,,,,434.3064,435.6003,435.6003,438.7769,return,1.1167,,65.88541667,,,,,,FBP-OG-18.png,0.4,1.2,8,0.5,0,49,49,7,1,,,,,,,,,,,,,,,,,,,,,,,,,,,,,,,,,,,,,,,,
,,,,,SRP24_041,20,Female,2024-04-11_16h28.50.046,jersey_experiment_5_v0,2023.2.2,Win32,85.47008547,,,,,,,,,,,,,,,,438.7771,440.0711,440.0711,441.5888,return,0.2029,,25,,,,,,FBP-RB-81.png,0.35,1.2,36,0.5,0,50,50,35,1,,,,,,,,,,,,,,,,,,,,,,,,,,,,,,,,,,,,,,,,
,,,,,SRP24_041,20,Female,2024-04-11_16h28.50.046,jersey_experiment_5_v0,2023.2.2,Win32,85.47008547,,,,,,,,,,,,,,,,441.589,442.8829,442.883,445.1301,return,0.2918,,56.38020833,,,,,,FBP-RB-91.png,0.4,1.2,43,0.5,0,51,51,42,1,,,,,,,,,,,,,,,,,,,,,,,,,,,,,,,,,,,,,,,,
,,,,,SRP24_041,20,Female,2024-04-11_16h28.50.046,jersey_experiment_5_v0,2023.2.2,Win32,85.47008547,,,,,,,,,,,,,,,,445.1303,446.1773,446.1773,448.3065,return,0.9227,,91.53645833,,,,,,FBP-YG-91.png,0.45,1.2,30,0.25,0,52,52,29,1,,,,,,,,,,,,,,,,,,,,,,,,,,,,,,,,,,,,,,,,
,,,,,SRP24_041,20,Female,2024-04-11_16h28.50.046,jersey_experiment_5_v0,2023.2.2,Win32,85.47008547,,,,,,,,,,,,,,,,448.3067,449.6009,449.6009,451.2244,return,0.197,,48.95833333,,,,,,FBP-OG-17.png,0.35,1.2,1,0.5,0,53,53,0,1,,,,,,,,,,,,,,,,,,,,,,,,,,,,,,,,,,,,,,,,
,,,,,SRP24_041,20,Female,2024-04-11_16h28.50.046,jersey_experiment_5_v0,2023.2.2,Win32,85.47008547,,,,,,,,,,,,,,,,451.2246,452.2716,452.2716,453.8009,return,0.1411,,58.85416667,,,,,,FBP-PT-91.png,0.4,1.2,58,0.25,0,54,54,57,1,,,,,,,,,,,,,,,,,,,,,,,,,,,,,,,,,,,,,,,,
,,,,,SRP24_041,20,Female,2024-04-11_16h28.50.046,jersey_experiment_5_v0,2023.2.2,Win32,85.47008547,,,,,,,,,,,,,,,,453.8011,454.8479,454.848,457.1539,return,1.4513,,62.36979167,,,,,,FBP-PT-71.png,0.37,1.2,47,0.25,0,55,55,46,1,,,,,,,,,,,,,,,,,,,,,,,,,,,,,,,,,,,,,,,,
,,,,,SRP24_041,20,Female,2024-04-11_16h28.50.046,jersey_experiment_5_v0,2023.2.2,Win32,85.47008547,,,,,,,,,,,,,,,,457.1542,458.4482,458.4482,459.7659,return,0.2373,,82.55208333,,,,,,FBP-OG-17.png,0.43,1.2,4,0.5,0,56,56,3,1,,,,,,,,,,,,,,,,,,,,,,,,,,,,,,,,,,,,,,,,
,,,,,SRP24_041,20,Female,2024-04-11_16h28.50.046,jersey_experiment_5_v0,2023.2.2,Win32,85.47008547,,,,,,,,,,,,,,,,459.7661,461.06,461.0601,462.0718,return,0.1755,,84.11458333,,,,,,FBP-RB-91.png,0.43,1.2,44,0.5,0,57,57,43,1,,,,,,,,,,,,,,,,,,,,,,,,,,,,,,,,,,,,,,,,
,,,,,SRP24_041,20,Female,2024-04-11_16h28.50.046,jersey_experiment_5_v0,2023.2.2,Win32,85.47008547,,,,,,,,,,,,,,,,462.0719,463.366,463.366,464.8367,return,0.1565,,85.546875,,,,,,FBP-RB-91.png,0.45,1.2,45,0.5,0,58,58,44,1,,,,,,,,,,,,,,,,,,,,,,,,,,,,,,,,,,,,,,,,
,,,,,SRP24_041,20,Female,2024-04-11_16h28.50.046,jersey_experiment_5_v0,2023.2.2,Win32,85.47008547,,,,,,,,,,,,,,,,464.8369,465.8837,465.8838,466.9779,return,0.1215,,87.63020833,,,,,,FBP-PT-91.png,0.43,1.2,59,0.25,0,59,59,58,1,,,,,,,,,,,,,,,,,,,,,,,,,,,,,,,,,,,,,,,,
,,,,,SRP24_041,20,Female,2024-04-11_16h28.50.046,jersey_experiment_5_v0,2023.2.2,Win32,85.47008547,,,,,,,,,,,,,,,,,,,,,,,,,,,,,,,,,,,,,,,466.9784,586.9709,,,,,,,,,,,,,,,,,,,,,,,,,,,,,,,,,,,,,,
,,,,,SRP24_041,20,Female,2024-04-11_16h28.50.046,jersey_experiment_5_v0,2023.2.2,Win32,85.47008547,,,,,,,,,,,,,,,,,,,,,,,,,,,,,,,,,,,,,,,,,586.971,588.8883,return,1.9045,,,,,,,,,,,,,,,,,,,,,,,,,,,,,,,,,,
,,,,,SRP24_041,20,Female,2024-04-11_16h28.50.046,jersey_experiment_5_v0,2023.2.2,Win32,85.47008547,,,,,,,,,,,,,,,,588.8949,589.9471,589.9471,592.9943,return,0.4292,,22.265625,,,,,,FBP-OG-71.png,0.35,1.2,1,0.25,,,,,,,,,,,,,0,0,0,0,1,,,,,,,,,,,,,,,,,,,,,,,,,,,,
,,,,,SRP24_041,20,Female,2024-04-11_16h28.50.046,jersey_experiment_5_v0,2023.2.2,Win32,85.47008547,,,,,,,,,,,,,,,,592.9945,594.2882,594.2883,597.559,return,2.3405,,39.84375,,,,,,FBP-PT-19.png,0.35,1.2,56,0.5,,,,,,,,,,,,,0,1,1,55,1,,,,,,,,,,,,,,,,,,,,,,,,,,,,
,,,,,SRP24_041,20,Female,2024-04-11_16h28.50.046,jersey_experiment_5_v0,2023.2.2,Win32,85.47008547,,,,,,,,,,,,,,,,597.5592,598.6063,598.6063,599.5591,return,0.1286,,39.84375,,,,,,FBP-RB-18.png,0.35,1.2,36,0.25,,,,,,,,,,,,,0,2,2,35,1,,,,,,,,,,,,,,,,,,,,,,,,,,,,
,,,,,SRP24_041,20,Female,2024-04-11_16h28.50.046,jersey_experiment_5_v0,2023.2.2,Win32,85.47008547,,,,,,,,,,,,,,,,599.5593,600.8532,600.8533,602.9474,return,0.3197,,51.171875,,,,,,FBP-YG-18.png,0.37,1.2,22,0.5,,,,,,,,,,,,,0,3,3,21,1,,,,,,,,,,,,,,,,,,,,,,,,,,,,
,,,,,SRP24_041,20,Female,2024-04-11_16h28.50.046,jersey_experiment_5_v0,2023.2.2,Win32,85.47008547,,,,,,,,,,,,,,,,602.9477,603.9946,603.9946,605.0417,return,0.2754,,54.94791667,,,,,,FBP-OG-81.png,0.37,1.2,7,0.25,,,,,,,,,,,,,0,4,4,6,1,,,,,,,,,,,,,,,,,,,,,,,,,,,,
,,,,,SRP24_041,20,Female,2024-04-11_16h28.50.046,jersey_experiment_5_v0,2023.2.2,Win32,85.47008547,,,,,,,,,,,,,,,,605.0419,606.0889,606.089,607.7005,return,0.3562,,75.52083333,,,,,,FBP-OG-81.png,0.43,1.2,9,0.25,,,,,,,,,,,,,0,5,5,8,1,,,,,,,,,,,,,,,,,,,,,,,,,,,,
,,,,,SRP24_041,20,Female,2024-04-11_16h28.50.046,jersey_experiment_5_v0,2023.2.2,Win32,85.47008547,,,,,,,,,,,,,,,,607.7007,608.9947,608.9948,610.489,return,0.3063,,66.53645833,,,,,,FBP-YG-17.png,0.37,1.2,17,0.5,,,,,,,,,,,,,0,6,6,16,1,,,,,,,,,,,,,,,,,,,,,,,,,,,,
,,,,,SRP24_041,20,Female,2024-04-11_16h28.50.046,jersey_experiment_5_v0,2023.2.2,Win32,85.47008547,,,,,,,,,,,,,,,,610.4893,611.7831,611.7831,614.1127,return,1.1015,,94.53125,,,,,,FBP-PT-19.png,0.45,1.2,60,0.5,,,,,,,,,,,,,0,7,7,59,1,,,,,,,,,,,,,,,,,,,,,,,,,,,,
,,,,,SRP24_041,20,Female,2024-04-11_16h28.50.046,jersey_experiment_5_v0,2023.2.2,Win32,85.47008547,,,,,,,,,,,,,,,,614.1129,615.4068,615.4068,616.4891,return,0.2252,,98.828125,,,,,,FBP-PT-18.png,0.45,1.2,55,0.5,,,,,,,,,,,,,0,8,8,54,1,,,,,,,,,,,,,,,,,,,,,,,,,,,,
,,,,,SRP24_041,20,Female,2024-04-11_16h28.50.046,jersey_experiment_5_v0,2023.2.2,Win32,85.47008547,,,,,,,,,,,,,,,,616.4894,617.7834,617.7835,619.7597,return,0.2656,,38.80208333,,,,,,FBP-YG-18.png,0.35,1.2,21,0.5,,,,,,,,,,,,,0,9,9,20,1,,,,,,,,,,,,,,,,,,,,,,,,,,,,
,,,,,SRP24_041,20,Female,2024-04-11_16h28.50.046,jersey_experiment_5_v0,2023.2.2,Win32,85.47008547,,,,,,,,,,,,,,,,619.7601,621.0539,621.054,622.6424,return,0.298,,94.66145833,,,,,,FBP-YG-18.png,0.45,1.2,25,0.5,,,,,,,,,,,,,0,10,10,24,1,,,,,,,,,,,,,,,,,,,,,,,,,,,,
,,,,,SRP24_041,20,Female,2024-04-11_16h28.50.046,jersey_experiment_5_v0,2023.2.2,Win32,85.47008547,,,,,,,,,,,,,,,,622.6426,623.6894,623.6895,625.2189,return,0.2049,,89.97395833,,,,,,FBP-OG-71.png,0.43,1.2,4,0.25,,,,,,,,,,,,,0,11,11,3,1,,,,,,,,,,,,,,,,,,,,,,,,,,,,
,,,,,SRP24_041,20,Female,2024-04-11_16h28.50.046,jersey_experiment_5_v0,2023.2.2,Win32,85.47008547,,,,,,,,,,,,,,,,625.2192,626.513,626.5131,628.466,return,0.4405,,19.140625,,,,,,FBP-PT-17.png,0.35,1.2,46,0.5,,,,,,,,,,,,,0,12,12,45,1,,,,,,,,,,,,,,,,,,,,,,,,,,,,
,,,,,SRP24_041,20,Female,2024-04-11_16h28.50.046,jersey_experiment_5_v0,2023.2.2,Win32,85.47008547,,,,,,,,,,,,,,,,628.4663,629.5132,629.5133,631.0897,return,0.453,,81.11979167,,,,,,FBP-OG-71.png,0.45,1.2,5,0.25,,,,,,,,,,,,,0,13,13,4,1,,,,,,,,,,,,,,,,,,,,,,,,,,,,
,,,,,SRP24_041,20,Female,2024-04-11_16h28.50.046,jersey_experiment_5_v0,2023.2.2,Win32,85.47008547,,,,,,,,,,,,,,,,631.0899,632.1367,632.1368,634.6072,return,1.1728,,87.63020833,,,,,,FBP-RB-17.png,0.45,1.2,35,0.25,,,,,,,,,,,,,0,14,14,34,1,,,,,,,,,,,,,,,,,,,,,,,,,,,,
,,,,,SRP24_041,20,Female,2024-04-11_16h28.50.046,jersey_experiment_5_v0,2023.2.2,Win32,85.47008547,,,,,,,,,,,,,,,,634.6074,635.9015,635.9016,639.1724,return,0.377,,33.85416667,,,,,,FBP-PT-18.png,0.37,1.2,52,0.5,,,,,,,,,,,,,0,15,15,51,1,,,,,,,,,,,,,,,,,,,,,,,,,,,,
,,,,,SRP24_041,20,Female,2024-04-11_16h28.50.046,jersey_experiment_5_v0,2023.2.2,Win32,85.47008547,,,,,,,,,,,,,,,,639.1726,640.4665,640.4665,643.2901,return,0.6114,,62.63020833,,,,,,FBP-YG-19.png,0.4,1.2,28,0.5,,,,,,,,,,,,,0,16,16,27,1,,,,,,,,,,,,,,,,,,,,,,,,,,,,
,,,,,SRP24_041,20,Female,2024-04-11_16h28.50.046,jersey_experiment_5_v0,2023.2.2,Win32,85.47008547,,,,,,,,,,,,,,,,643.2904,644.3371,644.3372,646.2549,return,0.3266,,36.84895833,,,,,,FBP-RB-17.png,0.35,1.2,31,0.25,,,,,,,,,,,,,0,17,17,30,1,,,,,,,,,,,,,,,,,,,,,,,,,,,,
,,,,,SRP24_041,20,Female,2024-04-11_16h28.50.046,jersey_experiment_5_v0,2023.2.2,Win32,85.47008547,,,,,,,,,,,,,,,,646.2551,647.5489,647.549,648.9374,return,0.4009,,100,,,,,,FBP-YG-19.png,0.45,1.2,30,0.5,,,,,,,,,,,,,0,18,18,29,1,,,,,,,,,,,,,,,,,,,,,,,,,,,,
,,,,,SRP24_041,20,Female,2024-04-11_16h28.50.046,jersey_experiment_5_v0,2023.2.2,Win32,85.47008547,,,,,,,,,,,,,,,,648.9376,650.2316,650.2316,651.9608,return,0.3294,,61.71875,,,,,,FBP-PT-17.png,0.37,1.2,47,0.5,,,,,,,,,,,,,0,19,19,46,1,,,,,,,,,,,,,,,,,,,,,,,,,,,,
,,,,,SRP24_041,20,Female,2024-04-11_16h28.50.046,jersey_experiment_5_v0,2023.2.2,Win32,85.47008547,,,,,,,,,,,,,,,,651.9611,653.0081,653.0081,654.8317,return,0.2772,,65.75520833,,,,,,FBP-OG-81.png,0.4,1.2,8,0.25,,,,,,,,,,,,,0,20,20,7,1,,,,,,,,,,,,,,,,,,,,,,,,,,,,
,,,,,SRP24_041,20,Female,2024-04-11_16h28.50.046,jersey_experiment_5_v0,2023.2.2,Win32,85.47008547,,,,,,,,,,,,,,,,654.8319,656.1258,656.1258,657.7142,return,0.3802,,75,,,,,,FBP-YG-18.png,0.43,1.2,24,0.5,,,,,,,,,,,,,0,21,21,23,1,,,,,,,,,,,,,,,,,,,,,,,,,,,,
,,,,,SRP24_041,20,Female,2024-04-11_16h28.50.046,jersey_experiment_5_v0,2023.2.2,Win32,85.47008547,,,,,,,,,,,,,,,,657.7145,659.0084,659.0084,660.8788,return,0.3144,,62.23958333,,,,,,FBP-YG-18.png,0.4,1.2,23,0.5,,,,,,,,,,,,,0,22,22,22,1,,,,,,,,,,,,,,,,,,,,,,,,,,,,
,,,,,SRP24_041,20,Female,2024-04-11_16h28.50.046,jersey_experiment_5_v0,2023.2.2,Win32,85.47008547,,,,,,,,,,,,,,,,660.879,662.173,662.173,664.8085,return,0.457,,82.94270833,,,,,,FBP-PT-18.png,0.43,1.2,54,0.5,,,,,,,,,,,,,0,23,23,53,1,,,,,,,,,,,,,,,,,,,,,,,,,,,,
,,,,,SRP24_041,20,Female,2024-04-11_16h28.50.046,jersey_experiment_5_v0,2023.2.2,Win32,85.47008547,,,,,,,,,,,,,,,,664.8087,665.8557,665.8557,668.4675,return,0.5678,,91.66666667,,,,,,FBP-OG-91.png,0.45,1.2,15,0.25,,,,,,,,,,,,,0,24,24,14,1,,,,,,,,,,,,,,,,,,,,,,,,,,,,
,,,,,SRP24_041,20,Female,2024-04-11_16h28.50.046,jersey_experiment_5_v0,2023.2.2,Win32,85.47008547,,,,,,,,,,,,,,,,668.4678,669.7616,669.7617,672.3382,return,0.3113,,24.609375,,,,,,FBP-YG-19.png,0.35,1.2,26,0.5,,,,,,,,,,,,,0,25,25,25,1,,,,,,,,,,,,,,,,,,,,,,,,,,,,
,,,,,SRP24_041,20,Female,2024-04-11_16h28.50.046,jersey_experiment_5_v0,2023.2.2,Win32,85.47008547,,,,,,,,,,,,,,,,672.3384,673.3853,673.3853,677.4795,return,0.3291,,36.97916667,,,,,,FBP-OG-71.png,0.4,1.2,3,0.25,,,,,,,,,,,,,0,26,26,2,1,,,,,,,,,,,,,,,,,,,,,,,,,,,,
,,,,,SRP24_041,20,Female,2024-04-11_16h28.50.046,jersey_experiment_5_v0,2023.2.2,Win32,85.47008547,,,,,,,,,,,,,,,,677.4798,678.5266,678.5267,680.4325,return,0.3002,,75.26041667,,,,,,FBP-OG-91.png,0.43,1.2,14,0.25,,,,,,,,,,,,,0,27,27,13,1,,,,,,,,,,,,,,,,,,,,,,,,,,,,
,,,,,SRP24_041,20,Female,2024-04-11_16h28.50.046,jersey_experiment_5_v0,2023.2.2,Win32,85.47008547,,,,,,,,,,,,,,,,680.4327,681.4797,681.4797,683.8092,return,0.6537,,81.90104167,,,,,,FBP-RB-18.png,0.45,1.2,40,0.25,,,,,,,,,,,,,0,28,28,39,1,,,,,,,,,,,,,,,,,,,,,,,,,,,,
,,,,,SRP24_041,20,Female,2024-04-11_16h28.50.046,jersey_experiment_5_v0,2023.2.2,Win32,85.47008547,,,,,,,,,,,,,,,,683.8094,684.8563,684.8563,687.8566,return,0.2412,,49.609375,,,,,,FBP-RB-18.png,0.37,1.2,37,0.25,,,,,,,,,,,,,0,29,29,36,1,,,,,,,,,,,,,,,,,,,,,,,,,,,,
,,,,,SRP24_041,20,Female,2024-04-11_16h28.50.046,jersey_experiment_5_v0,2023.2.2,Win32,85.47008547,,,,,,,,,,,,,,,,687.8568,689.1506,689.1506,690.28,return,0.2125,,49.73958333,,,,,,FBP-YG-17.png,0.35,1.2,16,0.5,,,,,,,,,,,,,0,30,30,15,1,,,,,,,,,,,,,,,,,,,,,,,,,,,,
,,,,,SRP24_041,20,Female,2024-04-11_16h28.50.046,jersey_experiment_5_v0,2023.2.2,Win32,85.47008547,,,,,,,,,,,,,,,,690.2801,691.327,691.327,693.4565,return,0.1706,,67.70833333,,,,,,FBP-RB-18.png,0.43,1.2,39,0.25,,,,,,,,,,,,,0,31,31,38,1,,,,,,,,,,,,,,,,,,,,,,,,,,,,
,,,,,SRP24_041,20,Female,2024-04-11_16h28.50.046,jersey_experiment_5_v0,2023.2.2,Win32,85.47008547,,,,,,,,,,,,,,,,693.4567,694.5037,694.5037,696.8213,return,0.1424,,59.11458333,,,,,,FBP-RB-19.png,0.37,1.2,42,0.25,,,,,,,,,,,,,0,32,32,41,1,,,,,,,,,,,,,,,,,,,,,,,,,,,,
,,,,,SRP24_041,20,Female,2024-04-11_16h28.50.046,jersey_experiment_5_v0,2023.2.2,Win32,85.47008547,,,,,,,,,,,,,,,,696.8216,698.1156,698.1156,699.8334,return,0.2584,,81.11979167,,,,,,FBP-YG-19.png,0.43,1.2,29,0.5,,,,,,,,,,,,,0,33,33,28,1,,,,,,,,,,,,,,,,,,,,,,,,,,,,
,,,,,SRP24_041,20,Female,2024-04-11_16h28.50.046,jersey_experiment_5_v0,2023.2.2,Win32,85.47008547,,,,,,,,,,,,,,,,699.8336,700.8803,700.8804,702.9158,return,0.2145,,57.68229167,,,,,,FBP-RB-17.png,0.4,1.2,33,0.25,,,,,,,,,,,,,0,34,34,32,1,,,,,,,,,,,,,,,,,,,,,,,,,,,,
,,,,,SRP24_041,20,Female,2024-04-11_16h28.50.046,jersey_experiment_5_v0,2023.2.2,Win32,85.47008547,,,,,,,,,,,,,,,,702.916,703.9628,703.9628,705.3629,return,0.1576,,69.40104167,,,,,,FBP-RB-19.png,0.4,1.2,43,0.25,,,,,,,,,,,,,0,35,35,42,1,,,,,,,,,,,,,,,,,,,,,,,,,,,,
,,,,,SRP24_041,20,Female,2024-04-11_16h28.50.046,jersey_experiment_5_v0,2023.2.2,Win32,85.47008547,,,,,,,,,,,,,,,,705.3631,706.657,706.6571,708.9747,return,0.2078,,49.86979167,,,,,,FBP-YG-19.png,0.37,1.2,27,0.5,,,,,,,,,,,,,0,36,36,26,1,,,,,,,,,,,,,,,,,,,,,,,,,,,,
,,,,,SRP24_041,20,Female,2024-04-11_16h28.50.046,jersey_experiment_5_v0,2023.2.2,Win32,85.47008547,,,,,,,,,,,,,,,,708.975,710.0219,710.0219,711.3747,return,0.1598,,83.59375,,,,,,FBP-RB-17.png,0.43,1.2,34,0.25,,,,,,,,,,,,,0,37,37,33,1,,,,,,,,,,,,,,,,,,,,,,,,,,,,
,,,,,SRP24_041,20,Female,2024-04-11_16h28.50.046,jersey_experiment_5_v0,2023.2.2,Win32,85.47008547,,,,,,,,,,,,,,,,711.3749,712.4219,712.4219,715.8455,return,0.1525,,25,,,,,,FBP-OG-71.png,0.37,1.2,2,0.25,,,,,,,,,,,,,0,38,38,1,1,,,,,,,,,,,,,,,,,,,,,,,,,,,,
,,,,,SRP24_041,20,Female,2024-04-11_16h28.50.046,jersey_experiment_5_v0,2023.2.2,Win32,85.47008547,,,,,,,,,,,,,,,,715.8456,716.8929,716.8929,718.7398,return,0.2492,,49.47916667,,,,,,FBP-OG-91.png,0.4,1.2,13,0.25,,,,,,,,,,,,,0,39,39,12,1,,,,,,,,,,,,,,,,,,,,,,,,,,,,
,,,,,SRP24_041,20,Female,2024-04-11_16h28.50.046,jersey_experiment_5_v0,2023.2.2,Win32,85.47008547,,,,,,,,,,,,,,,,718.74,720.0339,720.0339,721.2811,return,0.2994,,51.30208333,,,,,,FBP-PT-17.png,0.4,1.2,48,0.5,,,,,,,,,,,,,0,40,40,47,1,,,,,,,,,,,,,,,,,,,,,,,,,,,,
,,,,,SRP24_041,20,Female,2024-04-11_16h28.50.046,jersey_experiment_5_v0,2023.2.2,Win32,85.47008547,,,,,,,,,,,,,,,,721.2812,722.3282,722.3282,724.0694,return,0.2019,,42.05729167,,,,,,FBP-OG-91.png,0.37,1.2,12,0.25,,,,,,,,,,,,,0,41,41,11,1,,,,,,,,,,,,,,,,,,,,,,,,,,,,
,,,,,SRP24_041,20,Female,2024-04-11_16h28.50.046,jersey_experiment_5_v0,2023.2.2,Win32,85.47008547,,,,,,,,,,,,,,,,724.0695,725.1165,725.1165,726.9283,return,0.1955,,100,,,,,,FBP-RB-19.png,0.45,1.2,45,0.25,,,,,,,,,,,,,0,42,42,44,1,,,,,,,,,,,,,,,,,,,,,,,,,,,,
,,,,,SRP24_041,20,Female,2024-04-11_16h28.50.046,jersey_experiment_5_v0,2023.2.2,Win32,85.47008547,,,,,,,,,,,,,,,,726.9285,728.2224,728.2225,729.3637,return,0.2036,,100,,,,,,FBP-YG-17.png,0.45,1.2,20,0.5,,,,,,,,,,,,,0,43,43,19,1,,,,,,,,,,,,,,,,,,,,,,,,,,,,
,,,,,SRP24_041,20,Female,2024-04-11_16h28.50.046,jersey_experiment_5_v0,2023.2.2,Win32,85.47008547,,,,,,,,,,,,,,,,729.364,730.6579,730.6579,732.7051,return,0.1921,,62.890625,,,,,,FBP-PT-18.png,0.4,1.2,53,0.5,,,,,,,,,,,,,0,44,44,52,1,,,,,,,,,,,,,,,,,,,,,,,,,,,,
,,,,,SRP24_041,20,Female,2024-04-11_16h28.50.046,jersey_experiment_5_v0,2023.2.2,Win32,85.47008547,,,,,,,,,,,,,,,,732.7053,733.7521,733.7522,737.4462,return,1.3058,,41.015625,,,,,,FBP-OG-81.png,0.35,1.2,6,0.25,,,,,,,,,,,,,0,45,45,5,1,,,,,,,,,,,,,,,,,,,,,,,,,,,,
,,,,,SRP24_041,20,Female,2024-04-11_16h28.50.046,jersey_experiment_5_v0,2023.2.2,Win32,85.47008547,,,,,,,,,,,,,,,,737.4466,738.7405,738.7405,740.5759,return,0.0884,,75,,,,,,FBP-PT-17.png,0.43,1.2,49,0.5,,,,,,,,,,,,,0,46,46,48,1,,,,,,,,,,,,,,,,,,,,,,,,,,,,
,,,,,SRP24_041,20,Female,2024-04-11_16h28.50.046,jersey_experiment_5_v0,2023.2.2,Win32,85.47008547,,,,,,,,,,,,,,,,740.5763,741.8702,741.8702,742.8818,return,0.0998,,75.65104167,,,,,,FBP-YG-17.png,0.43,1.2,19,0.5,,,,,,,,,,,,,0,47,47,18,1,,,,,,,,,,,,,,,,,,,,,,,,,,,,
,,,,,SRP24_041,20,Female,2024-04-11_16h28.50.046,jersey_experiment_5_v0,2023.2.2,Win32,85.47008547,,,,,,,,,,,,,,,,742.882,744.176,744.176,745.682,return,0.1704,,75,,,,,,FBP-PT-19.png,0.43,1.2,59,0.5,,,,,,,,,,,,,0,48,48,58,1,,,,,,,,,,,,,,,,,,,,,,,,,,,,
,,,,,SRP24_041,20,Female,2024-04-11_16h28.50.046,jersey_experiment_5_v0,2023.2.2,Win32,85.47008547,,,,,,,,,,,,,,,,745.6821,746.7291,746.7291,747.8233,return,0.1494,,75,,,,,,FBP-RB-19.png,0.43,1.2,44,0.25,,,,,,,,,,,,,0,49,49,43,1,,,,,,,,,,,,,,,,,,,,,,,,,,,,
,,,,,SRP24_041,20,Female,2024-04-11_16h28.50.046,jersey_experiment_5_v0,2023.2.2,Win32,85.47008547,,,,,,,,,,,,,,,,747.8233,749.1174,749.1174,751.2821,return,0.2042,,36.84895833,,,,,,FBP-PT-18.png,0.35,1.2,51,0.5,,,,,,,,,,,,,0,50,50,50,1,,,,,,,,,,,,,,,,,,,,,,,,,,,,
,,,,,SRP24_041,20,Female,2024-04-11_16h28.50.046,jersey_experiment_5_v0,2023.2.2,Win32,85.47008547,,,,,,,,,,,,,,,,751.2823,752.3295,752.3295,755.7528,return,0.2825,,60.9375,,,,,,FBP-RB-18.png,0.4,1.2,38,0.25,,,,,,,,,,,,,0,51,51,37,1,,,,,,,,,,,,,,,,,,,,,,,,,,,,
,,,,,SRP24_041,20,Female,2024-04-11_16h28.50.046,jersey_experiment_5_v0,2023.2.2,Win32,85.47008547,,,,,,,,,,,,,,,,755.7531,757.0471,757.0471,759.5531,return,0.2171,,69.79166667,,,,,,FBP-PT-19.png,0.4,1.2,58,0.5,,,,,,,,,,,,,0,52,52,57,1,,,,,,,,,,,,,,,,,,,,,,,,,,,,
,,,,,SRP24_041,20,Female,2024-04-11_16h28.50.046,jersey_experiment_5_v0,2023.2.2,Win32,85.47008547,,,,,,,,,,,,,,,,759.5534,760.8472,760.8472,762.5296,return,0.2517,,38.15104167,,,,,,FBP-PT-19.png,0.37,1.2,57,0.5,,,,,,,,,,,,,0,53,53,56,1,,,,,,,,,,,,,,,,,,,,,,,,,,,,
,,,,,SRP24_041,20,Female,2024-04-11_16h28.50.046,jersey_experiment_5_v0,2023.2.2,Win32,85.47008547,,,,,,,,,,,,,,,,762.5297,763.5767,763.5767,765.6473,return,0.9846,,37.23958333,,,,,,FBP-OG-91.png,0.35,1.2,11,0.25,,,,,,,,,,,,,0,54,54,10,1,,,,,,,,,,,,,,,,,,,,,,,,,,,,
,,,,,SRP24_041,20,Female,2024-04-11_16h28.50.046,jersey_experiment_5_v0,2023.2.2,Win32,85.47008547,,,,,,,,,,,,,,,,765.6475,766.9415,766.9416,768.7062,return,0.3791,,90.36458333,,,,,,FBP-PT-17.png,0.45,1.2,50,0.5,,,,,,,,,,,,,0,55,55,49,1,,,,,,,,,,,,,,,,,,,,,,,,,,,,
,,,,,SRP24_041,20,Female,2024-04-11_16h28.50.046,jersey_experiment_5_v0,2023.2.2,Win32,85.47008547,,,,,,,,,,,,,,,,768.7065,769.7534,769.7534,771.0475,return,0.2824,,96.35416667,,,,,,FBP-OG-81.png,0.45,1.2,10,0.25,,,,,,,,,,,,,0,56,56,9,1,,,,,,,,,,,,,,,,,,,,,,,,,,,,
,,,,,SRP24_041,20,Female,2024-04-11_16h28.50.046,jersey_experiment_5_v0,2023.2.2,Win32,85.47008547,,,,,,,,,,,,,,,,771.0477,772.0947,772.0947,774.0947,return,0.5254,,24.47916667,,,,,,FBP-RB-19.png,0.35,1.2,41,0.25,,,,,,,,,,,,,0,57,57,40,1,,,,,,,,,,,,,,,,,,,,,,,,,,,,
,,,,,SRP24_041,20,Female,2024-04-11_16h28.50.046,jersey_experiment_5_v0,2023.2.2,Win32,85.47008547,,,,,,,,,,,,,,,,774.095,775.389,775.389,777.5066,return,1.499,,57.55208333,,,,,,FBP-YG-17.png,0.4,1.2,18,0.5,,,,,,,,,,,,,0,58,58,17,1,,,,,,,,,,,,,,,,,,,,,,,,,,,,
,,,,,SRP24_041,20,Female,2024-04-11_16h28.50.046,jersey_experiment_5_v0,2023.2.2,Win32,85.47008547,,,,,,,,,,,,,,,,777.5068,778.5536,778.5536,780.1772,return,0.157,,37.76041667,,,,,,FBP-RB-17.png,0.37,1.2,32,0.25,,,,,,,,,,,,,0,59,59,31,1,,,,,,,,,,,,,,,,,,,,,,,,,,,,
,,,,,SRP24_041,20,Female,2024-04-11_16h28.50.046,jersey_experiment_5_v0,2023.2.2,Win32,85.47008547,,,,,,,,,,,,,,,,780.179,781.2245,781.2245,783.3539,return,0.3867,,83.46354167,,,,,,FBP-RB-81.png,0.45,1.2,40,0.25,,,,,,,,,,,,,,,,,,0,0,0,39,1,,,,,,,,,,,,,,,,,,,,,,,
,,,,,SRP24_041,20,Female,2024-04-11_16h28.50.046,jersey_experiment_5_v0,2023.2.2,Win32,85.47008547,,,,,,,,,,,,,,,,783.354,784.6481,784.6482,786.9305,return,0.9934,,50.390625,,,,,,FBP-PT-71.png,0.37,1.2,47,0.5,,,,,,,,,,,,,,,,,,0,1,1,46,1,,,,,,,,,,,,,,,,,,,,,,,
,,,,,SRP24_041,20,Female,2024-04-11_16h28.50.046,jersey_experiment_5_v0,2023.2.2,Win32,85.47008547,,,,,,,,,,,,,,,,786.9307,788.2247,788.2247,789.5186,return,0.1605,,37.36979167,,,,,,FBP-YG-71.png,0.35,1.2,16,0.5,,,,,,,,,,,,,,,,,,0,2,2,15,1,,,,,,,,,,,,,,,,,,,,,,,
,,,,,SRP24_041,20,Female,2024-04-11_16h28.50.046,jersey_experiment_5_v0,2023.2.2,Win32,85.47008547,,,,,,,,,,,,,,,,789.5188,790.5658,790.5658,794.4014,return,0.3239,,62.36979167,,,,,,FBP-OG-19.png,0.4,1.2,13,0.25,,,,,,,,,,,,,,,,,,0,3,3,12,1,,,,,,,,,,,,,,,,,,,,,,,
,,,,,SRP24_041,20,Female,2024-04-11_16h28.50.046,jersey_experiment_5_v0,2023.2.2,Win32,85.47008547,,,,,,,,,,,,,,,,794.4017,795.4483,795.4483,798.072,return,0.2248,,36.06770833,,,,,,FBP-OG-19.png,0.35,1.2,11,0.25,,,,,,,,,,,,,,,,,,0,4,4,10,1,,,,,,,,,,,,,,,,,,,,,,,
,,,,,SRP24_041,20,Female,2024-04-11_16h28.50.046,jersey_experiment_5_v0,2023.2.2,Win32,85.47008547,,,,,,,,,,,,,,,,798.0722,799.1191,799.1191,806.8959,return,0.2075,,50.13020833,,,,,,FBP-RB-71.png,0.37,1.2,32,0.25,,,,,,,,,,,,,,,,,,0,5,5,31,1,,,,,,,,,,,,,,,,,,,,,,,
,,,,,SRP24_041,20,Female,2024-04-11_16h28.50.046,jersey_experiment_5_v0,2023.2.2,Win32,85.47008547,,,,,,,,,,,,,,,,806.8962,808.1901,808.1902,809.3785,return,0.274,,63.15104167,,,,,,FBP-PT-71.png,0.4,1.2,48,0.5,,,,,,,,,,,,,,,,,,0,6,6,47,1,,,,,,,,,,,,,,,,,,,,,,,
,,,,,SRP24_041,20,Female,2024-04-11_16h28.50.046,jersey_experiment_5_v0,2023.2.2,Win32,85.47008547,,,,,,,,,,,,,,,,809.3786,810.4253,810.4254,811.7196,return,0.2591,,75.78125,,,,,,FBP-OG-18.png,0.43,1.2,9,0.25,,,,,,,,,,,,,,,,,,0,7,7,8,1,,,,,,,,,,,,,,,,,,,,,,,
,,,,,SRP24_041,20,Female,2024-04-11_16h28.50.046,jersey_experiment_5_v0,2023.2.2,Win32,85.47008547,,,,,,,,,,,,,,,,811.7197,812.7667,812.7667,814.7431,return,0.2588,,38.41145833,,,,,,FBP-OG-18.png,0.35,1.2,6,0.25,,,,,,,,,,,,,,,,,,0,8,8,5,1,,,,,,,,,,,,,,,,,,,,,,,
,,,,,SRP24_041,20,Female,2024-04-11_16h28.50.046,jersey_experiment_5_v0,2023.2.2,Win32,85.47008547,,,,,,,,,,,,,,,,814.7433,816.0374,816.0375,817.1081,return,0.2506,,38.671875,,,,,,FBP-YG-91.png,0.4,1.2,28,0.5,,,,,,,,,,,,,,,,,,0,9,9,27,1,,,,,,,,,,,,,,,,,,,,,,,
,,,,,SRP24_041,20,Female,2024-04-11_16h28.50.046,jersey_experiment_5_v0,2023.2.2,Win32,85.47008547,,,,,,,,,,,,,,,,817.1083,818.4022,818.4022,820.1316,return,0.1782,,24.34895833,,,,,,FBP-PT-71.png,0.35,1.2,46,0.5,,,,,,,,,,,,,,,,,,0,10,10,45,1,,,,,,,,,,,,,,,,,,,,,,,
,,,,,SRP24_041,20,Female,2024-04-11_16h28.50.046,jersey_experiment_5_v0,2023.2.2,Win32,85.47008547,,,,,,,,,,,,,,,,820.1318,821.4257,821.4257,821.9906,return,0.1055,,24.34895833,,,,,,FBP-PT-81.png,0.35,1.2,51,0.5,,,,,,,,,,,,,,,,,,0,11,11,50,1,,,,,,,,,,,,,,,,,,,,,,,
,,,,,SRP24_041,20,Female,2024-04-11_16h28.50.046,jersey_experiment_5_v0,2023.2.2,Win32,85.47008547,,,,,,,,,,,,,,,,821.9907,823.2847,823.2847,823.9084,return,0.1189,,24.34895833,,,,,,FBP-PT-91.png,0.37,1.2,57,0.5,,,,,,,,,,,,,,,,,,0,12,12,56,1,,,,,,,,,,,,,,,,,,,,,,,
,,,,,SRP24_041,20,Female,2024-04-11_16h28.50.046,jersey_experiment_5_v0,2023.2.2,Win32,85.47008547,,,,,,,,,,,,,,,,823.9085,825.2025,825.2025,831.6734,return,3.2951,,49.08854167,,,,,,FBP-YG-81.png,0.37,1.2,22,0.5,,,,,,,,,,,,,,,,,,0,13,13,21,1,,,,,,,,,,,,,,,,,,,,,,,
,,,,,SRP24_041,20,Female,2024-04-11_16h28.50.046,jersey_experiment_5_v0,2023.2.2,Win32,85.47008547,,,,,,,,,,,,,,,,831.6735,832.9675,832.9675,835.4615,return,0.2264,,50.78125,,,,,,FBP-YG-91.png,0.35,1.2,26,0.5,,,,,,,,,,,,,,,,,,0,14,14,25,1,,,,,,,,,,,,,,,,,,,,,,,
,,,,,SRP24_041,20,Female,2024-04-11_16h28.50.046,jersey_experiment_5_v0,2023.2.2,Win32,85.47008547,,,,,,,,,,,,,,,,835.4618,836.5087,836.5087,837.8735,return,0.2647,,100,,,,,,FBP-OG-19.png,0.45,1.2,15,0.25,,,,,,,,,,,,,,,,,,0,15,15,14,1,,,,,,,,,,,,,,,,,,,,,,,
,,,,,SRP24_041,20,Female,2024-04-11_16h28.50.046,jersey_experiment_5_v0,2023.2.2,Win32,85.47008547,,,,,,,,,,,,,,,,837.8736,839.1676,839.1676,840.7088,return,0.2492,,84.63541667,,,,,,FBP-PT-91.png,0.43,1.2,59,0.5,,,,,,,,,,,,,,,,,,0,16,16,58,1,,,,,,,,,,,,,,,,,,,,,,,
,,,,,SRP24_041,20,Female,2024-04-11_16h28.50.046,jersey_experiment_5_v0,2023.2.2,Win32,85.47008547,,,,,,,,,,,,,,,,840.7091,842.003,842.0031,842.7206,return,0.2762,,100,,,,,,FBP-PT-91.png,0.45,1.2,60,0.5,,,,,,,,,,,,,,,,,,0,17,17,59,1,,,,,,,,,,,,,,,,,,,,,,,
,,,,,SRP24_041,20,Female,2024-04-11_16h28.50.046,jersey_experiment_5_v0,2023.2.2,Win32,85.47008547,,,,,,,,,,,,,,,,842.7208,843.7678,843.7678,847.015,return,0.2835,,87.109375,,,,,,FBP-OG-18.png,0.45,1.2,10,0.25,,,,,,,,,,,,,,,,,,0,18,18,9,1,,,,,,,,,,,,,,,,,,,,,,,
,,,,,SRP24_041,20,Female,2024-04-11_16h28.50.046,jersey_experiment_5_v0,2023.2.2,Win32,85.47008547,,,,,,,,,,,,,,,,847.0152,848.0619,848.062,849.1444,return,0.2823,,74.86979167,,,,,,FBP-RB-81.png,0.4,1.2,38,0.25,,,,,,,,,,,,,,,,,,0,19,19,37,1,,,,,,,,,,,,,,,,,,,,,,,
,,,,,SRP24_041,20,Female,2024-04-11_16h28.50.046,jersey_experiment_5_v0,2023.2.2,Win32,85.47008547,,,,,,,,,,,,,,,,849.1446,850.1915,850.1916,851.6151,return,0.2198,,80.46875,,,,,,FBP-RB-81.png,0.43,1.2,39,0.25,,,,,,,,,,,,,,,,,,0,20,20,38,1,,,,,,,,,,,,,,,,,,,,,,,
,,,,,SRP24_041,20,Female,2024-04-11_16h28.50.046,jersey_experiment_5_v0,2023.2.2,Win32,85.47008547,,,,,,,,,,,,,,,,851.6152,852.6622,852.6622,854.1211,return,0.2023,,61.97916667,,,,,,FBP-RB-81.png,0.37,1.2,37,0.25,,,,,,,,,,,,,,,,,,0,21,21,36,1,,,,,,,,,,,,,,,,,,,,,,,
,,,,,SRP24_041,20,Female,2024-04-11_16h28.50.046,jersey_experiment_5_v0,2023.2.2,Win32,85.47008547,,,,,,,,,,,,,,,,854.1213,855.1682,855.1682,857.1566,return,0.4616,,37.23958333,,,,,,FBP-RB-71.png,0.35,1.2,31,0.25,,,,,,,,,,,,,,,,,,0,22,22,30,1,,,,,,,,,,,,,,,,,,,,,,,
,,,,,SRP24_041,20,Female,2024-04-11_16h28.50.046,jersey_experiment_5_v0,2023.2.2,Win32,85.47008547,,,,,,,,,,,,,,,,857.1568,858.2036,858.2036,860.545,return,0.5126,,36.97916667,,,,,,FBP-OG-18.png,0.37,1.2,7,0.25,,,,,,,,,,,,,,,,,,0,23,23,6,1,,,,,,,,,,,,,,,,,,,,,,,
,,,,,SRP24_041,20,Female,2024-04-11_16h28.50.046,jersey_experiment_5_v0,2023.2.2,Win32,85.47008547,,,,,,,,,,,,,,,,860.5452,861.8393,861.8394,863.639,return,0.424,,81.51041667,,,,,,FBP-YG-71.png,0.45,1.2,20,0.5,,,,,,,,,,,,,,,,,,0,24,24,19,1,,,,,,,,,,,,,,,,,,,,,,,
,,,,,SRP24_041,20,Female,2024-04-11_16h28.50.046,jersey_experiment_5_v0,2023.2.2,Win32,85.47008547,,,,,,,,,,,,,,,,863.6393,864.6862,864.6863,866.4156,return,0.2667,,49.86979167,,,,,,FBP-RB-91.png,0.35,1.2,41,0.25,,,,,,,,,,,,,,,,,,0,25,25,40,1,,,,,,,,,,,,,,,,,,,,,,,
,,,,,SRP24_041,20,Female,2024-04-11_16h28.50.046,jersey_experiment_5_v0,2023.2.2,Win32,85.47008547,,,,,,,,,,,,,,,,866.4158,867.4628,867.4628,870.4865,return,1.4129,,74.47916667,,,,,,FBP-OG-17.png,0.4,1.2,3,0.25,,,,,,,,,,,,,,,,,,0,26,26,2,1,,,,,,,,,,,,,,,,,,,,,,,
,,,,,SRP24_041,20,Female,2024-04-11_16h28.50.046,jersey_experiment_5_v0,2023.2.2,Win32,85.47008547,,,,,,,,,,,,,,,,870.4867,871.5336,871.5336,873.0159,return,0.5179,,91.92708333,,,,,,FBP-RB-71.png,0.45,1.2,35,0.25,,,,,,,,,,,,,,,,,,0,27,27,34,1,,,,,,,,,,,,,,,,,,,,,,,
,,,,,SRP24_041,20,Female,2024-04-11_16h28.50.046,jersey_experiment_5_v0,2023.2.2,Win32,85.47008547,,,,,,,,,,,,,,,,873.0161,874.31,874.3101,875.3335,return,0.6006,,92.578125,,,,,,FBP-PT-71.png,0.45,1.2,50,0.5,,,,,,,,,,,,,,,,,,0,28,28,49,1,,,,,,,,,,,,,,,,,,,,,,,
,,,,,SRP24_041,20,Female,2024-04-11_16h28.50.046,jersey_experiment_5_v0,2023.2.2,Win32,85.47008547,,,,,,,,,,,,,,,,875.3337,876.3808,876.3808,878.369,return,0.346,,66.015625,,,,,,FBP-RB-71.png,0.4,1.2,33,0.25,,,,,,,,,,,,,,,,,,0,29,29,32,1,,,,,,,,,,,,,,,,,,,,,,,
,,,,,SRP24_041,20,Female,2024-04-11_16h28.50.046,jersey_experiment_5_v0,2023.2.2,Win32,85.47008547,,,,,,,,,,,,,,,,878.369,879.4161,879.4161,880.4986,return,0.2989,,82.29166667,,,,,,FBP-OG-19.png,0.43,1.2,14,0.25,,,,,,,,,,,,,,,,,,0,30,30,13,1,,,,,,,,,,,,,,,,,,,,,,,
,,,,,SRP24_041,20,Female,2024-04-11_16h28.50.046,jersey_experiment_5_v0,2023.2.2,Win32,85.47008547,,,,,,,,,,,,,,,,880.4987,881.7927,881.7927,888.0163,return,5.3249,,66.27604167,,,,,,FBP-PT-81.png,0.37,1.2,52,0.5,,,,,,,,,,,,,,,,,,0,31,31,51,1,,,,,,,,,,,,,,,,,,,,,,,
,,,,,SRP24_041,20,Female,2024-04-11_16h28.50.046,jersey_experiment_5_v0,2023.2.2,Win32,85.47008547,,,,,,,,,,,,,,,,888.0164,889.3106,889.3106,893.6871,return,0.3167,,63.41145833,,,,,,FBP-YG-81.png,0.4,1.2,23,0.5,,,,,,,,,,,,,,,,,,0,32,32,22,1,,,,,,,,,,,,,,,,,,,,,,,
,,,,,SRP24_041,20,Female,2024-04-11_16h28.50.046,jersey_experiment_5_v0,2023.2.2,Win32,85.47008547,,,,,,,,,,,,,,,,893.6873,894.9813,894.9814,897.0403,return,0.2775,,38.02083333,,,,,,FBP-YG-91.png,0.37,1.2,27,0.5,,,,,,,,,,,,,,,,,,0,33,33,26,1,,,,,,,,,,,,,,,,,,,,,,,
,,,,,SRP24_041,20,Female,2024-04-11_16h28.50.046,jersey_experiment_5_v0,2023.2.2,Win32,85.47008547,,,,,,,,,,,,,,,,897.0405,898.3345,898.3346,902.1346,return,0.2358,,87.890625,,,,,,FBP-PT-81.png,0.45,1.2,55,0.5,,,,,,,,,,,,,,,,,,0,34,34,54,1,,,,,,,,,,,,,,,,,,,,,,,
,,,,,SRP24_041,20,Female,2024-04-11_16h28.50.046,jersey_experiment_5_v0,2023.2.2,Win32,85.47008547,,,,,,,,,,,,,,,,902.1348,903.4288,903.4288,905.2641,return,0.558,,24.08854167,,,,,,FBP-PT-91.png,0.35,1.2,56,0.5,,,,,,,,,,,,,,,,,,0,35,35,55,1,,,,,,,,,,,,,,,,,,,,,,,
,,,,,SRP24_041,20,Female,2024-04-11_16h28.50.046,jersey_experiment_5_v0,2023.2.2,Win32,85.47008547,,,,,,,,,,,,,,,,905.2642,906.3111,906.3112,907.8406,return,0.3244,,100,,,,,,FBP-RB-91.png,0.45,1.2,45,0.25,,,,,,,,,,,,,,,,,,0,36,36,44,1,,,,,,,,,,,,,,,,,,,,,,,
,,,,,SRP24_041,20,Female,2024-04-11_16h28.50.046,jersey_experiment_5_v0,2023.2.2,Win32,85.47008547,,,,,,,,,,,,,,,,907.8409,908.8877,908.8877,911.3467,return,0.2751,,68.88020833,,,,,,FBP-RB-91.png,0.4,1.2,43,0.25,,,,,,,,,,,,,,,,,,0,37,37,42,1,,,,,,,,,,,,,,,,,,,,,,,
,,,,,SRP24_041,20,Female,2024-04-11_16h28.50.046,jersey_experiment_5_v0,2023.2.2,Win32,85.47008547,,,,,,,,,,,,,,,,911.3468,912.6407,912.6408,914.3939,return,0.2826,,82.8125,,,,,,FBP-PT-71.png,0.43,1.2,49,0.5,,,,,,,,,,,,,,,,,,0,38,38,48,1,,,,,,,,,,,,,,,,,,,,,,,
,,,,,SRP24_041,20,Female,2024-04-11_16h28.50.046,jersey_experiment_5_v0,2023.2.2,Win32,85.47008547,,,,,,,,,,,,,,,,914.3942,915.688,915.688,918.3824,return,1.2551,,70.96354167,,,,,,FBP-PT-81.png,0.4,1.2,53,0.5,,,,,,,,,,,,,,,,,,0,39,39,52,1,,,,,,,,,,,,,,,,,,,,,,,
,,,,,SRP24_041,20,Female,2024-04-11_16h28.50.046,jersey_experiment_5_v0,2023.2.2,Win32,85.47008547,,,,,,,,,,,,,,,,918.3826,919.6763,919.6764,921.3,return,0.1091,,49.609375,,,,,,FBP-YG-71.png,0.37,1.2,17,0.5,,,,,,,,,,,,,,,,,,0,40,40,16,1,,,,,,,,,,,,,,,,,,,,,,,
,,,,,SRP24_041,20,Female,2024-04-11_16h28.50.046,jersey_experiment_5_v0,2023.2.2,Win32,85.47008547,,,,,,,,,,,,,,,,921.3002,922.347,922.347,923.5589,return,0.1309,,74.21875,,,,,,FBP-OG-17.png,0.43,1.2,4,0.25,,,,,,,,,,,,,,,,,,0,41,41,3,1,,,,,,,,,,,,,,,,,,,,,,,
,,,,,SRP24_041,20,Female,2024-04-11_16h28.50.046,jersey_experiment_5_v0,2023.2.2,Win32,85.47008547,,,,,,,,,,,,,,,,923.5591,924.8531,924.8531,925.8766,return,0.1532,,86.19791667,,,,,,FBP-YG-91.png,0.45,1.2,30,0.5,,,,,,,,,,,,,,,,,,0,42,42,29,1,,,,,,,,,,,,,,,,,,,,,,,
,,,,,SRP24_041,20,Female,2024-04-11_16h28.50.046,jersey_experiment_5_v0,2023.2.2,Win32,85.47008547,,,,,,,,,,,,,,,,925.877,927.1708,927.1708,927.9355,return,0.1949,,87.23958333,,,,,,FBP-PT-81.png,0.43,1.2,54,0.5,,,,,,,,,,,,,,,,,,0,43,43,53,1,,,,,,,,,,,,,,,,,,,,,,,
,,,,,SRP24_041,20,Female,2024-04-11_16h28.50.046,jersey_experiment_5_v0,2023.2.2,Win32,85.47008547,,,,,,,,,,,,,,,,927.9357,928.9825,928.9825,930.7237,return,0.1786,,62.109375,,,,,,FBP-RB-91.png,0.37,1.2,42,0.25,,,,,,,,,,,,,,,,,,0,44,44,41,1,,,,,,,,,,,,,,,,,,,,,,,
,,,,,SRP24_041,20,Female,2024-04-11_16h28.50.046,jersey_experiment_5_v0,2023.2.2,Win32,85.47008547,,,,,,,,,,,,,,,,930.7239,932.0181,932.0181,933.1121,return,0.1651,,98.95833333,,,,,,FBP-YG-81.png,0.45,1.2,25,0.5,,,,,,,,,,,,,,,,,,0,45,45,24,1,,,,,,,,,,,,,,,,,,,,,,,
,,,,,SRP24_041,20,Female,2024-04-11_16h28.50.046,jersey_experiment_5_v0,2023.2.2,Win32,85.47008547,,,,,,,,,,,,,,,,933.1123,934.4063,934.4064,936.7125,return,1.1057,,51.171875,,,,,,FBP-YG-81.png,0.35,1.2,21,0.5,,,,,,,,,,,,,,,,,,0,46,46,20,1,,,,,,,,,,,,,,,,,,,,,,,
,,,,,SRP24_041,20,Female,2024-04-11_16h28.50.046,jersey_experiment_5_v0,2023.2.2,Win32,85.47008547,,,,,,,,,,,,,,,,936.7127,938.0065,938.0065,938.983,return,0.152,,83.72395833,,,,,,FBP-YG-71.png,0.43,1.2,19,0.5,,,,,,,,,,,,,,,,,,0,47,47,18,1,,,,,,,,,,,,,,,,,,,,,,,
,,,,,SRP24_041,20,Female,2024-04-11_16h28.50.046,jersey_experiment_5_v0,2023.2.2,Win32,85.47008547,,,,,,,,,,,,,,,,938.9832,940.0301,940.0301,941.7478,return,0.3082,,83.72395833,,,,,,FBP-RB-91.png,0.43,1.2,44,0.25,,,,,,,,,,,,,,,,,,0,48,48,43,1,,,,,,,,,,,,,,,,,,,,,,,
,,,,,SRP24_041,20,Female,2024-04-11_16h28.50.046,jersey_experiment_5_v0,2023.2.2,Win32,85.47008547,,,,,,,,,,,,,,,,941.7481,942.7949,942.7949,944.1007,return,0.2129,,100,,,,,,FBP-OG-17.png,0.45,1.2,5,0.25,,,,,,,,,,,,,,,,,,0,49,49,4,1,,,,,,,,,,,,,,,,,,,,,,,
,,,,,SRP24_041,20,Female,2024-04-11_16h28.50.046,jersey_experiment_5_v0,2023.2.2,Win32,85.47008547,,,,,,,,,,,,,,,,944.101,945.1479,945.1479,947.4773,return,0.1431,,30.72916667,,,,,,FBP-OG-17.png,0.37,1.2,2,0.25,,,,,,,,,,,,,,,,,,0,50,50,1,1,,,,,,,,,,,,,,,,,,,,,,,
,,,,,SRP24_041,20,Female,2024-04-11_16h28.50.046,jersey_experiment_5_v0,2023.2.2,Win32,85.47008547,,,,,,,,,,,,,,,,947.4776,948.5245,948.5245,949.4656,return,0.1178,,30.20833333,,,,,,FBP-OG-17.png,0.35,1.2,1,0.25,,,,,,,,,,,,,,,,,,0,51,51,0,1,,,,,,,,,,,,,,,,,,,,,,,
,,,,,SRP24_041,20,Female,2024-04-11_16h28.50.046,jersey_experiment_5_v0,2023.2.2,Win32,85.47008547,,,,,,,,,,,,,,,,949.466,950.76,950.76,951.9716,return,0.2495,,86.328125,,,,,,FBP-YG-91.png,0.43,1.2,29,0.5,,,,,,,,,,,,,,,,,,0,52,52,28,1,,,,,,,,,,,,,,,,,,,,,,,
,,,,,SRP24_041,20,Female,2024-04-11_16h28.50.046,jersey_experiment_5_v0,2023.2.2,Win32,85.47008547,,,,,,,,,,,,,,,,951.9717,953.2658,953.2658,954.1011,return,0.1655,,94.140625,,,,,,FBP-YG-81.png,0.43,1.2,24,0.5,,,,,,,,,,,,,,,,,,0,53,53,23,1,,,,,,,,,,,,,,,,,,,,,,,
,,,,,SRP24_041,20,Female,2024-04-11_16h28.50.046,jersey_experiment_5_v0,2023.2.2,Win32,85.47008547,,,,,,,,,,,,,,,,954.1013,955.1482,955.1482,957.6188,return,0.1796,,75.390625,,,,,,FBP-OG-18.png,0.4,1.2,8,0.25,,,,,,,,,,,,,,,,,,0,54,54,7,1,,,,,,,,,,,,,,,,,,,,,,,
,,,,,SRP24_041,20,Female,2024-04-11_16h28.50.046,jersey_experiment_5_v0,2023.2.2,Win32,85.47008547,,,,,,,,,,,,,,,,957.619,958.913,958.913,959.7484,return,0.1179,,75.26041667,,,,,,FBP-PT-91.png,0.4,1.2,58,0.5,,,,,,,,,,,,,,,,,,0,55,55,57,1,,,,,,,,,,,,,,,,,,,,,,,
,,,,,SRP24_041,20,Female,2024-04-11_16h28.50.046,jersey_experiment_5_v0,2023.2.2,Win32,85.47008547,,,,,,,,,,,,,,,,959.7487,960.7954,960.7954,962.5956,return,0.8153,,88.28125,,,,,,FBP-RB-71.png,0.43,1.2,34,0.25,,,,,,,,,,,,,,,,,,0,56,56,33,1,,,,,,,,,,,,,,,,,,,,,,,
,,,,,SRP24_041,20,Female,2024-04-11_16h28.50.046,jersey_experiment_5_v0,2023.2.2,Win32,85.47008547,,,,,,,,,,,,,,,,962.5958,963.6425,963.6426,966.2075,return,0.7133,,49.86979167,,,,,,FBP-OG-19.png,0.37,1.2,12,0.25,,,,,,,,,,,,,,,,,,0,57,57,11,1,,,,,,,,,,,,,,,,,,,,,,,
,,,,,SRP24_041,20,Female,2024-04-11_16h28.50.046,jersey_experiment_5_v0,2023.2.2,Win32,85.47008547,,,,,,,,,,,,,,,,966.2077,967.5018,967.5018,969.5606,return,0.1191,,75.13020833,,,,,,FBP-YG-71.png,0.4,1.2,18,0.5,,,,,,,,,,,,,,,,,,0,58,58,17,1,,,,,,,,,,,,,,,,,,,,,,,
,,,,,SRP24_041,20,Female,2024-04-11_16h28.50.046,jersey_experiment_5_v0,2023.2.2,Win32,85.47008547,,,,,,,,,,,,,,,,969.5607,970.6075,970.6075,972.3723,return,0.191,,69.27083333,,,,,,FBP-RB-81.png,0.35,1.2,36,0.25,,,,,,,,,,,,,,,,,,0,59,59,35,1,,,,,,,,,,,,,,,,,,,,,,,
,,,,,SRP24_041,20,Female,2024-04-11_16h28.50.046,jersey_experiment_5_v0,2023.2.2,Win32,85.47008547,,,,,,,,,,,,,,,,,,,,,,,,,,,,,,,,,,,,,,,,,,,,,,,,,,,,,,,,972.3727,975.6549,return,3.2695,,,,,,,,,,,,,,,,,,,
,,,,,SRP24_041,20,Female,2024-04-11_16h28.50.046,jersey_experiment_5_v0,2023.2.2,Win32,85.47008547,,,,,,,,,,,,,,,,,,,,,,,,,,,,,,,,,,,,,,,,,,,,,,,,,,,,,,,,,,,,,975.6551,979.361,1,2.7785,return,0.91,,,,,,,,,,,,
,,,,,SRP24_041,20,Female,2024-04-11_16h28.50.046,jersey_experiment_5_v0,2023.2.2,Win32,85.47008547,,,,,,,,,,,,,,,,,,,,,,,,,,,,,,,,,,,,,,,,,,,,,,,,,,,,,,,,,,,,,,,,,,,,979.3611,1058.5501,"perhaps it was about judging someone based on their race or stereotypes, maybe also about how people judge based on the last thing they had to compare it to, or whether people are able to create some sort of metric of size within their mind without being affected by the most previous trial",right,71.4855,,,,,,
,,,,,SRP24_041,20,Female,2024-04-11_16h28.50.046,jersey_experiment_5_v0,2023.2.2,Win32,85.47008547,,,,,,,,,,,,,,,,,,,,,,,,,,,,,,,,,,,,,,,,,,,,,,,,,,,,,,,,,,,,,,,,,,,,,,,,,,1058.5501,1060.9051,return,2.3424,