requirements.started,requirements.stopped,key_resp_3.keys,key_resp_3.rt,key_resp_3.duration,Subject ID,Age,Gender,date,expName,psychopyVersion,OS,frameRate,instructions1.started,instructions1.stopped,key_resp.keys,key_resp.rt,key_resp.duration,example.started,example.stopped,enter_2.keys,enter_2.rt,enter_2.duration,instructions2.started,instructions2.stopped,enter_3.keys,enter_3.rt,enter_3.duration,image.started,image.stopped,slider_2.started,slider_2.stopped,next.keys,next.rt,next.duration,slider.response,trial_block_1.thisRepN,trial_block_1.thisTrialN,trial_block_1.thisN,trial_block_1.thisIndex,trial_block_1.ran,Path,Width,Height,Index,Duration,trial_block_2.thisRepN,trial_block_2.thisTrialN,trial_block_2.thisN,trial_block_2.thisIndex,trial_block_2.ran,rest_break.started,rest_break.stopped,end_break.started,end_break.stopped,key_resp_5.keys,key_resp_5.rt,key_resp_5.duration,trial_block_3.thisRepN,trial_block_3.thisTrialN,trial_block_3.thisN,trial_block_3.thisIndex,trial_block_3.ran,trial_block_4.thisRepN,trial_block_4.thisTrialN,trial_block_4.thisN,trial_block_4.thisIndex,trial_block_4.ran,questions_intro.started,questions_intro.stopped,enter_12.keys,enter_12.rt,enter_12.duration,question2.started,question2.stopped,question_doingbest.response,question_doingbest.rt,enter_15.keys,enter_15.rt,enter_15.duration,pattern.started,pattern.stopped,pattern_2.text,enter_17.keys,enter_17.rt,enter_17.duration,thankyou.started,thankyou.stopped,enter_14.keys,enter_14.rt,enter_14.duration
0.0001,11.6757,return,11.6657,,SRP24_032,21,female,2024-04-10_15h55.19.808,jersey_experiment_5_v0,2023.2.2,Win32,84.74576271,,,,,,,,,,,,,,,,,,,,,,,,,,,,,,,,,,,,,,,,,,,,,,,,,,,,,,,,,,,,,,,,,,,,,,,,,,,,,,
,,,,,SRP24_032,21,female,2024-04-10_15h55.19.808,jersey_experiment_5_v0,2023.2.2,Win32,84.74576271,11.6758,22.8052,return,11.1214,,,,,,,,,,,,,,,,,,,,,,,,,,,,,,,,,,,,,,,,,,,,,,,,,,,,,,,,,,,,,,,,,,,,,,,,,,
,,,,,SRP24_032,21,female,2024-04-10_15h55.19.808,jersey_experiment_5_v0,2023.2.2,Win32,84.74576271,,,,,,22.8053,26.523,return,3.6841,,,,,,,,,,,,,,,,,,,,,,,,,,,,,,,,,,,,,,,,,,,,,,,,,,,,,,,,,,,,,,,,,,,,,
,,,,,SRP24_032,21,female,2024-04-10_15h55.19.808,jersey_experiment_5_v0,2023.2.2,Win32,84.74576271,,,,,,,,,,,26.5232,54.0534,return,27.5213,,,,,,,,,,,,,,,,,,,,,,,,,,,,,,,,,,,,,,,,,,,,,,,,,,,,,,,,,,,,,,,,
,,,,,SRP24_032,21,female,2024-04-10_15h55.19.808,jersey_experiment_5_v0,2023.2.2,Win32,84.74576271,,,,,,,,,,,,,,,,54.0604,55.359,55.3591,70.6892,return,5.3003,,62.109375,0,0,0,1,1,FBP-OG-71.png,0.37,1.2,2,0.5,,,,,,,,,,,,,,,,,,,,,,,,,,,,,,,,,,,,,,,,,,,,,
,,,,,SRP24_032,21,female,2024-04-10_15h55.19.808,jersey_experiment_5_v0,2023.2.2,Win32,84.74576271,,,,,,,,,,,,,,,,70.6936,71.995,71.9951,75.1599,return,1.2473,,86.45833333,0,1,1,39,1,FBP-RB-18.png,0.45,1.2,40,0.5,,,,,,,,,,,,,,,,,,,,,,,,,,,,,,,,,,,,,,,,,,,,,
,,,,,SRP24_032,21,female,2024-04-10_15h55.19.808,jersey_experiment_5_v0,2023.2.2,Win32,84.74576271,,,,,,,,,,,,,,,,75.1602,76.4539,76.454,85.1603,return,5.5192,,35.80729167,0,2,2,11,1,FBP-OG-91.png,0.37,1.2,12,0.5,,,,,,,,,,,,,,,,,,,,,,,,,,,,,,,,,,,,,,,,,,,,,
,,,,,SRP24_032,21,female,2024-04-10_15h55.19.808,jersey_experiment_5_v0,2023.2.2,Win32,84.74576271,,,,,,,,,,,,,,,,85.1604,86.2073,86.2073,88.9133,return,1.1702,,99.73958333,0,3,3,29,1,FBP-YG-19.png,0.45,1.2,30,0.25,,,,,,,,,,,,,,,,,,,,,,,,,,,,,,,,,,,,,,,,,,,,,
,,,,,SRP24_032,21,female,2024-04-10_15h55.19.808,jersey_experiment_5_v0,2023.2.2,Win32,84.74576271,,,,,,,,,,,,,,,,88.9135,89.9603,89.9603,92.1369,return,0.7395,,24.34895833,0,4,4,15,1,FBP-YG-17.png,0.35,1.2,16,0.25,,,,,,,,,,,,,,,,,,,,,,,,,,,,,,,,,,,,,,,,,,,,,
,,,,,SRP24_032,21,female,2024-04-10_15h55.19.808,jersey_experiment_5_v0,2023.2.2,Win32,84.74576271,,,,,,,,,,,,,,,,92.1371,93.431,93.431,95.5606,return,0.5886,,50,0,5,5,3,1,FBP-OG-71.png,0.43,1.2,4,0.5,,,,,,,,,,,,,,,,,,,,,,,,,,,,,,,,,,,,,,,,,,,,,
,,,,,SRP24_032,21,female,2024-04-10_15h55.19.808,jersey_experiment_5_v0,2023.2.2,Win32,84.74576271,,,,,,,,,,,,,,,,95.5607,96.6075,96.6075,98.396,return,0.5414,,57.55208333,0,6,6,17,1,FBP-YG-17.png,0.4,1.2,18,0.25,,,,,,,,,,,,,,,,,,,,,,,,,,,,,,,,,,,,,,,,,,,,,
,,,,,SRP24_032,21,female,2024-04-10_15h55.19.808,jersey_experiment_5_v0,2023.2.2,Win32,84.74576271,,,,,,,,,,,,,,,,98.3963,99.6901,99.6901,101.6079,return,0.6124,,35.80729167,0,7,7,36,1,FBP-RB-18.png,0.37,1.2,37,0.5,,,,,,,,,,,,,,,,,,,,,,,,,,,,,,,,,,,,,,,,,,,,,
,,,,,SRP24_032,21,female,2024-04-10_15h55.19.808,jersey_experiment_5_v0,2023.2.2,Win32,84.74576271,,,,,,,,,,,,,,,,101.608,102.9019,102.9019,104.2667,return,0.5316,,32.421875,0,8,8,32,1,FBP-RB-17.png,0.4,1.2,33,0.5,,,,,,,,,,,,,,,,,,,,,,,,,,,,,,,,,,,,,,,,,,,,,
,,,,,SRP24_032,21,female,2024-04-10_15h55.19.808,jersey_experiment_5_v0,2023.2.2,Win32,84.74576271,,,,,,,,,,,,,,,,104.267,105.5609,105.5609,107.3491,return,0.5806,,82.16145833,0,9,9,13,1,FBP-OG-91.png,0.43,1.2,14,0.5,,,,,,,,,,,,,,,,,,,,,,,,,,,,,,,,,,,,,,,,,,,,,
,,,,,SRP24_032,21,female,2024-04-10_15h55.19.808,jersey_experiment_5_v0,2023.2.2,Win32,84.74576271,,,,,,,,,,,,,,,,107.3494,108.6434,108.6434,109.9845,return,0.5144,,89.32291667,0,10,10,4,1,FBP-OG-71.png,0.45,1.2,5,0.5,,,,,,,,,,,,,,,,,,,,,,,,,,,,,,,,,,,,,,,,,,,,,
,,,,,SRP24_032,21,female,2024-04-10_15h55.19.808,jersey_experiment_5_v0,2023.2.2,Win32,84.74576271,,,,,,,,,,,,,,,,109.9848,111.0316,111.0317,113.2671,return,0.5712,,19.79166667,0,11,11,50,1,FBP-PT-18.png,0.35,1.2,51,0.25,,,,,,,,,,,,,,,,,,,,,,,,,,,,,,,,,,,,,,,,,,,,,
,,,,,SRP24_032,21,female,2024-04-10_15h55.19.808,jersey_experiment_5_v0,2023.2.2,Win32,84.74576271,,,,,,,,,,,,,,,,113.2672,114.5611,114.5612,116.0201,return,0.5228,,78.25520833,0,12,12,8,1,FBP-OG-81.png,0.43,1.2,9,0.5,,,,,,,,,,,,,,,,,,,,,,,,,,,,,,,,,,,,,,,,,,,,,
,,,,,SRP24_032,21,female,2024-04-10_15h55.19.808,jersey_experiment_5_v0,2023.2.2,Win32,84.74576271,,,,,,,,,,,,,,,,116.0203,117.0673,117.0673,119.2554,return,0.5319,,53.125,0,13,13,22,1,FBP-YG-18.png,0.4,1.2,23,0.25,,,,,,,,,,,,,,,,,,,,,,,,,,,,,,,,,,,,,,,,,,,,,
,,,,,SRP24_032,21,female,2024-04-10_15h55.19.808,jersey_experiment_5_v0,2023.2.2,Win32,84.74576271,,,,,,,,,,,,,,,,119.2557,120.5497,120.5497,122.9849,return,0.5414,,33.07291667,0,14,14,35,1,FBP-RB-18.png,0.35,1.2,36,0.5,,,,,,,,,,,,,,,,,,,,,,,,,,,,,,,,,,,,,,,,,,,,,
,,,,,SRP24_032,21,female,2024-04-10_15h55.19.808,jersey_experiment_5_v0,2023.2.2,Win32,84.74576271,,,,,,,,,,,,,,,,122.985,124.0322,124.0322,127.2912,return,0.2824,,58.85416667,0,15,15,28,1,FBP-YG-19.png,0.43,1.2,29,0.25,,,,,,,,,,,,,,,,,,,,,,,,,,,,,,,,,,,,,,,,,,,,,
,,,,,SRP24_032,21,female,2024-04-10_15h55.19.808,jersey_experiment_5_v0,2023.2.2,Win32,84.74576271,,,,,,,,,,,,,,,,127.2914,128.5851,128.5851,129.9383,return,0.1835,,94.27083333,0,16,16,9,1,FBP-OG-81.png,0.45,1.2,10,0.5,,,,,,,,,,,,,,,,,,,,,,,,,,,,,,,,,,,,,,,,,,,,,
,,,,,SRP24_032,21,female,2024-04-10_15h55.19.808,jersey_experiment_5_v0,2023.2.2,Win32,84.74576271,,,,,,,,,,,,,,,,129.9386,130.9854,130.9854,132.103,return,0.1553,,41.66666667,0,17,17,25,1,FBP-YG-19.png,0.35,1.2,26,0.25,,,,,,,,,,,,,,,,,,,,,,,,,,,,,,,,,,,,,,,,,,,,,
,,,,,SRP24_032,21,female,2024-04-10_15h55.19.808,jersey_experiment_5_v0,2023.2.2,Win32,84.74576271,,,,,,,,,,,,,,,,132.1032,133.3971,133.3971,135.3854,return,0.6356,,52.99479167,0,18,18,2,1,FBP-OG-71.png,0.4,1.2,3,0.5,,,,,,,,,,,,,,,,,,,,,,,,,,,,,,,,,,,,,,,,,,,,,
,,,,,SRP24_032,21,female,2024-04-10_15h55.19.808,jersey_experiment_5_v0,2023.2.2,Win32,84.74576271,,,,,,,,,,,,,,,,135.3856,136.4326,136.4326,138.6092,return,0.2195,,99.21875,0,19,19,23,1,FBP-YG-18.png,0.43,1.2,24,0.25,,,,,,,,,,,,,,,,,,,,,,,,,,,,,,,,,,,,,,,,,,,,,
,,,,,SRP24_032,21,female,2024-04-10_15h55.19.808,jersey_experiment_5_v0,2023.2.2,Win32,84.74576271,,,,,,,,,,,,,,,,138.6094,139.6562,139.6564,141.1268,return,0.1768,,95.57291667,0,20,20,49,1,FBP-PT-17.png,0.45,1.2,50,0.25,,,,,,,,,,,,,,,,,,,,,,,,,,,,,,,,,,,,,,,,,,,,,
,,,,,SRP24_032,21,female,2024-04-10_15h55.19.808,jersey_experiment_5_v0,2023.2.2,Win32,84.74576271,,,,,,,,,,,,,,,,141.1271,142.174,142.174,142.9974,return,0.2511,,95.57291667,0,21,21,24,1,FBP-YG-18.png,0.45,1.2,25,0.25,,,,,,,,,,,,,,,,,,,,,,,,,,,,,,,,,,,,,,,,,,,,,
,,,,,SRP24_032,21,female,2024-04-10_15h55.19.808,jersey_experiment_5_v0,2023.2.2,Win32,84.74576271,,,,,,,,,,,,,,,,142.9977,144.2917,144.2917,145.9269,return,0.2246,,11.84895833,0,22,22,5,1,FBP-OG-81.png,0.35,1.2,6,0.5,,,,,,,,,,,,,,,,,,,,,,,,,,,,,,,,,,,,,,,,,,,,,
,,,,,SRP24_032,21,female,2024-04-10_15h55.19.808,jersey_experiment_5_v0,2023.2.2,Win32,84.74576271,,,,,,,,,,,,,,,,145.9272,147.2211,147.2211,148.7859,return,0.2177,,74.609375,0,23,23,42,1,FBP-RB-19.png,0.4,1.2,43,0.5,,,,,,,,,,,,,,,,,,,,,,,,,,,,,,,,,,,,,,,,,,,,,
,,,,,SRP24_032,21,female,2024-04-10_15h55.19.808,jersey_experiment_5_v0,2023.2.2,Win32,84.74576271,,,,,,,,,,,,,,,,148.7862,150.08,150.0801,150.6919,return,0.1348,,74.609375,0,24,24,43,1,FBP-RB-19.png,0.43,1.2,44,0.5,,,,,,,,,,,,,,,,,,,,,,,,,,,,,,,,,,,,,,,,,,,,,
,,,,,SRP24_032,21,female,2024-04-10_15h55.19.808,jersey_experiment_5_v0,2023.2.2,Win32,84.74576271,,,,,,,,,,,,,,,,150.6922,151.986,151.9861,153.186,return,0.1943,,24.47916667,0,25,25,0,1,FBP-OG-71.png,0.35,1.2,1,0.5,,,,,,,,,,,,,,,,,,,,,,,,,,,,,,,,,,,,,,,,,,,,,
,,,,,SRP24_032,21,female,2024-04-10_15h55.19.808,jersey_experiment_5_v0,2023.2.2,Win32,84.74576271,,,,,,,,,,,,,,,,153.1862,154.4802,154.4802,155.8332,return,0.1052,,23.046875,0,26,26,30,1,FBP-RB-17.png,0.35,1.2,31,0.5,,,,,,,,,,,,,,,,,,,,,,,,,,,,,,,,,,,,,,,,,,,,,
,,,,,SRP24_032,21,female,2024-04-10_15h55.19.808,jersey_experiment_5_v0,2023.2.2,Win32,84.74576271,,,,,,,,,,,,,,,,155.8334,156.8802,156.8802,158.0099,return,0.1652,,21.875,0,27,27,20,1,FBP-YG-18.png,0.35,1.2,21,0.25,,,,,,,,,,,,,,,,,,,,,,,,,,,,,,,,,,,,,,,,,,,,,
,,,,,SRP24_032,21,female,2024-04-10_15h55.19.808,jersey_experiment_5_v0,2023.2.2,Win32,84.74576271,,,,,,,,,,,,,,,,158.0101,159.0568,159.0569,160.8686,return,0.1314,,65.75520833,0,28,28,27,1,FBP-YG-19.png,0.4,1.2,28,0.25,,,,,,,,,,,,,,,,,,,,,,,,,,,,,,,,,,,,,,,,,,,,,
,,,,,SRP24_032,21,female,2024-04-10_15h55.19.808,jersey_experiment_5_v0,2023.2.2,Win32,84.74576271,,,,,,,,,,,,,,,,160.8688,161.9158,161.9158,163.2217,return,0.0505,,96.74479167,0,29,29,59,1,FBP-PT-19.png,0.45,1.2,60,0.25,,,,,,,,,,,,,,,,,,,,,,,,,,,,,,,,,,,,,,,,,,,,,
,,,,,SRP24_032,21,female,2024-04-10_15h55.19.808,jersey_experiment_5_v0,2023.2.2,Win32,84.74576271,,,,,,,,,,,,,,,,163.222,164.2692,164.2692,165.3629,return,0.1944,,99.34895833,0,30,30,18,1,FBP-YG-17.png,0.43,1.2,19,0.25,,,,,,,,,,,,,,,,,,,,,,,,,,,,,,,,,,,,,,,,,,,,,
,,,,,SRP24_032,21,female,2024-04-10_15h55.19.808,jersey_experiment_5_v0,2023.2.2,Win32,84.74576271,,,,,,,,,,,,,,,,165.3632,166.657,166.657,168.0572,return,0.1186,,82.94270833,0,31,31,12,1,FBP-OG-91.png,0.4,1.2,13,0.5,,,,,,,,,,,,,,,,,,,,,,,,,,,,,,,,,,,,,,,,,,,,,
,,,,,SRP24_032,21,female,2024-04-10_15h55.19.808,jersey_experiment_5_v0,2023.2.2,Win32,84.74576271,,,,,,,,,,,,,,,,168.0574,169.3513,169.3514,170.5986,return,0.5188,,78.64583333,0,32,32,7,1,FBP-OG-81.png,0.4,1.2,8,0.5,,,,,,,,,,,,,,,,,,,,,,,,,,,,,,,,,,,,,,,,,,,,,
,,,,,SRP24_032,21,female,2024-04-10_15h55.19.808,jersey_experiment_5_v0,2023.2.2,Win32,84.74576271,,,,,,,,,,,,,,,,170.5988,171.8926,171.8926,173.3515,return,0.1407,,49.609375,0,33,33,6,1,FBP-OG-81.png,0.37,1.2,7,0.5,,,,,,,,,,,,,,,,,,,,,,,,,,,,,,,,,,,,,,,,,,,,,
,,,,,SRP24_032,21,female,2024-04-10_15h55.19.808,jersey_experiment_5_v0,2023.2.2,Win32,84.74576271,,,,,,,,,,,,,,,,173.3517,174.6457,174.6457,175.6221,return,0.1443,,80.33854167,0,34,34,33,1,FBP-RB-17.png,0.43,1.2,34,0.5,,,,,,,,,,,,,,,,,,,,,,,,,,,,,,,,,,,,,,,,,,,,,
,,,,,SRP24_032,21,female,2024-04-10_15h55.19.808,jersey_experiment_5_v0,2023.2.2,Win32,84.74576271,,,,,,,,,,,,,,,,175.6222,176.6693,176.6693,186.1873,return,0.4941,,61.97916667,0,35,35,47,1,FBP-PT-17.png,0.4,1.2,48,0.25,,,,,,,,,,,,,,,,,,,,,,,,,,,,,,,,,,,,,,,,,,,,,
,,,,,SRP24_032,21,female,2024-04-10_15h55.19.808,jersey_experiment_5_v0,2023.2.2,Win32,84.74576271,,,,,,,,,,,,,,,,186.1875,187.2345,187.2345,188.3638,return,0.0698,,50.26041667,0,36,36,56,1,FBP-PT-19.png,0.37,1.2,57,0.25,,,,,,,,,,,,,,,,,,,,,,,,,,,,,,,,,,,,,,,,,,,,,
,,,,,SRP24_032,21,female,2024-04-10_15h55.19.808,jersey_experiment_5_v0,2023.2.2,Win32,84.74576271,,,,,,,,,,,,,,,,188.364,189.658,189.658,190.8697,return,0.0741,,99.73958333,0,37,37,34,1,FBP-RB-17.png,0.45,1.2,35,0.5,,,,,,,,,,,,,,,,,,,,,,,,,,,,,,,,,,,,,,,,,,,,,
,,,,,SRP24_032,21,female,2024-04-10_15h55.19.808,jersey_experiment_5_v0,2023.2.2,Win32,84.74576271,,,,,,,,,,,,,,,,190.8699,192.1639,192.1639,193.1286,return,0.1039,,74.08854167,0,38,38,37,1,FBP-RB-18.png,0.4,1.2,38,0.5,,,,,,,,,,,,,,,,,,,,,,,,,,,,,,,,,,,,,,,,,,,,,
,,,,,SRP24_032,21,female,2024-04-10_15h55.19.808,jersey_experiment_5_v0,2023.2.2,Win32,84.74576271,,,,,,,,,,,,,,,,193.1288,194.4228,194.4228,195.4817,return,0.0475,,54.296875,0,39,39,31,1,FBP-RB-17.png,0.37,1.2,32,0.5,,,,,,,,,,,,,,,,,,,,,,,,,,,,,,,,,,,,,,,,,,,,,
,,,,,SRP24_032,21,female,2024-04-10_15h55.19.808,jersey_experiment_5_v0,2023.2.2,Win32,84.74576271,,,,,,,,,,,,,,,,195.4819,196.7757,196.7757,198.0229,return,0.1532,,34.89583333,0,40,40,10,1,FBP-OG-91.png,0.35,1.2,11,0.5,,,,,,,,,,,,,,,,,,,,,,,,,,,,,,,,,,,,,,,,,,,,,
,,,,,SRP24_032,21,female,2024-04-10_15h55.19.808,jersey_experiment_5_v0,2023.2.2,Win32,84.74576271,,,,,,,,,,,,,,,,198.0232,199.0701,199.0701,199.9523,return,0.032,,25.91145833,0,41,41,51,1,FBP-PT-18.png,0.37,1.2,52,0.25,,,,,,,,,,,,,,,,,,,,,,,,,,,,,,,,,,,,,,,,,,,,,
,,,,,SRP24_032,21,female,2024-04-10_15h55.19.808,jersey_experiment_5_v0,2023.2.2,Win32,84.74576271,,,,,,,,,,,,,,,,199.9526,200.9995,200.9996,202.3878,return,0.2526,,97.91666667,0,42,42,58,1,FBP-PT-19.png,0.43,1.2,59,0.25,,,,,,,,,,,,,,,,,,,,,,,,,,,,,,,,,,,,,,,,,,,,,
,,,,,SRP24_032,21,female,2024-04-10_15h55.19.808,jersey_experiment_5_v0,2023.2.2,Win32,84.74576271,,,,,,,,,,,,,,,,202.3881,203.4351,203.4351,204.5526,return,0.0369,,49.21875,0,43,43,21,1,FBP-YG-18.png,0.37,1.2,22,0.25,,,,,,,,,,,,,,,,,,,,,,,,,,,,,,,,,,,,,,,,,,,,,
,,,,,SRP24_032,21,female,2024-04-10_15h55.19.808,jersey_experiment_5_v0,2023.2.2,Win32,84.74576271,,,,,,,,,,,,,,,,204.5528,205.5997,205.5997,206.9527,return,0.1319,,97.265625,0,44,44,48,1,FBP-PT-17.png,0.43,1.2,49,0.25,,,,,,,,,,,,,,,,,,,,,,,,,,,,,,,,,,,,,,,,,,,,,
,,,,,SRP24_032,21,female,2024-04-10_15h55.19.808,jersey_experiment_5_v0,2023.2.2,Win32,84.74576271,,,,,,,,,,,,,,,,206.9529,208.2471,208.2472,209.2117,return,0.1178,,51.30208333,0,45,45,40,1,FBP-RB-19.png,0.35,1.2,41,0.5,,,,,,,,,,,,,,,,,,,,,,,,,,,,,,,,,,,,,,,,,,,,,
,,,,,SRP24_032,21,female,2024-04-10_15h55.19.808,jersey_experiment_5_v0,2023.2.2,Win32,84.74576271,,,,,,,,,,,,,,,,209.2119,210.2585,210.2585,212.0588,return,0.8853,,48.69791667,0,46,46,46,1,FBP-PT-17.png,0.37,1.2,47,0.25,,,,,,,,,,,,,,,,,,,,,,,,,,,,,,,,,,,,,,,,,,,,,
,,,,,SRP24_032,21,female,2024-04-10_15h55.19.808,jersey_experiment_5_v0,2023.2.2,Win32,84.74576271,,,,,,,,,,,,,,,,212.0591,213.1058,213.1058,213.9882,return,0.0639,,43.22916667,0,47,47,16,1,FBP-YG-17.png,0.37,1.2,17,0.25,,,,,,,,,,,,,,,,,,,,,,,,,,,,,,,,,,,,,,,,,,,,,
,,,,,SRP24_032,21,female,2024-04-10_15h55.19.808,jersey_experiment_5_v0,2023.2.2,Win32,84.74576271,,,,,,,,,,,,,,,,213.9885,215.2825,215.2825,215.8352,return,0.1175,,43.48958333,0,48,48,41,1,FBP-RB-19.png,0.37,1.2,42,0.5,,,,,,,,,,,,,,,,,,,,,,,,,,,,,,,,,,,,,,,,,,,,,
,,,,,SRP24_032,21,female,2024-04-10_15h55.19.808,jersey_experiment_5_v0,2023.2.2,Win32,84.74576271,,,,,,,,,,,,,,,,215.8355,216.8825,216.8825,217.7061,return,0.0603,,43.48958333,0,49,49,52,1,FBP-PT-18.png,0.4,1.2,53,0.25,,,,,,,,,,,,,,,,,,,,,,,,,,,,,,,,,,,,,,,,,,,,,
,,,,,SRP24_032,21,female,2024-04-10_15h55.19.808,jersey_experiment_5_v0,2023.2.2,Win32,84.74576271,,,,,,,,,,,,,,,,217.7063,218.753,218.7531,220.2473,return,0.1077,,92.96875,0,50,50,57,1,FBP-PT-19.png,0.4,1.2,58,0.25,,,,,,,,,,,,,,,,,,,,,,,,,,,,,,,,,,,,,,,,,,,,,
,,,,,SRP24_032,21,female,2024-04-10_15h55.19.808,jersey_experiment_5_v0,2023.2.2,Win32,84.74576271,,,,,,,,,,,,,,,,220.2476,221.5414,221.5414,222.4239,return,0.129,,99.47916667,0,51,51,44,1,FBP-RB-19.png,0.45,1.2,45,0.5,,,,,,,,,,,,,,,,,,,,,,,,,,,,,,,,,,,,,,,,,,,,,
,,,,,SRP24_032,21,female,2024-04-10_15h55.19.808,jersey_experiment_5_v0,2023.2.2,Win32,84.74576271,,,,,,,,,,,,,,,,222.424,223.4709,223.471,224.165,return,0.192,,99.34895833,0,52,52,54,1,FBP-PT-18.png,0.45,1.2,55,0.25,,,,,,,,,,,,,,,,,,,,,,,,,,,,,,,,,,,,,,,,,,,,,
,,,,,SRP24_032,21,female,2024-04-10_15h55.19.808,jersey_experiment_5_v0,2023.2.2,Win32,84.74576271,,,,,,,,,,,,,,,,224.1653,225.4591,225.4592,226.0239,return,0.1189,,99.34895833,0,53,53,14,1,FBP-OG-91.png,0.45,1.2,15,0.5,,,,,,,,,,,,,,,,,,,,,,,,,,,,,,,,,,,,,,,,,,,,,
,,,,,SRP24_032,21,female,2024-04-10_15h55.19.808,jersey_experiment_5_v0,2023.2.2,Win32,84.74576271,,,,,,,,,,,,,,,,226.0241,227.071,227.0711,228.3887,return,0.1573,,51.82291667,0,54,54,55,1,FBP-PT-19.png,0.35,1.2,56,0.25,,,,,,,,,,,,,,,,,,,,,,,,,,,,,,,,,,,,,,,,,,,,,
,,,,,SRP24_032,21,female,2024-04-10_15h55.19.808,jersey_experiment_5_v0,2023.2.2,Win32,84.74576271,,,,,,,,,,,,,,,,228.3889,229.683,229.6832,230.4829,return,0.0977,,97.78645833,0,55,55,38,1,FBP-RB-18.png,0.43,1.2,39,0.5,,,,,,,,,,,,,,,,,,,,,,,,,,,,,,,,,,,,,,,,,,,,,
,,,,,SRP24_032,21,female,2024-04-10_15h55.19.808,jersey_experiment_5_v0,2023.2.2,Win32,84.74576271,,,,,,,,,,,,,,,,230.483,231.53,231.5301,232.0358,return,0.0272,,97.65625,0,56,56,19,1,FBP-YG-17.png,0.45,1.2,20,0.25,,,,,,,,,,,,,,,,,,,,,,,,,,,,,,,,,,,,,,,,,,,,,
,,,,,SRP24_032,21,female,2024-04-10_15h55.19.808,jersey_experiment_5_v0,2023.2.2,Win32,84.74576271,,,,,,,,,,,,,,,,232.036,233.083,233.083,234.6124,return,0.1793,,33.85416667,0,57,57,45,1,FBP-PT-17.png,0.35,1.2,46,0.25,,,,,,,,,,,,,,,,,,,,,,,,,,,,,,,,,,,,,,,,,,,,,
,,,,,SRP24_032,21,female,2024-04-10_15h55.19.808,jersey_experiment_5_v0,2023.2.2,Win32,84.74576271,,,,,,,,,,,,,,,,234.6126,235.6599,235.6599,238.3068,return,1.2871,,41.40625,0,58,58,26,1,FBP-YG-19.png,0.37,1.2,27,0.25,,,,,,,,,,,,,,,,,,,,,,,,,,,,,,,,,,,,,,,,,,,,,
,,,,,SRP24_032,21,female,2024-04-10_15h55.19.808,jersey_experiment_5_v0,2023.2.2,Win32,84.74576271,,,,,,,,,,,,,,,,238.307,239.3538,239.3539,240.4834,return,0.0515,,91.40625,0,59,59,53,1,FBP-PT-18.png,0.43,1.2,54,0.25,,,,,,,,,,,,,,,,,,,,,,,,,,,,,,,,,,,,,,,,,,,,,
,,,,,SRP24_032,21,female,2024-04-10_15h55.19.808,jersey_experiment_5_v0,2023.2.2,Win32,84.74576271,,,,,,,,,,,,,,,,240.4854,241.5304,241.5304,242.7303,return,0.6352,,76.04166667,,,,,,FBP-PT-81.png,0.4,1.2,53,0.25,0,0,0,52,1,,,,,,,,,,,,,,,,,,,,,,,,,,,,,,,,,,,,,,,,
,,,,,SRP24_032,21,female,2024-04-10_15h55.19.808,jersey_experiment_5_v0,2023.2.2,Win32,84.74576271,,,,,,,,,,,,,,,,242.7305,243.7776,243.7776,244.648,return,0.071,,98.56770833,,,,,,FBP-YG-71.png,0.45,1.2,20,0.25,0,1,1,19,1,,,,,,,,,,,,,,,,,,,,,,,,,,,,,,,,,,,,,,,,
,,,,,SRP24_032,21,female,2024-04-10_15h55.19.808,jersey_experiment_5_v0,2023.2.2,Win32,84.74576271,,,,,,,,,,,,,,,,244.6484,245.6951,245.6952,246.66,return,0.0521,,60.80729167,,,,,,FBP-PT-81.png,0.37,1.2,52,0.25,0,2,2,51,1,,,,,,,,,,,,,,,,,,,,,,,,,,,,,,,,,,,,,,,,
,,,,,SRP24_032,21,female,2024-04-10_15h55.19.808,jersey_experiment_5_v0,2023.2.2,Win32,84.74576271,,,,,,,,,,,,,,,,246.6602,247.954,247.9542,249.0248,return,0.0534,,50.390625,,,,,,FBP-OG-18.png,0.35,1.2,6,0.5,0,3,3,5,1,,,,,,,,,,,,,,,,,,,,,,,,,,,,,,,,,,,,,,,,
,,,,,SRP24_032,21,female,2024-04-10_15h55.19.808,jersey_experiment_5_v0,2023.2.2,Win32,84.74576271,,,,,,,,,,,,,,,,249.0251,250.3189,250.3189,251.0837,return,0.0709,,40.234375,,,,,,FBP-RB-81.png,0.35,1.2,36,0.5,0,4,4,35,1,,,,,,,,,,,,,,,,,,,,,,,,,,,,,,,,,,,,,,,,
,,,,,SRP24_032,21,female,2024-04-10_15h55.19.808,jersey_experiment_5_v0,2023.2.2,Win32,84.74576271,,,,,,,,,,,,,,,,251.084,252.1307,252.1308,252.8013,return,0.0175,,35.02604167,,,,,,FBP-PT-91.png,0.35,1.2,56,0.25,0,5,5,55,1,,,,,,,,,,,,,,,,,,,,,,,,,,,,,,,,,,,,,,,,
,,,,,SRP24_032,21,female,2024-04-10_15h55.19.808,jersey_experiment_5_v0,2023.2.2,Win32,84.74576271,,,,,,,,,,,,,,,,252.8015,254.0955,254.0956,255.0723,return,0.0681,,30.33854167,,,,,,FBP-OG-17.png,0.35,1.2,1,0.5,0,6,6,0,1,,,,,,,,,,,,,,,,,,,,,,,,,,,,,,,,,,,,,,,,
,,,,,SRP24_032,21,female,2024-04-10_15h55.19.808,jersey_experiment_5_v0,2023.2.2,Win32,84.74576271,,,,,,,,,,,,,,,,255.0724,256.3663,256.3664,257.9781,return,0.1412,,98.56770833,,,,,,FBP-OG-17.png,0.45,1.2,5,0.5,0,7,7,4,1,,,,,,,,,,,,,,,,,,,,,,,,,,,,,,,,,,,,,,,,
,,,,,SRP24_032,21,female,2024-04-10_15h55.19.808,jersey_experiment_5_v0,2023.2.2,Win32,84.74576271,,,,,,,,,,,,,,,,257.9783,259.2721,259.2721,260.131,return,0.0502,,99.47916667,,,,,,FBP-OG-18.png,0.43,1.2,9,0.5,0,8,8,8,1,,,,,,,,,,,,,,,,,,,,,,,,,,,,,,,,,,,,,,,,
,,,,,SRP24_032,21,female,2024-04-10_15h55.19.808,jersey_experiment_5_v0,2023.2.2,Win32,84.74576271,,,,,,,,,,,,,,,,260.1313,261.1781,261.1781,261.7076,return,0.0604,,99.47916667,,,,,,FBP-PT-91.png,0.43,1.2,59,0.25,0,9,9,58,1,,,,,,,,,,,,,,,,,,,,,,,,,,,,,,,,,,,,,,,,
,,,,,SRP24_032,21,female,2024-04-10_15h55.19.808,jersey_experiment_5_v0,2023.2.2,Win32,84.74576271,,,,,,,,,,,,,,,,261.7079,263.0018,263.0018,263.5782,return,0.0328,,96.09375,,,,,,FBP-RB-81.png,0.37,1.2,37,0.5,0,10,10,36,1,,,,,,,,,,,,,,,,,,,,,,,,,,,,,,,,,,,,,,,,
,,,,,SRP24_032,21,female,2024-04-10_15h55.19.808,jersey_experiment_5_v0,2023.2.2,Win32,84.74576271,,,,,,,,,,,,,,,,263.5784,264.6253,264.6254,265.1312,return,0.0239,,96.09375,,,,,,FBP-YG-91.png,0.37,1.2,27,0.25,0,11,11,26,1,,,,,,,,,,,,,,,,,,,,,,,,,,,,,,,,,,,,,,,,
,,,,,SRP24_032,21,female,2024-04-10_15h55.19.808,jersey_experiment_5_v0,2023.2.2,Win32,84.74576271,,,,,,,,,,,,,,,,265.1314,266.4252,266.4253,267.0488,return,0.1176,,95.96354167,,,,,,FBP-RB-91.png,0.45,1.2,45,0.5,0,12,12,44,1,,,,,,,,,,,,,,,,,,,,,,,,,,,,,,,,,,,,,,,,
,,,,,SRP24_032,21,female,2024-04-10_15h55.19.808,jersey_experiment_5_v0,2023.2.2,Win32,84.74576271,,,,,,,,,,,,,,,,267.049,268.096,268.096,268.8373,return,0.1798,,98.046875,,,,,,FBP-YG-81.png,0.45,1.2,25,0.25,0,13,13,24,1,,,,,,,,,,,,,,,,,,,,,,,,,,,,,,,,,,,,,,,,
,,,,,SRP24_032,21,female,2024-04-10_15h55.19.808,jersey_experiment_5_v0,2023.2.2,Win32,84.74576271,,,,,,,,,,,,,,,,268.8375,269.8843,269.8843,270.955,return,0.1178,,98.046875,,,,,,FBP-YG-91.png,0.4,1.2,28,0.25,0,14,14,27,1,,,,,,,,,,,,,,,,,,,,,,,,,,,,,,,,,,,,,,,,
,,,,,SRP24_032,21,female,2024-04-10_15h55.19.808,jersey_experiment_5_v0,2023.2.2,Win32,84.74576271,,,,,,,,,,,,,,,,270.9552,272.2491,272.2492,272.755,return,0.1002,,98.046875,,,,,,FBP-OG-18.png,0.45,1.2,10,0.5,0,15,15,9,1,,,,,,,,,,,,,,,,,,,,,,,,,,,,,,,,,,,,,,,,
,,,,,SRP24_032,21,female,2024-04-10_15h55.19.808,jersey_experiment_5_v0,2023.2.2,Win32,84.74576271,,,,,,,,,,,,,,,,272.7553,274.0491,274.0491,275.061,return,0.098,,98.046875,,,,,,FBP-OG-17.png,0.43,1.2,4,0.5,0,16,16,3,1,,,,,,,,,,,,,,,,,,,,,,,,,,,,,,,,,,,,,,,,
,,,,,SRP24_032,21,female,2024-04-10_15h55.19.808,jersey_experiment_5_v0,2023.2.2,Win32,84.74576271,,,,,,,,,,,,,,,,275.0612,276.108,276.108,277.2962,return,0.1363,,53.77604167,,,,,,FBP-PT-91.png,0.37,1.2,57,0.25,0,17,17,56,1,,,,,,,,,,,,,,,,,,,,,,,,,,,,,,,,,,,,,,,,
,,,,,SRP24_032,21,female,2024-04-10_15h55.19.808,jersey_experiment_5_v0,2023.2.2,Win32,84.74576271,,,,,,,,,,,,,,,,277.2964,278.3434,278.3435,281.0495,return,1.1302,,98.95833333,,,,,,FBP-YG-91.png,0.45,1.2,30,0.25,0,18,18,29,1,,,,,,,,,,,,,,,,,,,,,,,,,,,,,,,,,,,,,,,,
,,,,,SRP24_032,21,female,2024-04-10_15h55.19.808,jersey_experiment_5_v0,2023.2.2,Win32,84.74576271,,,,,,,,,,,,,,,,281.0498,282.3436,282.3437,282.7788,return,0.1414,,98.95833333,,,,,,FBP-OG-19.png,0.43,1.2,14,0.5,0,19,19,13,1,,,,,,,,,,,,,,,,,,,,,,,,,,,,,,,,,,,,,,,,
,,,,,SRP24_032,21,female,2024-04-10_15h55.19.808,jersey_experiment_5_v0,2023.2.2,Win32,84.74576271,,,,,,,,,,,,,,,,282.779,283.826,283.826,284.4848,return,0.1807,,98.95833333,,,,,,FBP-YG-71.png,0.43,1.2,19,0.25,0,20,20,18,1,,,,,,,,,,,,,,,,,,,,,,,,,,,,,,,,,,,,,,,,
,,,,,SRP24_032,21,female,2024-04-10_15h55.19.808,jersey_experiment_5_v0,2023.2.2,Win32,84.74576271,,,,,,,,,,,,,,,,284.485,285.5319,285.532,286.8849,return,0.0964,,25.26041667,,,,,,FBP-PT-71.png,0.35,1.2,46,0.25,0,21,21,45,1,,,,,,,,,,,,,,,,,,,,,,,,,,,,,,,,,,,,,,,,
,,,,,SRP24_032,21,female,2024-04-10_15h55.19.808,jersey_experiment_5_v0,2023.2.2,Win32,84.74576271,,,,,,,,,,,,,,,,286.8852,288.1792,288.1792,288.7438,return,0.0712,,27.47395833,,,,,,FBP-OG-19.png,0.4,1.2,13,0.5,0,22,22,12,1,,,,,,,,,,,,,,,,,,,,,,,,,,,,,,,,,,,,,,,,
,,,,,SRP24_032,21,female,2024-04-10_15h55.19.808,jersey_experiment_5_v0,2023.2.2,Win32,84.74576271,,,,,,,,,,,,,,,,288.744,290.0382,290.0382,291.1203,return,0.5853,,30.46875,,,,,,FBP-OG-17.png,0.37,1.2,2,0.5,0,23,23,1,1,,,,,,,,,,,,,,,,,,,,,,,,,,,,,,,,,,,,,,,,
,,,,,SRP24_032,21,female,2024-04-10_15h55.19.808,jersey_experiment_5_v0,2023.2.2,Win32,84.74576271,,,,,,,,,,,,,,,,291.1205,292.1674,292.1675,293.1203,return,0.1146,,98.69791667,,,,,,FBP-PT-81.png,0.45,1.2,55,0.25,0,24,24,54,1,,,,,,,,,,,,,,,,,,,,,,,,,,,,,,,,,,,,,,,,
,,,,,SRP24_032,21,female,2024-04-10_15h55.19.808,jersey_experiment_5_v0,2023.2.2,Win32,84.74576271,,,,,,,,,,,,,,,,293.1205,294.4146,294.4146,295.3793,return,0.3232,,97.265625,,,,,,FBP-RB-91.png,0.43,1.2,44,0.5,0,25,25,43,1,,,,,,,,,,,,,,,,,,,,,,,,,,,,,,,,,,,,,,,,
,,,,,SRP24_032,21,female,2024-04-10_15h55.19.808,jersey_experiment_5_v0,2023.2.2,Win32,84.74576271,,,,,,,,,,,,,,,,295.3795,296.4264,296.4264,297.1559,return,0.0994,,97.265625,,,,,,FBP-YG-71.png,0.4,1.2,18,0.25,0,26,26,17,1,,,,,,,,,,,,,,,,,,,,,,,,,,,,,,,,,,,,,,,,
,,,,,SRP24_032,21,female,2024-04-10_15h55.19.808,jersey_experiment_5_v0,2023.2.2,Win32,84.74576271,,,,,,,,,,,,,,,,297.156,298.4501,298.4501,299.4029,return,0.0472,,49.609375,,,,,,FBP-OG-19.png,0.37,1.2,12,0.5,0,27,27,11,1,,,,,,,,,,,,,,,,,,,,,,,,,,,,,,,,,,,,,,,,
,,,,,SRP24_032,21,female,2024-04-10_15h55.19.808,jersey_experiment_5_v0,2023.2.2,Win32,84.74576271,,,,,,,,,,,,,,,,299.4031,300.6971,300.6971,302.2268,return,0.4514,,87.36979167,,,,,,FBP-RB-71.png,0.43,1.2,34,0.5,0,28,28,33,1,,,,,,,,,,,,,,,,,,,,,,,,,,,,,,,,,,,,,,,,
,,,,,SRP24_032,21,female,2024-04-10_15h55.19.808,jersey_experiment_5_v0,2023.2.2,Win32,84.74576271,,,,,,,,,,,,,,,,302.2269,303.2736,303.2737,304.6973,return,0.0713,,51.30208333,,,,,,FBP-PT-71.png,0.37,1.2,47,0.25,0,29,29,46,1,,,,,,,,,,,,,,,,,,,,,,,,,,,,,,,,,,,,,,,,
,,,,,SRP24_032,21,female,2024-04-10_15h55.19.808,jersey_experiment_5_v0,2023.2.2,Win32,84.74576271,,,,,,,,,,,,,,,,304.6975,305.9916,305.9916,306.9445,return,0.173,,99.47916667,,,,,,FBP-RB-71.png,0.45,1.2,35,0.5,0,30,30,34,1,,,,,,,,,,,,,,,,,,,,,,,,,,,,,,,,,,,,,,,,
,,,,,SRP24_032,21,female,2024-04-10_15h55.19.808,jersey_experiment_5_v0,2023.2.2,Win32,84.74576271,,,,,,,,,,,,,,,,306.9446,308.2386,308.2386,309.2975,return,0.088,,51.04166667,,,,,,FBP-OG-18.png,0.37,1.2,7,0.5,0,31,31,6,1,,,,,,,,,,,,,,,,,,,,,,,,,,,,,,,,,,,,,,,,
,,,,,SRP24_032,21,female,2024-04-10_15h55.19.808,jersey_experiment_5_v0,2023.2.2,Win32,84.74576271,,,,,,,,,,,,,,,,309.2978,310.5916,310.5917,311.8977,return,0.0614,,23.828125,,,,,,FBP-OG-19.png,0.35,1.2,11,0.5,0,32,32,10,1,,,,,,,,,,,,,,,,,,,,,,,,,,,,,,,,,,,,,,,,
,,,,,SRP24_032,21,female,2024-04-10_15h55.19.808,jersey_experiment_5_v0,2023.2.2,Win32,84.74576271,,,,,,,,,,,,,,,,311.8978,312.9445,312.9445,315.2389,return,0.1079,,55.078125,,,,,,FBP-YG-71.png,0.37,1.2,17,0.25,0,33,33,16,1,,,,,,,,,,,,,,,,,,,,,,,,,,,,,,,,,,,,,,,,
,,,,,SRP24_032,21,female,2024-04-10_15h55.19.808,jersey_experiment_5_v0,2023.2.2,Win32,84.74576271,,,,,,,,,,,,,,,,315.2393,316.5331,316.5331,317.2507,return,0.0166,,50.52083333,,,,,,FBP-OG-18.png,0.4,1.2,8,0.5,0,34,34,7,1,,,,,,,,,,,,,,,,,,,,,,,,,,,,,,,,,,,,,,,,
,,,,,SRP24_032,21,female,2024-04-10_15h55.19.808,jersey_experiment_5_v0,2023.2.2,Win32,84.74576271,,,,,,,,,,,,,,,,317.2509,318.2981,318.2981,319.5095,return,0.074,,88.93229167,,,,,,FBP-YG-81.png,0.43,1.2,24,0.25,0,35,35,23,1,,,,,,,,,,,,,,,,,,,,,,,,,,,,,,,,,,,,,,,,
,,,,,SRP24_032,21,female,2024-04-10_15h55.19.808,jersey_experiment_5_v0,2023.2.2,Win32,84.74576271,,,,,,,,,,,,,,,,319.5098,320.5567,320.5567,321.1921,return,0.061,,91.40625,,,,,,FBP-PT-81.png,0.43,1.2,54,0.25,0,36,36,53,1,,,,,,,,,,,,,,,,,,,,,,,,,,,,,,,,,,,,,,,,
,,,,,SRP24_032,21,female,2024-04-10_15h55.19.808,jersey_experiment_5_v0,2023.2.2,Win32,84.74576271,,,,,,,,,,,,,,,,321.1923,322.2391,322.2392,324.2745,return,0.0652,,42.96875,,,,,,FBP-YG-71.png,0.35,1.2,16,0.25,0,37,37,15,1,,,,,,,,,,,,,,,,,,,,,,,,,,,,,,,,,,,,,,,,
,,,,,SRP24_032,21,female,2024-04-10_15h55.19.808,jersey_experiment_5_v0,2023.2.2,Win32,84.74576271,,,,,,,,,,,,,,,,324.2748,325.3216,325.3216,326.6981,return,0.0852,,99.08854167,,,,,,FBP-PT-71.png,0.43,1.2,49,0.25,0,38,38,48,1,,,,,,,,,,,,,,,,,,,,,,,,,,,,,,,,,,,,,,,,
,,,,,SRP24_032,21,female,2024-04-10_15h55.19.808,jersey_experiment_5_v0,2023.2.2,Win32,84.74576271,,,,,,,,,,,,,,,,326.6984,327.7451,327.7451,329.8984,return,1.2953,,73.95833333,,,,,,FBP-PT-71.png,0.4,1.2,48,0.25,0,39,39,47,1,,,,,,,,,,,,,,,,,,,,,,,,,,,,,,,,,,,,,,,,
,,,,,SRP24_032,21,female,2024-04-10_15h55.19.808,jersey_experiment_5_v0,2023.2.2,Win32,84.74576271,,,,,,,,,,,,,,,,329.8986,330.9453,330.9453,332.1336,return,0.0493,,24.73958333,,,,,,FBP-PT-81.png,0.35,1.2,51,0.25,0,40,40,50,1,,,,,,,,,,,,,,,,,,,,,,,,,,,,,,,,,,,,,,,,
,,,,,SRP24_032,21,female,2024-04-10_15h55.19.808,jersey_experiment_5_v0,2023.2.2,Win32,84.74576271,,,,,,,,,,,,,,,,332.1338,333.4278,333.4279,334.569,return,0.7531,,16.40625,,,,,,FBP-RB-71.png,0.35,1.2,31,0.5,0,41,41,30,1,,,,,,,,,,,,,,,,,,,,,,,,,,,,,,,,,,,,,,,,
,,,,,SRP24_032,21,female,2024-04-10_15h55.19.808,jersey_experiment_5_v0,2023.2.2,Win32,84.74576271,,,,,,,,,,,,,,,,334.5693,335.616,335.6161,336.7574,return,0.0506,,89.0625,,,,,,FBP-YG-81.png,0.4,1.2,23,0.25,0,42,42,22,1,,,,,,,,,,,,,,,,,,,,,,,,,,,,,,,,,,,,,,,,
,,,,,SRP24_032,21,female,2024-04-10_15h55.19.808,jersey_experiment_5_v0,2023.2.2,Win32,84.74576271,,,,,,,,,,,,,,,,336.7577,337.8045,337.8045,339.6986,return,1.4049,,99.34895833,,,,,,FBP-PT-91.png,0.45,1.2,60,0.25,0,43,43,59,1,,,,,,,,,,,,,,,,,,,,,,,,,,,,,,,,,,,,,,,,
,,,,,SRP24_032,21,female,2024-04-10_15h55.19.808,jersey_experiment_5_v0,2023.2.2,Win32,84.74576271,,,,,,,,,,,,,,,,339.6988,340.7456,340.7456,341.275,return,0.0707,,99.08854167,,,,,,FBP-YG-91.png,0.43,1.2,29,0.25,0,44,44,28,1,,,,,,,,,,,,,,,,,,,,,,,,,,,,,,,,,,,,,,,,
,,,,,SRP24_032,21,female,2024-04-10_15h55.19.808,jersey_experiment_5_v0,2023.2.2,Win32,84.74576271,,,,,,,,,,,,,,,,341.2752,342.5692,342.5692,343.7341,return,0.071,,38.93229167,,,,,,FBP-RB-71.png,0.37,1.2,32,0.5,0,45,45,31,1,,,,,,,,,,,,,,,,,,,,,,,,,,,,,,,,,,,,,,,,
,,,,,SRP24_032,21,female,2024-04-10_15h55.19.808,jersey_experiment_5_v0,2023.2.2,Win32,84.74576271,,,,,,,,,,,,,,,,343.7342,344.781,344.781,346.3694,return,0.1472,,99.86979167,,,,,,FBP-PT-71.png,0.45,1.2,50,0.25,0,46,46,49,1,,,,,,,,,,,,,,,,,,,,,,,,,,,,,,,,,,,,,,,,
,,,,,SRP24_032,21,female,2024-04-10_15h55.19.808,jersey_experiment_5_v0,2023.2.2,Win32,84.74576271,,,,,,,,,,,,,,,,346.3696,347.6635,347.6636,348.299,return,0.0241,,99.86979167,,,,,,FBP-RB-91.png,0.37,1.2,42,0.5,0,47,47,41,1,,,,,,,,,,,,,,,,,,,,,,,,,,,,,,,,,,,,,,,,
,,,,,SRP24_032,21,female,2024-04-10_15h55.19.808,jersey_experiment_5_v0,2023.2.2,Win32,84.74576271,,,,,,,,,,,,,,,,348.2992,349.593,349.5931,350.3577,return,0.0737,,99.21875,,,,,,FBP-RB-81.png,0.43,1.2,39,0.5,0,48,48,38,1,,,,,,,,,,,,,,,,,,,,,,,,,,,,,,,,,,,,,,,,
,,,,,SRP24_032,21,female,2024-04-10_15h55.19.808,jersey_experiment_5_v0,2023.2.2,Win32,84.74576271,,,,,,,,,,,,,,,,350.3579,351.6519,351.652,352.9226,return,0.1748,,73.56770833,,,,,,FBP-RB-81.png,0.4,1.2,38,0.5,0,49,49,37,1,,,,,,,,,,,,,,,,,,,,,,,,,,,,,,,,,,,,,,,,
,,,,,SRP24_032,21,female,2024-04-10_15h55.19.808,jersey_experiment_5_v0,2023.2.2,Win32,84.74576271,,,,,,,,,,,,,,,,352.9228,353.9697,353.9698,355.4168,return,0.1887,,17.1875,,,,,,FBP-YG-91.png,0.35,1.2,26,0.25,0,50,50,25,1,,,,,,,,,,,,,,,,,,,,,,,,,,,,,,,,,,,,,,,,
,,,,,SRP24_032,21,female,2024-04-10_15h55.19.808,jersey_experiment_5_v0,2023.2.2,Win32,84.74576271,,,,,,,,,,,,,,,,355.4171,356.7108,356.7109,358.4404,return,0.0841,,54.6875,,,,,,FBP-RB-91.png,0.4,1.2,43,0.5,0,51,51,42,1,,,,,,,,,,,,,,,,,,,,,,,,,,,,,,,,,,,,,,,,
,,,,,SRP24_032,21,female,2024-04-10_15h55.19.808,jersey_experiment_5_v0,2023.2.2,Win32,84.74576271,,,,,,,,,,,,,,,,358.4407,359.7346,359.7346,360.7229,return,0.1686,,92.44791667,,,,,,FBP-OG-19.png,0.45,1.2,15,0.5,0,52,52,14,1,,,,,,,,,,,,,,,,,,,,,,,,,,,,,,,,,,,,,,,,
,,,,,SRP24_032,21,female,2024-04-10_15h55.19.808,jersey_experiment_5_v0,2023.2.2,Win32,84.74576271,,,,,,,,,,,,,,,,360.7232,362.017,362.017,362.8522,return,0.0514,,19.53125,,,,,,FBP-RB-91.png,0.35,1.2,41,0.5,0,53,53,40,1,,,,,,,,,,,,,,,,,,,,,,,,,,,,,,,,,,,,,,,,
,,,,,SRP24_032,21,female,2024-04-10_15h55.19.808,jersey_experiment_5_v0,2023.2.2,Win32,84.74576271,,,,,,,,,,,,,,,,362.8525,364.1467,364.1467,365.0405,return,0.0414,,48.828125,,,,,,FBP-OG-17.png,0.4,1.2,3,0.5,0,54,54,2,1,,,,,,,,,,,,,,,,,,,,,,,,,,,,,,,,,,,,,,,,
,,,,,SRP24_032,21,female,2024-04-10_15h55.19.808,jersey_experiment_5_v0,2023.2.2,Win32,84.74576271,,,,,,,,,,,,,,,,365.0408,366.0878,366.0878,367.2407,return,0.1787,,66.14583333,,,,,,FBP-PT-91.png,0.4,1.2,58,0.25,0,55,55,57,1,,,,,,,,,,,,,,,,,,,,,,,,,,,,,,,,,,,,,,,,
,,,,,SRP24_032,21,female,2024-04-10_15h55.19.808,jersey_experiment_5_v0,2023.2.2,Win32,84.74576271,,,,,,,,,,,,,,,,367.2409,368.5349,368.5349,369.323,return,0.0577,,97.265625,,,,,,FBP-RB-81.png,0.45,1.2,40,0.5,0,56,56,39,1,,,,,,,,,,,,,,,,,,,,,,,,,,,,,,,,,,,,,,,,
,,,,,SRP24_032,21,female,2024-04-10_15h55.19.808,jersey_experiment_5_v0,2023.2.2,Win32,84.74576271,,,,,,,,,,,,,,,,369.3233,370.3702,370.3702,371.3703,return,0.1177,,71.35416667,,,,,,FBP-YG-81.png,0.37,1.2,22,0.25,0,57,57,21,1,,,,,,,,,,,,,,,,,,,,,,,,,,,,,,,,,,,,,,,,
,,,,,SRP24_032,21,female,2024-04-10_15h55.19.808,jersey_experiment_5_v0,2023.2.2,Win32,84.74576271,,,,,,,,,,,,,,,,371.3705,372.6643,372.6643,373.6644,return,0.2426,,95.3125,,,,,,FBP-RB-71.png,0.4,1.2,33,0.5,0,58,58,32,1,,,,,,,,,,,,,,,,,,,,,,,,,,,,,,,,,,,,,,,,
,,,,,SRP24_032,21,female,2024-04-10_15h55.19.808,jersey_experiment_5_v0,2023.2.2,Win32,84.74576271,,,,,,,,,,,,,,,,373.6645,374.7115,374.7115,375.8763,return,0.0264,,43.48958333,,,,,,FBP-YG-81.png,0.35,1.2,21,0.25,0,59,59,20,1,,,,,,,,,,,,,,,,,,,,,,,,,,,,,,,,,,,,,,,,
,,,,,SRP24_032,21,female,2024-04-10_15h55.19.808,jersey_experiment_5_v0,2023.2.2,Win32,84.74576271,,,,,,,,,,,,,,,,,,,,,,,,,,,,,,,,,,,,,,,375.8767,495.869,,,,,,,,,,,,,,,,,,,,,,,,,,,,,,,,,,,,,,
,,,,,SRP24_032,21,female,2024-04-10_15h55.19.808,jersey_experiment_5_v0,2023.2.2,Win32,84.74576271,,,,,,,,,,,,,,,,,,,,,,,,,,,,,,,,,,,,,,,,,495.8691,499.2102,return,3.3273,,,,,,,,,,,,,,,,,,,,,,,,,,,,,,,,,,
,,,,,SRP24_032,21,female,2024-04-10_15h55.19.808,jersey_experiment_5_v0,2023.2.2,Win32,84.74576271,,,,,,,,,,,,,,,,499.2166,500.2689,500.2689,502.7749,return,0.5792,,50.13020833,,,,,,FBP-RB-17.png,0.4,1.2,33,0.25,,,,,,,,,,,,,0,0,0,32,1,,,,,,,,,,,,,,,,,,,,,,,,,,,,
,,,,,SRP24_032,21,female,2024-04-10_15h55.19.808,jersey_experiment_5_v0,2023.2.2,Win32,84.74576271,,,,,,,,,,,,,,,,502.7751,504.0692,504.0692,505.975,return,1.1761,,75.78125,,,,,,FBP-PT-19.png,0.43,1.2,59,0.5,,,,,,,,,,,,,0,1,1,58,1,,,,,,,,,,,,,,,,,,,,,,,,,,,,
,,,,,SRP24_032,21,female,2024-04-10_15h55.19.808,jersey_experiment_5_v0,2023.2.2,Win32,84.74576271,,,,,,,,,,,,,,,,505.9753,507.0222,507.0222,508.5869,return,0.4609,,59.24479167,,,,,,FBP-RB-19.png,0.37,1.2,42,0.25,,,,,,,,,,,,,0,2,2,41,1,,,,,,,,,,,,,,,,,,,,,,,,,,,,
,,,,,SRP24_032,21,female,2024-04-10_15h55.19.808,jersey_experiment_5_v0,2023.2.2,Win32,84.74576271,,,,,,,,,,,,,,,,508.5872,509.6339,509.6339,510.2104,return,0.065,,59.24479167,,,,,,FBP-OG-81.png,0.37,1.2,7,0.25,,,,,,,,,,,,,0,3,3,6,1,,,,,,,,,,,,,,,,,,,,,,,,,,,,
,,,,,SRP24_032,21,female,2024-04-10_15h55.19.808,jersey_experiment_5_v0,2023.2.2,Win32,84.74576271,,,,,,,,,,,,,,,,510.2106,511.5045,511.5046,512.3751,return,0.1789,,64.97395833,,,,,,FBP-PT-18.png,0.4,1.2,53,0.5,,,,,,,,,,,,,0,4,4,52,1,,,,,,,,,,,,,,,,,,,,,,,,,,,,
,,,,,SRP24_032,21,female,2024-04-10_15h55.19.808,jersey_experiment_5_v0,2023.2.2,Win32,84.74576271,,,,,,,,,,,,,,,,512.3754,513.6694,513.6695,514.3285,return,0.2253,,60.15625,,,,,,FBP-PT-18.png,0.37,1.2,52,0.5,,,,,,,,,,,,,0,5,5,51,1,,,,,,,,,,,,,,,,,,,,,,,,,,,,
,,,,,SRP24_032,21,female,2024-04-10_15h55.19.808,jersey_experiment_5_v0,2023.2.2,Win32,84.74576271,,,,,,,,,,,,,,,,514.3287,515.6224,515.6225,516.5166,return,0.2746,,55.59895833,,,,,,FBP-YG-17.png,0.37,1.2,17,0.5,,,,,,,,,,,,,0,6,6,16,1,,,,,,,,,,,,,,,,,,,,,,,,,,,,
,,,,,SRP24_032,21,female,2024-04-10_15h55.19.808,jersey_experiment_5_v0,2023.2.2,Win32,84.74576271,,,,,,,,,,,,,,,,516.5168,517.8106,517.8106,519.4461,return,0.0023,,64.71354167,,,,,,FBP-YG-18.png,0.37,1.2,22,0.5,,,,,,,,,,,,,0,7,7,21,1,,,,,,,,,,,,,,,,,,,,,,,,,,,,
,,,,,SRP24_032,21,female,2024-04-10_15h55.19.808,jersey_experiment_5_v0,2023.2.2,Win32,84.74576271,,,,,,,,,,,,,,,,519.4464,520.7401,520.7402,521.6226,return,0.0376,,98.046875,,,,,,FBP-YG-19.png,0.43,1.2,29,0.5,,,,,,,,,,,,,0,8,8,28,1,,,,,,,,,,,,,,,,,,,,,,,,,,,,
,,,,,SRP24_032,21,female,2024-04-10_15h55.19.808,jersey_experiment_5_v0,2023.2.2,Win32,84.74576271,,,,,,,,,,,,,,,,521.6229,522.6697,522.6697,523.8343,return,0.0135,,51.171875,,,,,,FBP-OG-91.png,0.37,1.2,12,0.25,,,,,,,,,,,,,0,9,9,11,1,,,,,,,,,,,,,,,,,,,,,,,,,,,,
,,,,,SRP24_032,21,female,2024-04-10_15h55.19.808,jersey_experiment_5_v0,2023.2.2,Win32,84.74576271,,,,,,,,,,,,,,,,523.8346,525.1287,525.1288,525.9758,return,0.0377,,73.4375,,,,,,FBP-YG-19.png,0.4,1.2,28,0.5,,,,,,,,,,,,,0,10,10,27,1,,,,,,,,,,,,,,,,,,,,,,,,,,,,
,,,,,SRP24_032,21,female,2024-04-10_15h55.19.808,jersey_experiment_5_v0,2023.2.2,Win32,84.74576271,,,,,,,,,,,,,,,,525.976,527.2699,527.2699,528.5993,return,0.4355,,36.19791667,,,,,,FBP-YG-17.png,0.35,1.2,16,0.5,,,,,,,,,,,,,0,11,11,15,1,,,,,,,,,,,,,,,,,,,,,,,,,,,,
,,,,,SRP24_032,21,female,2024-04-10_15h55.19.808,jersey_experiment_5_v0,2023.2.2,Win32,84.74576271,,,,,,,,,,,,,,,,528.5995,529.6464,529.6464,530.6113,return,0.0974,,76.82291667,,,,,,FBP-RB-19.png,0.4,1.2,43,0.25,,,,,,,,,,,,,0,12,12,42,1,,,,,,,,,,,,,,,,,,,,,,,,,,,,
,,,,,SRP24_032,21,female,2024-04-10_15h55.19.808,jersey_experiment_5_v0,2023.2.2,Win32,84.74576271,,,,,,,,,,,,,,,,530.6115,531.9054,531.9054,532.6818,return,0.0598,,47.91666667,,,,,,FBP-PT-19.png,0.35,1.2,56,0.5,,,,,,,,,,,,,0,13,13,55,1,,,,,,,,,,,,,,,,,,,,,,,,,,,,
,,,,,SRP24_032,21,female,2024-04-10_15h55.19.808,jersey_experiment_5_v0,2023.2.2,Win32,84.74576271,,,,,,,,,,,,,,,,532.682,533.7289,533.729,534.2583,return,0.0279,,47.91666667,,,,,,FBP-OG-91.png,0.35,1.2,11,0.25,,,,,,,,,,,,,0,14,14,10,1,,,,,,,,,,,,,,,,,,,,,,,,,,,,
,,,,,SRP24_032,21,female,2024-04-10_15h55.19.808,jersey_experiment_5_v0,2023.2.2,Win32,84.74576271,,,,,,,,,,,,,,,,534.2586,535.3053,535.3053,536.7292,return,0.1892,,99.08854167,,,,,,FBP-OG-91.png,0.45,1.2,15,0.25,,,,,,,,,,,,,0,15,15,14,1,,,,,,,,,,,,,,,,,,,,,,,,,,,,
,,,,,SRP24_032,21,female,2024-04-10_15h55.19.808,jersey_experiment_5_v0,2023.2.2,Win32,84.74576271,,,,,,,,,,,,,,,,536.7295,538.0232,538.0232,539.2821,return,0.03,,79.81770833,,,,,,FBP-PT-18.png,0.43,1.2,54,0.5,,,,,,,,,,,,,0,16,16,53,1,,,,,,,,,,,,,,,,,,,,,,,,,,,,
,,,,,SRP24_032,21,female,2024-04-10_15h55.19.808,jersey_experiment_5_v0,2023.2.2,Win32,84.74576271,,,,,,,,,,,,,,,,539.2823,540.5761,540.5761,541.7057,return,0.1038,,50.26041667,,,,,,FBP-PT-19.png,0.37,1.2,57,0.5,,,,,,,,,,,,,0,17,17,56,1,,,,,,,,,,,,,,,,,,,,,,,,,,,,
,,,,,SRP24_032,21,female,2024-04-10_15h55.19.808,jersey_experiment_5_v0,2023.2.2,Win32,84.74576271,,,,,,,,,,,,,,,,541.7059,542.7528,542.7528,543.9295,return,0.1085,,23.4375,,,,,,FBP-OG-81.png,0.35,1.2,6,0.25,,,,,,,,,,,,,0,18,18,5,1,,,,,,,,,,,,,,,,,,,,,,,,,,,,
,,,,,SRP24_032,21,female,2024-04-10_15h55.19.808,jersey_experiment_5_v0,2023.2.2,Win32,84.74576271,,,,,,,,,,,,,,,,543.9298,544.9764,544.9765,546.2118,return,0.04,,91.796875,,,,,,FBP-OG-71.png,0.43,1.2,4,0.25,,,,,,,,,,,,,0,19,19,3,1,,,,,,,,,,,,,,,,,,,,,,,,,,,,
,,,,,SRP24_032,21,female,2024-04-10_15h55.19.808,jersey_experiment_5_v0,2023.2.2,Win32,84.74576271,,,,,,,,,,,,,,,,546.2121,547.5058,547.5058,548.2825,return,0.0708,,96.09375,,,,,,FBP-PT-18.png,0.45,1.2,55,0.5,,,,,,,,,,,,,0,20,20,54,1,,,,,,,,,,,,,,,,,,,,,,,,,,,,
,,,,,SRP24_032,21,female,2024-04-10_15h55.19.808,jersey_experiment_5_v0,2023.2.2,Win32,84.74576271,,,,,,,,,,,,,,,,548.2827,549.3294,549.3294,550.7412,return,0.8364,,75.91145833,,,,,,FBP-OG-81.png,0.4,1.2,8,0.25,,,,,,,,,,,,,0,21,21,7,1,,,,,,,,,,,,,,,,,,,,,,,,,,,,
,,,,,SRP24_032,21,female,2024-04-10_15h55.19.808,jersey_experiment_5_v0,2023.2.2,Win32,84.74576271,,,,,,,,,,,,,,,,550.7415,552.0354,552.0354,552.4826,return,0.0999,,79.16666667,,,,,,FBP-PT-17.png,0.4,1.2,48,0.5,,,,,,,,,,,,,0,22,22,47,1,,,,,,,,,,,,,,,,,,,,,,,,,,,,
,,,,,SRP24_032,21,female,2024-04-10_15h55.19.808,jersey_experiment_5_v0,2023.2.2,Win32,84.74576271,,,,,,,,,,,,,,,,552.4829,553.5295,553.5296,554.2122,return,0.0494,,79.16666667,,,,,,FBP-OG-91.png,0.4,1.2,13,0.25,,,,,,,,,,,,,0,23,23,12,1,,,,,,,,,,,,,,,,,,,,,,,,,,,,
,,,,,SRP24_032,21,female,2024-04-10_15h55.19.808,jersey_experiment_5_v0,2023.2.2,Win32,84.74576271,,,,,,,,,,,,,,,,554.2124,555.2591,555.2591,556.824,return,0.0244,,23.69791667,,,,,,FBP-RB-19.png,0.35,1.2,41,0.25,,,,,,,,,,,,,0,24,24,40,1,,,,,,,,,,,,,,,,,,,,,,,,,,,,
,,,,,SRP24_032,21,female,2024-04-10_15h55.19.808,jersey_experiment_5_v0,2023.2.2,Win32,84.74576271,,,,,,,,,,,,,,,,556.8243,557.8709,557.871,559.0238,return,0.0186,,98.17708333,,,,,,FBP-OG-81.png,0.43,1.2,9,0.25,,,,,,,,,,,,,0,25,25,8,1,,,,,,,,,,,,,,,,,,,,,,,,,,,,
,,,,,SRP24_032,21,female,2024-04-10_15h55.19.808,jersey_experiment_5_v0,2023.2.2,Win32,84.74576271,,,,,,,,,,,,,,,,559.0241,560.0711,560.0711,561.6711,return,1.1526,,98.4375,,,,,,FBP-RB-19.png,0.45,1.2,45,0.25,,,,,,,,,,,,,0,26,26,44,1,,,,,,,,,,,,,,,,,,,,,,,,,,,,
,,,,,SRP24_032,21,female,2024-04-10_15h55.19.808,jersey_experiment_5_v0,2023.2.2,Win32,84.74576271,,,,,,,,,,,,,,,,561.6714,562.7182,562.7182,563.2241,return,0.048,,98.4375,,,,,,FBP-RB-18.png,0.45,1.2,40,0.25,,,,,,,,,,,,,0,27,27,39,1,,,,,,,,,,,,,,,,,,,,,,,,,,,,
,,,,,SRP24_032,21,female,2024-04-10_15h55.19.808,jersey_experiment_5_v0,2023.2.2,Win32,84.74576271,,,,,,,,,,,,,,,,563.2244,564.2712,564.2712,565.3184,return,0.0141,,73.56770833,,,,,,FBP-RB-18.png,0.4,1.2,38,0.25,,,,,,,,,,,,,0,28,28,37,1,,,,,,,,,,,,,,,,,,,,,,,,,,,,
,,,,,SRP24_032,21,female,2024-04-10_15h55.19.808,jersey_experiment_5_v0,2023.2.2,Win32,84.74576271,,,,,,,,,,,,,,,,565.3187,566.6124,566.6124,567.236,return,0.0043,,76.30208333,,,,,,FBP-YG-18.png,0.4,1.2,23,0.5,,,,,,,,,,,,,0,29,29,22,1,,,,,,,,,,,,,,,,,,,,,,,,,,,,
,,,,,SRP24_032,21,female,2024-04-10_15h55.19.808,jersey_experiment_5_v0,2023.2.2,Win32,84.74576271,,,,,,,,,,,,,,,,567.2362,568.2831,568.2832,569.5889,return,0.0265,,48.828125,,,,,,FBP-OG-71.png,0.37,1.2,2,0.25,,,,,,,,,,,,,0,30,30,1,1,,,,,,,,,,,,,,,,,,,,,,,,,,,,
,,,,,SRP24_032,21,female,2024-04-10_15h55.19.808,jersey_experiment_5_v0,2023.2.2,Win32,84.74576271,,,,,,,,,,,,,,,,569.5892,570.6361,570.6361,571.7302,return,0.4869,,39.71354167,,,,,,FBP-RB-18.png,0.35,1.2,36,0.25,,,,,,,,,,,,,0,31,31,35,1,,,,,,,,,,,,,,,,,,,,,,,,,,,,
,,,,,SRP24_032,21,female,2024-04-10_15h55.19.808,jersey_experiment_5_v0,2023.2.2,Win32,84.74576271,,,,,,,,,,,,,,,,571.7304,573.0244,573.0244,573.5421,return,0.0259,,36.97916667,,,,,,FBP-YG-19.png,0.35,1.2,26,0.5,,,,,,,,,,,,,0,32,32,25,1,,,,,,,,,,,,,,,,,,,,,,,,,,,,
,,,,,SRP24_032,21,female,2024-04-10_15h55.19.808,jersey_experiment_5_v0,2023.2.2,Win32,84.74576271,,,,,,,,,,,,,,,,573.5423,574.5892,574.5893,575.6362,return,0.0278,,97.91666667,,,,,,FBP-RB-17.png,0.43,1.2,34,0.25,,,,,,,,,,,,,0,33,33,33,1,,,,,,,,,,,,,,,,,,,,,,,,,,,,
,,,,,SRP24_032,21,female,2024-04-10_15h55.19.808,jersey_experiment_5_v0,2023.2.2,Win32,84.74576271,,,,,,,,,,,,,,,,575.6365,576.6834,576.6836,577.1422,return,0.0836,,97.91666667,,,,,,FBP-RB-19.png,0.43,1.2,44,0.25,,,,,,,,,,,,,0,34,34,43,1,,,,,,,,,,,,,,,,,,,,,,,,,,,,
,,,,,SRP24_032,21,female,2024-04-10_15h55.19.808,jersey_experiment_5_v0,2023.2.2,Win32,84.74576271,,,,,,,,,,,,,,,,577.1425,578.1894,578.1894,578.6952,return,0.0813,,97.91666667,,,,,,FBP-OG-91.png,0.43,1.2,14,0.25,,,,,,,,,,,,,0,35,35,13,1,,,,,,,,,,,,,,,,,,,,,,,,,,,,
,,,,,SRP24_032,21,female,2024-04-10_15h55.19.808,jersey_experiment_5_v0,2023.2.2,Win32,84.74576271,,,,,,,,,,,,,,,,578.6954,579.9892,579.9893,580.3895,return,0.0028,,97.91666667,,,,,,FBP-YG-18.png,0.43,1.2,24,0.5,,,,,,,,,,,,,0,36,36,23,1,,,,,,,,,,,,,,,,,,,,,,,,,,,,
,,,,,SRP24_032,21,female,2024-04-10_15h55.19.808,jersey_experiment_5_v0,2023.2.2,Win32,84.74576271,,,,,,,,,,,,,,,,580.3898,581.4366,581.4366,582.4248,return,0.0377,,70.83333333,,,,,,FBP-RB-17.png,0.35,1.2,31,0.25,,,,,,,,,,,,,0,37,37,30,1,,,,,,,,,,,,,,,,,,,,,,,,,,,,
,,,,,SRP24_032,21,female,2024-04-10_15h55.19.808,jersey_experiment_5_v0,2023.2.2,Win32,84.74576271,,,,,,,,,,,,,,,,582.4251,583.4719,583.4719,584.2485,return,0.1414,,92.31770833,,,,,,FBP-OG-71.png,0.4,1.2,3,0.25,,,,,,,,,,,,,0,38,38,2,1,,,,,,,,,,,,,,,,,,,,,,,,,,,,
,,,,,SRP24_032,21,female,2024-04-10_15h55.19.808,jersey_experiment_5_v0,2023.2.2,Win32,84.74576271,,,,,,,,,,,,,,,,584.2488,585.5426,585.5427,586.1543,return,0.1648,,96.22395833,,,,,,FBP-YG-17.png,0.45,1.2,20,0.5,,,,,,,,,,,,,0,39,39,19,1,,,,,,,,,,,,,,,,,,,,,,,,,,,,
,,,,,SRP24_032,21,female,2024-04-10_15h55.19.808,jersey_experiment_5_v0,2023.2.2,Win32,84.74576271,,,,,,,,,,,,,,,,586.1546,587.4487,587.4487,588.8369,return,0.0604,,6.119791667,,,,,,FBP-PT-18.png,0.35,1.2,51,0.5,,,,,,,,,,,,,0,40,40,50,1,,,,,,,,,,,,,,,,,,,,,,,,,,,,
,,,,,SRP24_032,21,female,2024-04-10_15h55.19.808,jersey_experiment_5_v0,2023.2.2,Win32,84.74576271,,,,,,,,,,,,,,,,588.837,590.1311,590.1312,591.2487,return,0.077,,77.99479167,,,,,,FBP-PT-17.png,0.45,1.2,50,0.5,,,,,,,,,,,,,0,41,41,49,1,,,,,,,,,,,,,,,,,,,,,,,,,,,,
,,,,,SRP24_032,21,female,2024-04-10_15h55.19.808,jersey_experiment_5_v0,2023.2.2,Win32,84.74576271,,,,,,,,,,,,,,,,591.249,592.2957,592.2957,594.3783,return,0.7304,,97.78645833,,,,,,FBP-OG-71.png,0.45,1.2,5,0.25,,,,,,,,,,,,,0,42,42,4,1,,,,,,,,,,,,,,,,,,,,,,,,,,,,
,,,,,SRP24_032,21,female,2024-04-10_15h55.19.808,jersey_experiment_5_v0,2023.2.2,Win32,84.74576271,,,,,,,,,,,,,,,,594.3784,595.4253,595.4253,596.6252,return,0.1957,,97.65625,,,,,,FBP-RB-18.png,0.43,1.2,39,0.25,,,,,,,,,,,,,0,43,43,38,1,,,,,,,,,,,,,,,,,,,,,,,,,,,,
,,,,,SRP24_032,21,female,2024-04-10_15h55.19.808,jersey_experiment_5_v0,2023.2.2,Win32,84.74576271,,,,,,,,,,,,,,,,596.6254,597.9195,597.9195,598.8842,return,0.0277,,70.18229167,,,,,,FBP-PT-17.png,0.37,1.2,47,0.5,,,,,,,,,,,,,0,44,44,46,1,,,,,,,,,,,,,,,,,,,,,,,,,,,,
,,,,,SRP24_032,21,female,2024-04-10_15h55.19.808,jersey_experiment_5_v0,2023.2.2,Win32,84.74576271,,,,,,,,,,,,,,,,598.8845,600.1783,600.1783,600.7194,return,0.0559,,90.75520833,,,,,,FBP-YG-17.png,0.4,1.2,18,0.5,,,,,,,,,,,,,0,45,45,17,1,,,,,,,,,,,,,,,,,,,,,,,,,,,,
,,,,,SRP24_032,21,female,2024-04-10_15h55.19.808,jersey_experiment_5_v0,2023.2.2,Win32,84.74576271,,,,,,,,,,,,,,,,600.7196,602.0136,602.0137,602.5197,return,0.1168,,90.49479167,,,,,,FBP-PT-19.png,0.45,1.2,60,0.5,,,,,,,,,,,,,0,46,46,59,1,,,,,,,,,,,,,,,,,,,,,,,,,,,,
,,,,,SRP24_032,21,female,2024-04-10_15h55.19.808,jersey_experiment_5_v0,2023.2.2,Win32,84.74576271,,,,,,,,,,,,,,,,602.52,603.8138,603.8139,604.5314,return,0.0522,,50.78125,,,,,,FBP-YG-19.png,0.37,1.2,27,0.5,,,,,,,,,,,,,0,47,47,26,1,,,,,,,,,,,,,,,,,,,,,,,,,,,,
,,,,,SRP24_032,21,female,2024-04-10_15h55.19.808,jersey_experiment_5_v0,2023.2.2,Win32,84.74576271,,,,,,,,,,,,,,,,604.5316,605.5786,605.5786,606.6257,return,0.0395,,98.30729167,,,,,,FBP-OG-81.png,0.45,1.2,10,0.25,,,,,,,,,,,,,0,48,48,9,1,,,,,,,,,,,,,,,,,,,,,,,,,,,,
,,,,,SRP24_032,21,female,2024-04-10_15h55.19.808,jersey_experiment_5_v0,2023.2.2,Win32,84.74576271,,,,,,,,,,,,,,,,606.6259,607.9197,607.9197,608.92,return,0.5556,,98.17708333,,,,,,FBP-YG-17.png,0.43,1.2,19,0.5,,,,,,,,,,,,,0,49,49,18,1,,,,,,,,,,,,,,,,,,,,,,,,,,,,
,,,,,SRP24_032,21,female,2024-04-10_15h55.19.808,jersey_experiment_5_v0,2023.2.2,Win32,84.74576271,,,,,,,,,,,,,,,,608.9202,610.214,610.214,610.7084,return,0.1103,,98.17708333,,,,,,FBP-YG-18.png,0.45,1.2,25,0.5,,,,,,,,,,,,,0,50,50,24,1,,,,,,,,,,,,,,,,,,,,,,,,,,,,
,,,,,SRP24_032,21,female,2024-04-10_15h55.19.808,jersey_experiment_5_v0,2023.2.2,Win32,84.74576271,,,,,,,,,,,,,,,,610.7086,611.7551,611.7551,612.9318,return,0.0285,,32.16145833,,,,,,FBP-OG-71.png,0.35,1.2,1,0.25,,,,,,,,,,,,,0,51,51,0,1,,,,,,,,,,,,,,,,,,,,,,,,,,,,
,,,,,SRP24_032,21,female,2024-04-10_15h55.19.808,jersey_experiment_5_v0,2023.2.2,Win32,84.74576271,,,,,,,,,,,,,,,,612.932,613.9788,613.9788,614.5671,return,0.0138,,32.16145833,,,,,,FBP-RB-18.png,0.37,1.2,37,0.25,,,,,,,,,,,,,0,52,52,36,1,,,,,,,,,,,,,,,,,,,,,,,,,,,,
,,,,,SRP24_032,21,female,2024-04-10_15h55.19.808,jersey_experiment_5_v0,2023.2.2,Win32,84.74576271,,,,,,,,,,,,,,,,614.5674,615.6142,615.6142,616.5318,return,0.062,,32.16145833,,,,,,FBP-RB-17.png,0.37,1.2,32,0.25,,,,,,,,,,,,,0,53,53,31,1,,,,,,,,,,,,,,,,,,,,,,,,,,,,
,,,,,SRP24_032,21,female,2024-04-10_15h55.19.808,jersey_experiment_5_v0,2023.2.2,Win32,84.74576271,,,,,,,,,,,,,,,,616.5321,617.8259,617.826,618.8261,return,0.0144,,97.39583333,,,,,,FBP-YG-19.png,0.45,1.2,30,0.5,,,,,,,,,,,,,0,54,54,29,1,,,,,,,,,,,,,,,,,,,,,,,,,,,,
,,,,,SRP24_032,21,female,2024-04-10_15h55.19.808,jersey_experiment_5_v0,2023.2.2,Win32,84.74576271,,,,,,,,,,,,,,,,618.8264,619.8731,619.8731,620.4379,return,0.0023,,97.39583333,,,,,,FBP-RB-17.png,0.45,1.2,35,0.25,,,,,,,,,,,,,0,55,55,34,1,,,,,,,,,,,,,,,,,,,,,,,,,,,,
,,,,,SRP24_032,21,female,2024-04-10_15h55.19.808,jersey_experiment_5_v0,2023.2.2,Win32,84.74576271,,,,,,,,,,,,,,,,620.4382,621.732,621.7321,623.2969,return,0.0296,,23.4375,,,,,,FBP-YG-18.png,0.35,1.2,21,0.5,,,,,,,,,,,,,0,56,56,20,1,,,,,,,,,,,,,,,,,,,,,,,,,,,,
,,,,,SRP24_032,21,female,2024-04-10_15h55.19.808,jersey_experiment_5_v0,2023.2.2,Win32,84.74576271,,,,,,,,,,,,,,,,623.2971,624.5912,624.5912,626.4499,return,0.5461,,94.27083333,,,,,,FBP-PT-17.png,0.43,1.2,49,0.5,,,,,,,,,,,,,0,57,57,48,1,,,,,,,,,,,,,,,,,,,,,,,,,,,,
,,,,,SRP24_032,21,female,2024-04-10_15h55.19.808,jersey_experiment_5_v0,2023.2.2,Win32,84.74576271,,,,,,,,,,,,,,,,626.4501,627.7441,627.7441,628.9207,return,0.0606,,75.13020833,,,,,,FBP-PT-19.png,0.4,1.2,58,0.5,,,,,,,,,,,,,0,58,58,57,1,,,,,,,,,,,,,,,,,,,,,,,,,,,,
,,,,,SRP24_032,21,female,2024-04-10_15h55.19.808,jersey_experiment_5_v0,2023.2.2,Win32,84.74576271,,,,,,,,,,,,,,,,628.9209,630.2146,630.2146,631.2031,return,0.0643,,40.234375,,,,,,FBP-PT-17.png,0.35,1.2,46,0.5,,,,,,,,,,,,,0,59,59,45,1,,,,,,,,,,,,,,,,,,,,,,,,,,,,
,,,,,SRP24_032,21,female,2024-04-10_15h55.19.808,jersey_experiment_5_v0,2023.2.2,Win32,84.74576271,,,,,,,,,,,,,,,,631.2044,632.25,632.2501,633.8266,return,0.5705,,93.61979167,,,,,,FBP-OG-18.png,0.45,1.2,10,0.25,,,,,,,,,,,,,,,,,,0,0,0,9,1,,,,,,,,,,,,,,,,,,,,,,,
,,,,,SRP24_032,21,female,2024-04-10_15h55.19.808,jersey_experiment_5_v0,2023.2.2,Win32,84.74576271,,,,,,,,,,,,,,,,633.8267,634.8738,634.8738,635.9913,return,0.0809,,78.38541667,,,,,,FBP-OG-19.png,0.4,1.2,13,0.25,,,,,,,,,,,,,,,,,,0,1,1,12,1,,,,,,,,,,,,,,,,,,,,,,,
,,,,,SRP24_032,21,female,2024-04-10_15h55.19.808,jersey_experiment_5_v0,2023.2.2,Win32,84.74576271,,,,,,,,,,,,,,,,635.9916,637.0385,637.0385,638.121,return,0.142,,52.08333333,,,,,,FBP-OG-18.png,0.37,1.2,7,0.25,,,,,,,,,,,,,,,,,,0,2,2,6,1,,,,,,,,,,,,,,,,,,,,,,,
,,,,,SRP24_032,21,female,2024-04-10_15h55.19.808,jersey_experiment_5_v0,2023.2.2,Win32,84.74576271,,,,,,,,,,,,,,,,638.1212,639.4151,639.4151,640.6503,return,0.612,,43.61979167,,,,,,FBP-YG-71.png,0.35,1.2,16,0.5,,,,,,,,,,,,,,,,,,0,3,3,15,1,,,,,,,,,,,,,,,,,,,,,,,
,,,,,SRP24_032,21,female,2024-04-10_15h55.19.808,jersey_experiment_5_v0,2023.2.2,Win32,84.74576271,,,,,,,,,,,,,,,,640.6505,641.9445,641.9445,642.3682,return,0.0656,,43.359375,,,,,,FBP-PT-81.png,0.35,1.2,51,0.5,,,,,,,,,,,,,,,,,,0,4,4,50,1,,,,,,,,,,,,,,,,,,,,,,,
,,,,,SRP24_032,21,female,2024-04-10_15h55.19.808,jersey_experiment_5_v0,2023.2.2,Win32,84.74576271,,,,,,,,,,,,,,,,642.3684,643.4151,643.4152,644.2739,return,0.0157,,95.96354167,,,,,,FBP-OG-17.png,0.45,1.2,5,0.25,,,,,,,,,,,,,,,,,,0,5,5,4,1,,,,,,,,,,,,,,,,,,,,,,,
,,,,,SRP24_032,21,female,2024-04-10_15h55.19.808,jersey_experiment_5_v0,2023.2.2,Win32,84.74576271,,,,,,,,,,,,,,,,644.2741,645.5681,645.5682,646.5215,return,0.188,,48.69791667,,,,,,FBP-PT-91.png,0.37,1.2,57,0.5,,,,,,,,,,,,,,,,,,0,6,6,56,1,,,,,,,,,,,,,,,,,,,,,,,
,,,,,SRP24_032,21,female,2024-04-10_15h55.19.808,jersey_experiment_5_v0,2023.2.2,Win32,84.74576271,,,,,,,,,,,,,,,,646.5217,647.5683,647.5683,648.6625,return,0.0846,,85.9375,,,,,,FBP-OG-18.png,0.43,1.2,9,0.25,,,,,,,,,,,,,,,,,,0,7,7,8,1,,,,,,,,,,,,,,,,,,,,,,,
,,,,,SRP24_032,21,female,2024-04-10_15h55.19.808,jersey_experiment_5_v0,2023.2.2,Win32,84.74576271,,,,,,,,,,,,,,,,648.6627,649.9565,649.9566,651.1449,return,0.0708,,85.67708333,,,,,,FBP-YG-71.png,0.4,1.2,18,0.5,,,,,,,,,,,,,,,,,,0,8,8,17,1,,,,,,,,,,,,,,,,,,,,,,,
,,,,,SRP24_032,21,female,2024-04-10_15h55.19.808,jersey_experiment_5_v0,2023.2.2,Win32,84.74576271,,,,,,,,,,,,,,,,651.1451,652.192,652.1921,653.1098,return,0.0849,,54.03645833,,,,,,FBP-RB-91.png,0.37,1.2,42,0.25,,,,,,,,,,,,,,,,,,0,9,9,41,1,,,,,,,,,,,,,,,,,,,,,,,
,,,,,SRP24_032,21,female,2024-04-10_15h55.19.808,jersey_experiment_5_v0,2023.2.2,Win32,84.74576271,,,,,,,,,,,,,,,,653.11,654.404,654.404,655.1686,return,0.1358,,68.61979167,,,,,,FBP-PT-91.png,0.4,1.2,58,0.5,,,,,,,,,,,,,,,,,,0,10,10,57,1,,,,,,,,,,,,,,,,,,,,,,,
,,,,,SRP24_032,21,female,2024-04-10_15h55.19.808,jersey_experiment_5_v0,2023.2.2,Win32,84.74576271,,,,,,,,,,,,,,,,655.1688,656.4626,656.4626,657.6156,return,0.1592,,47.00520833,,,,,,FBP-PT-91.png,0.35,1.2,56,0.5,,,,,,,,,,,,,,,,,,0,11,11,55,1,,,,,,,,,,,,,,,,,,,,,,,
,,,,,SRP24_032,21,female,2024-04-10_15h55.19.808,jersey_experiment_5_v0,2023.2.2,Win32,84.74576271,,,,,,,,,,,,,,,,657.6158,658.91,658.91,659.6981,return,0.0279,,97.39583333,,,,,,FBP-PT-71.png,0.45,1.2,50,0.5,,,,,,,,,,,,,,,,,,0,12,12,49,1,,,,,,,,,,,,,,,,,,,,,,,
,,,,,SRP24_032,21,female,2024-04-10_15h55.19.808,jersey_experiment_5_v0,2023.2.2,Win32,84.74576271,,,,,,,,,,,,,,,,659.6984,660.9924,660.9924,662.0748,return,0.5548,,76.953125,,,,,,FBP-PT-71.png,0.37,1.2,47,0.5,,,,,,,,,,,,,,,,,,0,13,13,46,1,,,,,,,,,,,,,,,,,,,,,,,
,,,,,SRP24_032,21,female,2024-04-10_15h55.19.808,jersey_experiment_5_v0,2023.2.2,Win32,84.74576271,,,,,,,,,,,,,,,,662.075,663.1218,663.1218,665.3925,return,0.0064,,95.3125,,,,,,FBP-RB-91.png,0.43,1.2,44,0.25,,,,,,,,,,,,,,,,,,0,14,14,43,1,,,,,,,,,,,,,,,,,,,,,,,
,,,,,SRP24_032,21,female,2024-04-10_15h55.19.808,jersey_experiment_5_v0,2023.2.2,Win32,84.74576271,,,,,,,,,,,,,,,,665.3927,666.4394,666.4395,667.4984,return,0.6122,,94.66145833,,,,,,FBP-OG-19.png,0.45,1.2,15,0.25,,,,,,,,,,,,,,,,,,0,15,15,14,1,,,,,,,,,,,,,,,,,,,,,,,
,,,,,SRP24_032,21,female,2024-04-10_15h55.19.808,jersey_experiment_5_v0,2023.2.2,Win32,84.74576271,,,,,,,,,,,,,,,,667.4987,668.5453,668.5454,669.4162,return,0.0148,,75.91145833,,,,,,FBP-OG-18.png,0.35,1.2,6,0.25,,,,,,,,,,,,,,,,,,0,16,16,5,1,,,,,,,,,,,,,,,,,,,,,,,
,,,,,SRP24_032,21,female,2024-04-10_15h55.19.808,jersey_experiment_5_v0,2023.2.2,Win32,84.74576271,,,,,,,,,,,,,,,,669.4164,670.7103,670.7103,671.8752,return,0.1466,,85.9375,,,,,,FBP-YG-81.png,0.4,1.2,23,0.5,,,,,,,,,,,,,,,,,,0,17,17,22,1,,,,,,,,,,,,,,,,,,,,,,,
,,,,,SRP24_032,21,female,2024-04-10_15h55.19.808,jersey_experiment_5_v0,2023.2.2,Win32,84.74576271,,,,,,,,,,,,,,,,671.8753,672.9222,672.9222,673.6399,return,0.071,,83.07291667,,,,,,FBP-OG-18.png,0.4,1.2,8,0.25,,,,,,,,,,,,,,,,,,0,18,18,7,1,,,,,,,,,,,,,,,,,,,,,,,
,,,,,SRP24_032,21,female,2024-04-10_15h55.19.808,jersey_experiment_5_v0,2023.2.2,Win32,84.74576271,,,,,,,,,,,,,,,,673.64,674.934,674.934,675.9105,return,0.555,,90.88541667,,,,,,FBP-PT-91.png,0.43,1.2,59,0.5,,,,,,,,,,,,,,,,,,0,19,19,58,1,,,,,,,,,,,,,,,,,,,,,,,
,,,,,SRP24_032,21,female,2024-04-10_15h55.19.808,jersey_experiment_5_v0,2023.2.2,Win32,84.74576271,,,,,,,,,,,,,,,,675.9108,677.2047,677.2047,677.6871,return,0.0955,,98.56770833,,,,,,FBP-YG-81.png,0.45,1.2,25,0.5,,,,,,,,,,,,,,,,,,0,20,20,24,1,,,,,,,,,,,,,,,,,,,,,,,
,,,,,SRP24_032,21,female,2024-04-10_15h55.19.808,jersey_experiment_5_v0,2023.2.2,Win32,84.74576271,,,,,,,,,,,,,,,,677.6873,678.7342,678.7342,679.2518,return,0.0504,,98.4375,,,,,,FBP-RB-71.png,0.43,1.2,34,0.25,,,,,,,,,,,,,,,,,,0,21,21,33,1,,,,,,,,,,,,,,,,,,,,,,,
,,,,,SRP24_032,21,female,2024-04-10_15h55.19.808,jersey_experiment_5_v0,2023.2.2,Win32,84.74576271,,,,,,,,,,,,,,,,679.252,680.2988,680.2989,680.793,return,0.0099,,98.4375,,,,,,FBP-OG-19.png,0.43,1.2,14,0.25,,,,,,,,,,,,,,,,,,0,22,22,13,1,,,,,,,,,,,,,,,,,,,,,,,
,,,,,SRP24_032,21,female,2024-04-10_15h55.19.808,jersey_experiment_5_v0,2023.2.2,Win32,84.74576271,,,,,,,,,,,,,,,,680.7932,681.8401,681.8402,682.7931,return,0.0338,,50,,,,,,FBP-RB-71.png,0.37,1.2,32,0.25,,,,,,,,,,,,,,,,,,0,23,23,31,1,,,,,,,,,,,,,,,,,,,,,,,
,,,,,SRP24_032,21,female,2024-04-10_15h55.19.808,jersey_experiment_5_v0,2023.2.2,Win32,84.74576271,,,,,,,,,,,,,,,,682.7934,684.0871,684.0872,684.4168,return,0.0073,,50.52083333,,,,,,FBP-YG-71.png,0.37,1.2,17,0.5,,,,,,,,,,,,,,,,,,0,24,24,16,1,,,,,,,,,,,,,,,,,,,,,,,
,,,,,SRP24_032,21,female,2024-04-10_15h55.19.808,jersey_experiment_5_v0,2023.2.2,Win32,84.74576271,,,,,,,,,,,,,,,,684.4169,685.7107,685.7108,686.0872,return,0.0348,,50.52083333,,,,,,FBP-YG-81.png,0.37,1.2,22,0.5,,,,,,,,,,,,,,,,,,0,25,25,21,1,,,,,,,,,,,,,,,,,,,,,,,
,,,,,SRP24_032,21,female,2024-04-10_15h55.19.808,jersey_experiment_5_v0,2023.2.2,Win32,84.74576271,,,,,,,,,,,,,,,,686.0874,687.3814,687.3815,688.1814,return,0.0503,,49.47916667,,,,,,FBP-YG-91.png,0.37,1.2,27,0.5,,,,,,,,,,,,,,,,,,0,26,26,26,1,,,,,,,,,,,,,,,,,,,,,,,
,,,,,SRP24_032,21,female,2024-04-10_15h55.19.808,jersey_experiment_5_v0,2023.2.2,Win32,84.74576271,,,,,,,,,,,,,,,,688.1817,689.4756,689.4756,690.4521,return,0.05,,96.61458333,,,,,,FBP-YG-71.png,0.45,1.2,20,0.5,,,,,,,,,,,,,,,,,,0,27,27,19,1,,,,,,,,,,,,,,,,,,,,,,,
,,,,,SRP24_032,21,female,2024-04-10_15h55.19.808,jersey_experiment_5_v0,2023.2.2,Win32,84.74576271,,,,,,,,,,,,,,,,690.4524,691.7463,691.7463,693.0641,return,0.1081,,43.48958333,,,,,,FBP-YG-91.png,0.35,1.2,26,0.5,,,,,,,,,,,,,,,,,,0,28,28,25,1,,,,,,,,,,,,,,,,,,,,,,,
,,,,,SRP24_032,21,female,2024-04-10_15h55.19.808,jersey_experiment_5_v0,2023.2.2,Win32,84.74576271,,,,,,,,,,,,,,,,693.0643,694.111,694.111,694.9702,return,0.0379,,95.57291667,,,,,,FBP-OG-17.png,0.43,1.2,4,0.25,,,,,,,,,,,,,,,,,,0,29,29,3,1,,,,,,,,,,,,,,,,,,,,,,,
,,,,,SRP24_032,21,female,2024-04-10_15h55.19.808,jersey_experiment_5_v0,2023.2.2,Win32,84.74576271,,,,,,,,,,,,,,,,694.9705,696.2641,696.2642,696.6642,return,0.0235,,93.88020833,,,,,,FBP-YG-81.png,0.43,1.2,24,0.5,,,,,,,,,,,,,,,,,,0,30,30,23,1,,,,,,,,,,,,,,,,,,,,,,,
,,,,,SRP24_032,21,female,2024-04-10_15h55.19.808,jersey_experiment_5_v0,2023.2.2,Win32,84.74576271,,,,,,,,,,,,,,,,696.6644,697.7111,697.7112,699.4407,return,0.1709,,97.78645833,,,,,,FBP-RB-91.png,0.45,1.2,45,0.25,,,,,,,,,,,,,,,,,,0,31,31,44,1,,,,,,,,,,,,,,,,,,,,,,,
,,,,,SRP24_032,21,female,2024-04-10_15h55.19.808,jersey_experiment_5_v0,2023.2.2,Win32,84.74576271,,,,,,,,,,,,,,,,699.4411,700.4878,700.4878,701.8761,return,0.2025,,28.77604167,,,,,,FBP-OG-17.png,0.35,1.2,1,0.25,,,,,,,,,,,,,,,,,,0,32,32,0,1,,,,,,,,,,,,,,,,,,,,,,,
,,,,,SRP24_032,21,female,2024-04-10_15h55.19.808,jersey_experiment_5_v0,2023.2.2,Win32,84.74576271,,,,,,,,,,,,,,,,701.8764,702.9232,702.9232,705.4761,return,0.1217,,70.44270833,,,,,,FBP-RB-91.png,0.4,1.2,43,0.25,,,,,,,,,,,,,,,,,,0,33,33,42,1,,,,,,,,,,,,,,,,,,,,,,,
,,,,,SRP24_032,21,female,2024-04-10_15h55.19.808,jersey_experiment_5_v0,2023.2.2,Win32,84.74576271,,,,,,,,,,,,,,,,705.4762,706.7705,706.7707,707.2175,return,0.1712,,71.875,,,,,,FBP-PT-71.png,0.4,1.2,48,0.5,,,,,,,,,,,,,,,,,,0,34,34,47,1,,,,,,,,,,,,,,,,,,,,,,,
,,,,,SRP24_032,21,female,2024-04-10_15h55.19.808,jersey_experiment_5_v0,2023.2.2,Win32,84.74576271,,,,,,,,,,,,,,,,707.2177,708.5115,708.5116,709.5235,return,0.1559,,95.703125,,,,,,FBP-PT-91.png,0.45,1.2,60,0.5,,,,,,,,,,,,,,,,,,0,35,35,59,1,,,,,,,,,,,,,,,,,,,,,,,
,,,,,SRP24_032,21,female,2024-04-10_15h55.19.808,jersey_experiment_5_v0,2023.2.2,Win32,84.74576271,,,,,,,,,,,,,,,,709.5237,710.5705,710.5705,711.641,return,0.0471,,73.95833333,,,,,,FBP-OG-17.png,0.4,1.2,3,0.25,,,,,,,,,,,,,,,,,,0,36,36,2,1,,,,,,,,,,,,,,,,,,,,,,,
,,,,,SRP24_032,21,female,2024-04-10_15h55.19.808,jersey_experiment_5_v0,2023.2.2,Win32,84.74576271,,,,,,,,,,,,,,,,711.6412,712.9351,712.9351,713.9706,return,0.1799,,60.9375,,,,,,FBP-PT-81.png,0.37,1.2,52,0.5,,,,,,,,,,,,,,,,,,0,37,37,51,1,,,,,,,,,,,,,,,,,,,,,,,
,,,,,SRP24_032,21,female,2024-04-10_15h55.19.808,jersey_experiment_5_v0,2023.2.2,Win32,84.74576271,,,,,,,,,,,,,,,,713.9708,715.2647,715.2647,716.0178,return,0.0403,,95.83333333,,,,,,FBP-YG-91.png,0.45,1.2,30,0.5,,,,,,,,,,,,,,,,,,0,38,38,29,1,,,,,,,,,,,,,,,,,,,,,,,
,,,,,SRP24_032,21,female,2024-04-10_15h55.19.808,jersey_experiment_5_v0,2023.2.2,Win32,84.74576271,,,,,,,,,,,,,,,,716.018,717.0648,717.0649,718.1002,return,0.0482,,36.71875,,,,,,FBP-OG-19.png,0.35,1.2,11,0.25,,,,,,,,,,,,,,,,,,0,39,39,10,1,,,,,,,,,,,,,,,,,,,,,,,
,,,,,SRP24_032,21,female,2024-04-10_15h55.19.808,jersey_experiment_5_v0,2023.2.2,Win32,84.74576271,,,,,,,,,,,,,,,,718.1003,719.1473,719.1473,720.7709,return,0.392,,75.52083333,,,,,,FBP-RB-81.png,0.4,1.2,38,0.25,,,,,,,,,,,,,,,,,,0,40,40,37,1,,,,,,,,,,,,,,,,,,,,,,,
,,,,,SRP24_032,21,female,2024-04-10_15h55.19.808,jersey_experiment_5_v0,2023.2.2,Win32,84.74576271,,,,,,,,,,,,,,,,720.7712,721.8181,721.8181,723.018,return,0.3903,,60.41666667,,,,,,FBP-RB-81.png,0.37,1.2,37,0.25,,,,,,,,,,,,,,,,,,0,41,41,36,1,,,,,,,,,,,,,,,,,,,,,,,
,,,,,SRP24_032,21,female,2024-04-10_15h55.19.808,jersey_experiment_5_v0,2023.2.2,Win32,84.74576271,,,,,,,,,,,,,,,,723.0182,724.3123,724.3125,725.0299,return,0.1295,,96.875,,,,,,FBP-PT-81.png,0.45,1.2,55,0.5,,,,,,,,,,,,,,,,,,0,42,42,54,1,,,,,,,,,,,,,,,,,,,,,,,
,,,,,SRP24_032,21,female,2024-04-10_15h55.19.808,jersey_experiment_5_v0,2023.2.2,Win32,84.74576271,,,,,,,,,,,,,,,,725.0301,726.0769,726.077,727.2065,return,0.0615,,69.01041667,,,,,,FBP-RB-71.png,0.4,1.2,33,0.25,,,,,,,,,,,,,,,,,,0,43,43,32,1,,,,,,,,,,,,,,,,,,,,,,,
,,,,,SRP24_032,21,female,2024-04-10_15h55.19.808,jersey_experiment_5_v0,2023.2.2,Win32,84.74576271,,,,,,,,,,,,,,,,727.2068,728.5005,728.5006,728.9005,return,0.0707,,68.75,,,,,,FBP-PT-71.png,0.35,1.2,46,0.5,,,,,,,,,,,,,,,,,,0,44,44,45,1,,,,,,,,,,,,,,,,,,,,,,,
,,,,,SRP24_032,21,female,2024-04-10_15h55.19.808,jersey_experiment_5_v0,2023.2.2,Win32,84.74576271,,,,,,,,,,,,,,,,728.9007,729.9476,729.9477,730.5007,return,0.0626,,68.75,,,,,,FBP-RB-91.png,0.35,1.2,41,0.25,,,,,,,,,,,,,,,,,,0,45,45,40,1,,,,,,,,,,,,,,,,,,,,,,,
,,,,,SRP24_032,21,female,2024-04-10_15h55.19.808,jersey_experiment_5_v0,2023.2.2,Win32,84.74576271,,,,,,,,,,,,,,,,730.5009,731.7948,731.7948,732.5594,return,0.0662,,93.88020833,,,,,,FBP-YG-71.png,0.43,1.2,19,0.5,,,,,,,,,,,,,,,,,,0,46,46,18,1,,,,,,,,,,,,,,,,,,,,,,,
,,,,,SRP24_032,21,female,2024-04-10_15h55.19.808,jersey_experiment_5_v0,2023.2.2,Win32,84.74576271,,,,,,,,,,,,,,,,732.5596,733.6066,733.6066,734.0652,return,0.0066,,91.92708333,,,,,,FBP-RB-81.png,0.43,1.2,39,0.25,,,,,,,,,,,,,,,,,,0,47,47,38,1,,,,,,,,,,,,,,,,,,,,,,,
,,,,,SRP24_032,21,female,2024-04-10_15h55.19.808,jersey_experiment_5_v0,2023.2.2,Win32,84.74576271,,,,,,,,,,,,,,,,734.0655,735.3596,735.3596,735.9713,return,0.1462,,94.53125,,,,,,FBP-YG-91.png,0.43,1.2,29,0.5,,,,,,,,,,,,,,,,,,0,48,48,28,1,,,,,,,,,,,,,,,,,,,,,,,
,,,,,SRP24_032,21,female,2024-04-10_15h55.19.808,jersey_experiment_5_v0,2023.2.2,Win32,84.74576271,,,,,,,,,,,,,,,,735.9715,737.2654,737.2655,738.6658,return,0.0942,,40.36458333,,,,,,FBP-PT-81.png,0.4,1.2,53,0.5,,,,,,,,,,,,,,,,,,0,49,49,52,1,,,,,,,,,,,,,,,,,,,,,,,
,,,,,SRP24_032,21,female,2024-04-10_15h55.19.808,jersey_experiment_5_v0,2023.2.2,Win32,84.74576271,,,,,,,,,,,,,,,,738.6661,739.7128,739.7129,741.1364,return,0.4536,,20.18229167,,,,,,FBP-RB-71.png,0.35,1.2,31,0.25,,,,,,,,,,,,,,,,,,0,50,50,30,1,,,,,,,,,,,,,,,,,,,,,,,
,,,,,SRP24_032,21,female,2024-04-10_15h55.19.808,jersey_experiment_5_v0,2023.2.2,Win32,84.74576271,,,,,,,,,,,,,,,,741.1367,742.1832,742.1833,742.8423,return,0.0567,,21.61458333,,,,,,FBP-RB-81.png,0.35,1.2,36,0.25,,,,,,,,,,,,,,,,,,0,51,51,35,1,,,,,,,,,,,,,,,,,,,,,,,
,,,,,SRP24_032,21,female,2024-04-10_15h55.19.808,jersey_experiment_5_v0,2023.2.2,Win32,84.74576271,,,,,,,,,,,,,,,,742.8425,743.8893,743.8893,745.0423,return,0.027,,97.52604167,,,,,,FBP-RB-81.png,0.45,1.2,40,0.25,,,,,,,,,,,,,,,,,,0,52,52,39,1,,,,,,,,,,,,,,,,,,,,,,,
,,,,,SRP24_032,21,female,2024-04-10_15h55.19.808,jersey_experiment_5_v0,2023.2.2,Win32,84.74576271,,,,,,,,,,,,,,,,745.0425,746.3364,746.3364,747.8426,return,1.0165,,89.97395833,,,,,,FBP-YG-91.png,0.4,1.2,28,0.5,,,,,,,,,,,,,,,,,,0,53,53,27,1,,,,,,,,,,,,,,,,,,,,,,,
,,,,,SRP24_032,21,female,2024-04-10_15h55.19.808,jersey_experiment_5_v0,2023.2.2,Win32,84.74576271,,,,,,,,,,,,,,,,747.8428,749.1366,749.1366,750.8072,return,0.6023,,32.68229167,,,,,,FBP-YG-81.png,0.35,1.2,21,0.5,,,,,,,,,,,,,,,,,,0,54,54,20,1,,,,,,,,,,,,,,,,,,,,,,,
,,,,,SRP24_032,21,female,2024-04-10_15h55.19.808,jersey_experiment_5_v0,2023.2.2,Win32,84.74576271,,,,,,,,,,,,,,,,750.8074,752.1014,752.1014,753.3367,return,0.0474,,88.80208333,,,,,,FBP-PT-81.png,0.43,1.2,54,0.5,,,,,,,,,,,,,,,,,,0,55,55,53,1,,,,,,,,,,,,,,,,,,,,,,,
,,,,,SRP24_032,21,female,2024-04-10_15h55.19.808,jersey_experiment_5_v0,2023.2.2,Win32,84.74576271,,,,,,,,,,,,,,,,753.3369,754.3838,754.3839,755.1722,return,0.0143,,53.125,,,,,,FBP-OG-19.png,0.37,1.2,12,0.25,,,,,,,,,,,,,,,,,,0,56,56,11,1,,,,,,,,,,,,,,,,,,,,,,,
,,,,,SRP24_032,21,female,2024-04-10_15h55.19.808,jersey_experiment_5_v0,2023.2.2,Win32,84.74576271,,,,,,,,,,,,,,,,755.1724,756.2191,756.2192,756.8546,return,0.0141,,50.13020833,,,,,,FBP-OG-17.png,0.37,1.2,2,0.25,,,,,,,,,,,,,,,,,,0,57,57,1,1,,,,,,,,,,,,,,,,,,,,,,,
,,,,,SRP24_032,21,female,2024-04-10_15h55.19.808,jersey_experiment_5_v0,2023.2.2,Win32,84.74576271,,,,,,,,,,,,,,,,756.8548,757.9015,757.9016,758.7839,return,0.1849,,95.703125,,,,,,FBP-RB-71.png,0.45,1.2,35,0.25,,,,,,,,,,,,,,,,,,0,58,58,34,1,,,,,,,,,,,,,,,,,,,,,,,
,,,,,SRP24_032,21,female,2024-04-10_15h55.19.808,jersey_experiment_5_v0,2023.2.2,Win32,84.74576271,,,,,,,,,,,,,,,,758.7841,760.0782,760.0782,760.6075,return,0.1121,,98.17708333,,,,,,FBP-PT-71.png,0.43,1.2,49,0.5,,,,,,,,,,,,,,,,,,0,59,59,48,1,,,,,,,,,,,,,,,,,,,,,,,
,,,,,SRP24_032,21,female,2024-04-10_15h55.19.808,jersey_experiment_5_v0,2023.2.2,Win32,84.74576271,,,,,,,,,,,,,,,,,,,,,,,,,,,,,,,,,,,,,,,,,,,,,,,,,,,,,,,,760.608,768.5376,return,7.9154,,,,,,,,,,,,,,,,,,,
,,,,,SRP24_032,21,female,2024-04-10_15h55.19.808,jersey_experiment_5_v0,2023.2.2,Win32,84.74576271,,,,,,,,,,,,,,,,,,,,,,,,,,,,,,,,,,,,,,,,,,,,,,,,,,,,,,,,,,,,,768.5378,774.114,1,4.2586,return,1.3001,,,,,,,,,,,,
,,,,,SRP24_032,21,female,2024-04-10_15h55.19.808,jersey_experiment_5_v0,2023.2.2,Win32,84.74576271,,,,,,,,,,,,,,,,,,,,,,,,,,,,,,,,,,,,,,,,,,,,,,,,,,,,,,,,,,,,,,,,,,,,774.1142,796.7199,"Honestly, not really.",right,12.9877,,,,,,
,,,,,SRP24_032,21,female,2024-04-10_15h55.19.808,jersey_experiment_5_v0,2023.2.2,Win32,84.74576271,,,,,,,,,,,,,,,,,,,,,,,,,,,,,,,,,,,,,,,,,,,,,,,,,,,,,,,,,,,,,,,,,,,,,,,,,,796.72,800.4795,return,3.7558,