requirements.started,requirements.stopped,key_resp_3.keys,key_resp_3.rt,key_resp_3.duration,Subject ID,Age,Gender,date,expName,psychopyVersion,OS,frameRate,instructions1.started,instructions1.stopped,key_resp.keys,key_resp.rt,key_resp.duration,example.started,example.stopped,enter_2.keys,enter_2.rt,enter_2.duration,instructions2.started,instructions2.stopped,enter_3.keys,enter_3.rt,enter_3.duration,image.started,image.stopped,slider_2.started,slider_2.stopped,next.keys,next.rt,next.duration,slider.response,trial_block_1.thisRepN,trial_block_1.thisTrialN,trial_block_1.thisN,trial_block_1.thisIndex,trial_block_1.ran,Path,Width,Height,Index,Duration,trial_block_2.thisRepN,trial_block_2.thisTrialN,trial_block_2.thisN,trial_block_2.thisIndex,trial_block_2.ran,rest_break.started,rest_break.stopped,end_break.started,end_break.stopped,key_resp_5.keys,key_resp_5.rt,key_resp_5.duration,trial_block_3.thisRepN,trial_block_3.thisTrialN,trial_block_3.thisN,trial_block_3.thisIndex,trial_block_3.ran,trial_block_4.thisRepN,trial_block_4.thisTrialN,trial_block_4.thisN,trial_block_4.thisIndex,trial_block_4.ran,questions_intro.started,questions_intro.stopped,enter_12.keys,enter_12.rt,enter_12.duration,question2.started,question2.stopped,question_doingbest.response,question_doingbest.rt,enter_15.keys,enter_15.rt,enter_15.duration,pattern.started,pattern.stopped,pattern_2.text,enter_17.keys,enter_17.rt,enter_17.duration,thankyou.started,thankyou.stopped,enter_14.keys,enter_14.rt,enter_14.duration
0.0001,9.3827,return,9.3754,,SRP24_031,21,Male,2024-04-10_15h31.23.413,jersey_experiment_5_v0,2023.2.2,Win32,85.47008547,,,,,,,,,,,,,,,,,,,,,,,,,,,,,,,,,,,,,,,,,,,,,,,,,,,,,,,,,,,,,,,,,,,,,,,,,,,,,,
,,,,,SRP24_031,21,Male,2024-04-10_15h31.23.413,jersey_experiment_5_v0,2023.2.2,Win32,85.47008547,9.3828,16.9948,return,7.588,,,,,,,,,,,,,,,,,,,,,,,,,,,,,,,,,,,,,,,,,,,,,,,,,,,,,,,,,,,,,,,,,,,,,,,,,,
,,,,,SRP24_031,21,Male,2024-04-10_15h31.23.413,jersey_experiment_5_v0,2023.2.2,Win32,85.47008547,,,,,,16.9948,22.9125,return,5.885,,,,,,,,,,,,,,,,,,,,,,,,,,,,,,,,,,,,,,,,,,,,,,,,,,,,,,,,,,,,,,,,,,,,,
,,,,,SRP24_031,21,Male,2024-04-10_15h31.23.413,jersey_experiment_5_v0,2023.2.2,Win32,85.47008547,,,,,,,,,,,22.9127,36.3834,return,13.4546,,,,,,,,,,,,,,,,,,,,,,,,,,,,,,,,,,,,,,,,,,,,,,,,,,,,,,,,,,,,,,,,
,,,,,SRP24_031,21,Male,2024-04-10_15h31.23.413,jersey_experiment_5_v0,2023.2.2,Win32,85.47008547,,,,,,,,,,,,,,,,36.3908,37.4464,37.4464,53.3603,return,11.2723,,63.28125,0,0,0,16,1,FBP-YG-17.png,0.37,1.2,17,0.25,,,,,,,,,,,,,,,,,,,,,,,,,,,,,,,,,,,,,,,,,,,,,
,,,,,SRP24_031,21,Male,2024-04-10_15h31.23.413,jersey_experiment_5_v0,2023.2.2,Win32,85.47008547,,,,,,,,,,,,,,,,53.3606,54.4073,54.4073,58.9298,return,1.6003,,12.36979167,0,1,1,45,1,FBP-PT-17.png,0.35,1.2,46,0.25,,,,,,,,,,,,,,,,,,,,,,,,,,,,,,,,,,,,,,,,,,,,,
,,,,,SRP24_031,21,Male,2024-04-10_15h31.23.413,jersey_experiment_5_v0,2023.2.2,Win32,85.47008547,,,,,,,,,,,,,,,,58.93,59.9753,59.9753,63.2594,return,0.9547,,74.73958333,0,2,2,54,1,FBP-PT-18.png,0.45,1.2,55,0.25,,,,,,,,,,,,,,,,,,,,,,,,,,,,,,,,,,,,,,,,,,,,,
,,,,,SRP24_031,21,Male,2024-04-10_15h31.23.413,jersey_experiment_5_v0,2023.2.2,Win32,85.47008547,,,,,,,,,,,,,,,,63.2597,64.5534,64.5534,68.9065,return,1.872,,62.36979167,0,3,3,13,1,FBP-OG-91.png,0.43,1.2,14,0.5,,,,,,,,,,,,,,,,,,,,,,,,,,,,,,,,,,,,,,,,,,,,,
,,,,,SRP24_031,21,Male,2024-04-10_15h31.23.413,jersey_experiment_5_v0,2023.2.2,Win32,85.47008547,,,,,,,,,,,,,,,,68.9066,69.949,69.949,74.4836,return,1.1197,,63.02083333,0,4,4,28,1,FBP-YG-19.png,0.43,1.2,29,0.25,,,,,,,,,,,,,,,,,,,,,,,,,,,,,,,,,,,,,,,,,,,,,
,,,,,SRP24_031,21,Male,2024-04-10_15h31.23.413,jersey_experiment_5_v0,2023.2.2,Win32,85.47008547,,,,,,,,,,,,,,,,74.4837,75.7877,75.7877,80.1729,return,0.1946,,69.140625,0,5,5,8,1,FBP-OG-81.png,0.43,1.2,9,0.5,,,,,,,,,,,,,,,,,,,,,,,,,,,,,,,,,,,,,,,,,,,,,
,,,,,SRP24_031,21,Male,2024-04-10_15h31.23.413,jersey_experiment_5_v0,2023.2.2,Win32,85.47008547,,,,,,,,,,,,,,,,80.1731,81.2199,81.22,83.6671,return,0.0942,,37.890625,0,6,6,46,1,FBP-PT-17.png,0.37,1.2,47,0.25,,,,,,,,,,,,,,,,,,,,,,,,,,,,,,,,,,,,,,,,,,,,,
,,,,,SRP24_031,21,Male,2024-04-10_15h31.23.413,jersey_experiment_5_v0,2023.2.2,Win32,85.47008547,,,,,,,,,,,,,,,,83.6672,84.714,84.714,87.0353,return,0.2826,,62.36979167,0,7,7,49,1,FBP-PT-17.png,0.45,1.2,50,0.25,,,,,,,,,,,,,,,,,,,,,,,,,,,,,,,,,,,,,,,,,,,,,
,,,,,SRP24_031,21,Male,2024-04-10_15h31.23.413,jersey_experiment_5_v0,2023.2.2,Win32,85.47008547,,,,,,,,,,,,,,,,87.0354,88.0831,88.0832,91.6907,return,0.3024,,25.26041667,0,8,8,25,1,FBP-YG-19.png,0.35,1.2,26,0.25,,,,,,,,,,,,,,,,,,,,,,,,,,,,,,,,,,,,,,,,,,,,,
,,,,,SRP24_031,21,Male,2024-04-10_15h31.23.413,jersey_experiment_5_v0,2023.2.2,Win32,85.47008547,,,,,,,,,,,,,,,,91.6909,92.985,92.985,98.9263,return,0.2032,,37.890625,0,9,9,41,1,FBP-RB-19.png,0.37,1.2,42,0.5,,,,,,,,,,,,,,,,,,,,,,,,,,,,,,,,,,,,,,,,,,,,,
,,,,,SRP24_031,21,Male,2024-04-10_15h31.23.413,jersey_experiment_5_v0,2023.2.2,Win32,85.47008547,,,,,,,,,,,,,,,,98.9265,100.2205,100.2205,105.0727,return,2.8004,,25.26041667,0,10,10,35,1,FBP-RB-18.png,0.35,1.2,36,0.5,,,,,,,,,,,,,,,,,,,,,,,,,,,,,,,,,,,,,,,,,,,,,
,,,,,SRP24_031,21,Male,2024-04-10_15h31.23.413,jersey_experiment_5_v0,2023.2.2,Win32,85.47008547,,,,,,,,,,,,,,,,105.0768,106.3737,106.3737,109.6481,return,0.4474,,61.19791667,0,11,11,7,1,FBP-OG-81.png,0.4,1.2,8,0.5,,,,,,,,,,,,,,,,,,,,,,,,,,,,,,,,,,,,,,,,,,,,,
,,,,,SRP24_031,21,Male,2024-04-10_15h31.23.413,jersey_experiment_5_v0,2023.2.2,Win32,85.47008547,,,,,,,,,,,,,,,,109.6482,110.9546,110.9547,114.4328,return,1.8244,,87.76041667,0,12,12,43,1,FBP-RB-19.png,0.43,1.2,44,0.5,,,,,,,,,,,,,,,,,,,,,,,,,,,,,,,,,,,,,,,,,,,,,
,,,,,SRP24_031,21,Male,2024-04-10_15h31.23.413,jersey_experiment_5_v0,2023.2.2,Win32,85.47008547,,,,,,,,,,,,,,,,114.433,115.7269,115.727,117.8681,return,0.2656,,91.92708333,0,13,13,34,1,FBP-RB-17.png,0.45,1.2,35,0.5,,,,,,,,,,,,,,,,,,,,,,,,,,,,,,,,,,,,,,,,,,,,,
,,,,,SRP24_031,21,Male,2024-04-10_15h31.23.413,jersey_experiment_5_v0,2023.2.2,Win32,85.47008547,,,,,,,,,,,,,,,,117.8683,118.9186,118.9186,121.0496,return,0.6956,,74.609375,0,14,14,47,1,FBP-PT-17.png,0.4,1.2,48,0.25,,,,,,,,,,,,,,,,,,,,,,,,,,,,,,,,,,,,,,,,,,,,,
,,,,,SRP24_031,21,Male,2024-04-10_15h31.23.413,jersey_experiment_5_v0,2023.2.2,Win32,85.47008547,,,,,,,,,,,,,,,,121.0497,122.354,122.354,125.2331,return,1.118,,39.0625,0,15,15,0,1,FBP-OG-71.png,0.35,1.2,1,0.5,,,,,,,,,,,,,,,,,,,,,,,,,,,,,,,,,,,,,,,,,,,,,
,,,,,SRP24_031,21,Male,2024-04-10_15h31.23.413,jersey_experiment_5_v0,2023.2.2,Win32,85.47008547,,,,,,,,,,,,,,,,125.2334,126.2803,126.2803,128.3308,return,0.3402,,65.234375,0,16,16,52,1,FBP-PT-18.png,0.4,1.2,53,0.25,,,,,,,,,,,,,,,,,,,,,,,,,,,,,,,,,,,,,,,,,,,,,
,,,,,SRP24_031,21,Male,2024-04-10_15h31.23.413,jersey_experiment_5_v0,2023.2.2,Win32,85.47008547,,,,,,,,,,,,,,,,128.331,129.6251,129.6251,131.0215,return,0.3348,,74.609375,0,17,17,9,1,FBP-OG-81.png,0.45,1.2,10,0.5,,,,,,,,,,,,,,,,,,,,,,,,,,,,,,,,,,,,,,,,,,,,,
,,,,,SRP24_031,21,Male,2024-04-10_15h31.23.413,jersey_experiment_5_v0,2023.2.2,Win32,85.47008547,,,,,,,,,,,,,,,,131.0218,132.3158,132.3158,133.743,return,0.1651,,62.5,0,18,18,12,1,FBP-OG-91.png,0.4,1.2,13,0.5,,,,,,,,,,,,,,,,,,,,,,,,,,,,,,,,,,,,,,,,,,,,,
,,,,,SRP24_031,21,Male,2024-04-10_15h31.23.413,jersey_experiment_5_v0,2023.2.2,Win32,85.47008547,,,,,,,,,,,,,,,,133.743,135.0452,135.0453,136.3682,return,0.1077,,89.0625,0,19,19,14,1,FBP-OG-91.png,0.45,1.2,15,0.5,,,,,,,,,,,,,,,,,,,,,,,,,,,,,,,,,,,,,,,,,,,,,
,,,,,SRP24_031,21,Male,2024-04-10_15h31.23.413,jersey_experiment_5_v0,2023.2.2,Win32,85.47008547,,,,,,,,,,,,,,,,136.3683,137.41,137.4101,138.9327,return,0.0607,,89.453125,0,20,20,24,1,FBP-YG-18.png,0.45,1.2,25,0.25,,,,,,,,,,,,,,,,,,,,,,,,,,,,,,,,,,,,,,,,,,,,,
,,,,,SRP24_031,21,Male,2024-04-10_15h31.23.413,jersey_experiment_5_v0,2023.2.2,Win32,85.47008547,,,,,,,,,,,,,,,,138.9328,139.9748,139.9749,141.7162,return,0.0704,,97.65625,0,21,21,59,1,FBP-PT-19.png,0.45,1.2,60,0.25,,,,,,,,,,,,,,,,,,,,,,,,,,,,,,,,,,,,,,,,,,,,,
,,,,,SRP24_031,21,Male,2024-04-10_15h31.23.413,jersey_experiment_5_v0,2023.2.2,Win32,85.47008547,,,,,,,,,,,,,,,,141.7163,143.0135,143.0136,145.8503,return,0.1878,,46.09375,0,22,22,10,1,FBP-OG-91.png,0.35,1.2,11,0.5,,,,,,,,,,,,,,,,,,,,,,,,,,,,,,,,,,,,,,,,,,,,,
,,,,,SRP24_031,21,Male,2024-04-10_15h31.23.413,jersey_experiment_5_v0,2023.2.2,Win32,85.47008547,,,,,,,,,,,,,,,,145.8504,147.1443,147.1443,148.3317,return,0.3064,,39.32291667,0,23,23,5,1,FBP-OG-81.png,0.35,1.2,6,0.5,,,,,,,,,,,,,,,,,,,,,,,,,,,,,,,,,,,,,,,,,,,,,
,,,,,SRP24_031,21,Male,2024-04-10_15h31.23.413,jersey_experiment_5_v0,2023.2.2,Win32,85.47008547,,,,,,,,,,,,,,,,148.3319,149.6339,149.6339,151.2928,return,0.3003,,68.61979167,0,24,24,3,1,FBP-OG-71.png,0.43,1.2,4,0.5,,,,,,,,,,,,,,,,,,,,,,,,,,,,,,,,,,,,,,,,,,,,,
,,,,,SRP24_031,21,Male,2024-04-10_15h31.23.413,jersey_experiment_5_v0,2023.2.2,Win32,85.47008547,,,,,,,,,,,,,,,,151.2931,152.5869,152.587,154.2223,return,0.1457,,55.078125,0,25,25,31,1,FBP-RB-17.png,0.37,1.2,32,0.5,,,,,,,,,,,,,,,,,,,,,,,,,,,,,,,,,,,,,,,,,,,,,
,,,,,SRP24_031,21,Male,2024-04-10_15h31.23.413,jersey_experiment_5_v0,2023.2.2,Win32,85.47008547,,,,,,,,,,,,,,,,154.2225,155.2729,155.2729,159.9636,return,0.1015,,42.44791667,0,26,26,50,1,FBP-PT-18.png,0.35,1.2,51,0.25,,,,,,,,,,,,,,,,,,,,,,,,,,,,,,,,,,,,,,,,,,,,,
,,,,,SRP24_031,21,Male,2024-04-10_15h31.23.413,jersey_experiment_5_v0,2023.2.2,Win32,85.47008547,,,,,,,,,,,,,,,,159.9639,161.2579,161.2579,163.2343,return,0.4014,,75.65104167,0,27,27,38,1,FBP-RB-18.png,0.43,1.2,39,0.5,,,,,,,,,,,,,,,,,,,,,,,,,,,,,,,,,,,,,,,,,,,,,
,,,,,SRP24_031,21,Male,2024-04-10_15h31.23.413,jersey_experiment_5_v0,2023.2.2,Win32,85.47008547,,,,,,,,,,,,,,,,163.2345,164.5285,164.5285,169.2159,return,2.7664,,60.546875,0,28,28,1,1,FBP-OG-71.png,0.37,1.2,2,0.5,,,,,,,,,,,,,,,,,,,,,,,,,,,,,,,,,,,,,,,,,,,,,
,,,,,SRP24_031,21,Male,2024-04-10_15h31.23.413,jersey_experiment_5_v0,2023.2.2,Win32,85.47008547,,,,,,,,,,,,,,,,169.2201,170.5171,170.5171,173.2817,return,1.3528,,75.13020833,0,29,29,32,1,FBP-RB-17.png,0.4,1.2,33,0.5,,,,,,,,,,,,,,,,,,,,,,,,,,,,,,,,,,,,,,,,,,,,,
,,,,,SRP24_031,21,Male,2024-04-10_15h31.23.413,jersey_experiment_5_v0,2023.2.2,Win32,85.47008547,,,,,,,,,,,,,,,,173.2819,174.3322,174.3323,178.5408,return,0.9692,,88.41145833,0,30,30,29,1,FBP-YG-19.png,0.45,1.2,30,0.25,,,,,,,,,,,,,,,,,,,,,,,,,,,,,,,,,,,,,,,,,,,,,
,,,,,SRP24_031,21,Male,2024-04-10_15h31.23.413,jersey_experiment_5_v0,2023.2.2,Win32,85.47008547,,,,,,,,,,,,,,,,178.5411,179.5927,179.5927,182.4975,return,0.871,,36.19791667,0,31,31,20,1,FBP-YG-18.png,0.35,1.2,21,0.25,,,,,,,,,,,,,,,,,,,,,,,,,,,,,,,,,,,,,,,,,,,,,
,,,,,SRP24_031,21,Male,2024-04-10_15h31.23.413,jersey_experiment_5_v0,2023.2.2,Win32,85.47008547,,,,,,,,,,,,,,,,182.4977,183.5409,183.541,187.5529,return,0.0622,,45.57291667,0,32,32,55,1,FBP-PT-19.png,0.35,1.2,56,0.25,,,,,,,,,,,,,,,,,,,,,,,,,,,,,,,,,,,,,,,,,,,,,
,,,,,SRP24_031,21,Male,2024-04-10_15h31.23.413,jersey_experiment_5_v0,2023.2.2,Win32,85.47008547,,,,,,,,,,,,,,,,187.5531,188.8471,188.8472,190.9209,return,0.2929,,40.49479167,0,33,33,11,1,FBP-OG-91.png,0.37,1.2,12,0.5,,,,,,,,,,,,,,,,,,,,,,,,,,,,,,,,,,,,,,,,,,,,,
,,,,,SRP24_031,21,Male,2024-04-10_15h31.23.413,jersey_experiment_5_v0,2023.2.2,Win32,85.47008547,,,,,,,,,,,,,,,,190.9211,191.9648,191.9649,193.6,return,0.0019,,57.03125,0,34,34,56,1,FBP-PT-19.png,0.37,1.2,57,0.25,,,,,,,,,,,,,,,,,,,,,,,,,,,,,,,,,,,,,,,,,,,,,
,,,,,SRP24_031,21,Male,2024-04-10_15h31.23.413,jersey_experiment_5_v0,2023.2.2,Win32,85.47008547,,,,,,,,,,,,,,,,193.6002,194.8943,194.8944,196.239,return,0.1885,,42.05729167,0,35,35,36,1,FBP-RB-18.png,0.37,1.2,37,0.5,,,,,,,,,,,,,,,,,,,,,,,,,,,,,,,,,,,,,,,,,,,,,
,,,,,SRP24_031,21,Male,2024-04-10_15h31.23.413,jersey_experiment_5_v0,2023.2.2,Win32,85.47008547,,,,,,,,,,,,,,,,196.2391,197.2826,197.2826,198.8003,return,0.1327,,74.73958333,0,36,36,58,1,FBP-PT-19.png,0.43,1.2,59,0.25,,,,,,,,,,,,,,,,,,,,,,,,,,,,,,,,,,,,,,,,,,,,,
,,,,,SRP24_031,21,Male,2024-04-10_15h31.23.413,jersey_experiment_5_v0,2023.2.2,Win32,85.47008547,,,,,,,,,,,,,,,,198.8006,199.852,199.852,201.1933,return,0.0706,,86.71875,0,37,37,19,1,FBP-YG-17.png,0.45,1.2,20,0.25,,,,,,,,,,,,,,,,,,,,,,,,,,,,,,,,,,,,,,,,,,,,,
,,,,,SRP24_031,21,Male,2024-04-10_15h31.23.413,jersey_experiment_5_v0,2023.2.2,Win32,85.47008547,,,,,,,,,,,,,,,,201.1934,202.4945,202.4947,203.6592,return,0.1723,,57.03125,0,38,38,30,1,FBP-RB-17.png,0.35,1.2,31,0.5,,,,,,,,,,,,,,,,,,,,,,,,,,,,,,,,,,,,,,,,,,,,,
,,,,,SRP24_031,21,Male,2024-04-10_15h31.23.413,jersey_experiment_5_v0,2023.2.2,Win32,85.47008547,,,,,,,,,,,,,,,,203.6594,204.7065,204.7065,207.1334,return,0.4473,,54.55729167,0,39,39,26,1,FBP-YG-19.png,0.37,1.2,27,0.25,,,,,,,,,,,,,,,,,,,,,,,,,,,,,,,,,,,,,,,,,,,,,
,,,,,SRP24_031,21,Male,2024-04-10_15h31.23.413,jersey_experiment_5_v0,2023.2.2,Win32,85.47008547,,,,,,,,,,,,,,,,207.1334,208.4409,208.441,209.3819,return,0.1178,,74.609375,0,40,40,44,1,FBP-RB-19.png,0.45,1.2,45,0.5,,,,,,,,,,,,,,,,,,,,,,,,,,,,,,,,,,,,,,,,,,,,,
,,,,,SRP24_031,21,Male,2024-04-10_15h31.23.413,jersey_experiment_5_v0,2023.2.2,Win32,85.47008547,,,,,,,,,,,,,,,,209.382,210.6831,210.6831,211.6748,return,0.1181,,65.234375,0,41,41,2,1,FBP-OG-71.png,0.4,1.2,3,0.5,,,,,,,,,,,,,,,,,,,,,,,,,,,,,,,,,,,,,,,,,,,,,
,,,,,SRP24_031,21,Male,2024-04-10_15h31.23.413,jersey_experiment_5_v0,2023.2.2,Win32,85.47008547,,,,,,,,,,,,,,,,211.675,212.9773,212.9773,222.2632,return,0.0944,,76.04166667,0,42,42,42,1,FBP-RB-19.png,0.4,1.2,43,0.5,,,,,,,,,,,,,,,,,,,,,,,,,,,,,,,,,,,,,,,,,,,,,
,,,,,SRP24_031,21,Male,2024-04-10_15h31.23.413,jersey_experiment_5_v0,2023.2.2,Win32,85.47008547,,,,,,,,,,,,,,,,222.2634,223.3117,223.3117,224.3943,return,0.0945,,69.01041667,0,43,43,22,1,FBP-YG-18.png,0.4,1.2,23,0.25,,,,,,,,,,,,,,,,,,,,,,,,,,,,,,,,,,,,,,,,,,,,,
,,,,,SRP24_031,21,Male,2024-04-10_15h31.23.413,jersey_experiment_5_v0,2023.2.2,Win32,85.47008547,,,,,,,,,,,,,,,,224.3944,225.4366,225.4366,228.9459,return,0.0474,,60.9375,0,44,44,17,1,FBP-YG-17.png,0.4,1.2,18,0.25,,,,,,,,,,,,,,,,,,,,,,,,,,,,,,,,,,,,,,,,,,,,,
,,,,,SRP24_031,21,Male,2024-04-10_15h31.23.413,jersey_experiment_5_v0,2023.2.2,Win32,85.47008547,,,,,,,,,,,,,,,,228.9461,229.9895,229.9896,231.618,return,0.2253,,84.11458333,0,45,45,48,1,FBP-PT-17.png,0.43,1.2,49,0.25,,,,,,,,,,,,,,,,,,,,,,,,,,,,,,,,,,,,,,,,,,,,,
,,,,,SRP24_031,21,Male,2024-04-10_15h31.23.413,jersey_experiment_5_v0,2023.2.2,Win32,85.47008547,,,,,,,,,,,,,,,,231.6182,232.6637,232.6638,235.1944,return,0.0472,,55.20833333,0,46,46,21,1,FBP-YG-18.png,0.37,1.2,22,0.25,,,,,,,,,,,,,,,,,,,,,,,,,,,,,,,,,,,,,,,,,,,,,
,,,,,SRP24_031,21,Male,2024-04-10_15h31.23.413,jersey_experiment_5_v0,2023.2.2,Win32,85.47008547,,,,,,,,,,,,,,,,235.1946,236.2369,236.2369,237.1242,return,0.0842,,41.015625,0,47,47,57,1,FBP-PT-19.png,0.4,1.2,58,0.25,,,,,,,,,,,,,,,,,,,,,,,,,,,,,,,,,,,,,,,,,,,,,
,,,,,SRP24_031,21,Male,2024-04-10_15h31.23.413,jersey_experiment_5_v0,2023.2.2,Win32,85.47008547,,,,,,,,,,,,,,,,237.1244,238.4251,238.4252,240.0958,return,0.0726,,25.390625,0,48,48,6,1,FBP-OG-81.png,0.37,1.2,7,0.5,,,,,,,,,,,,,,,,,,,,,,,,,,,,,,,,,,,,,,,,,,,,,
,,,,,SRP24_031,21,Male,2024-04-10_15h31.23.413,jersey_experiment_5_v0,2023.2.2,Win32,85.47008547,,,,,,,,,,,,,,,,240.0961,241.3899,241.3899,242.4653,return,0.0603,,68.22916667,0,49,49,39,1,FBP-RB-18.png,0.45,1.2,40,0.5,,,,,,,,,,,,,,,,,,,,,,,,,,,,,,,,,,,,,,,,,,,,,
,,,,,SRP24_031,21,Male,2024-04-10_15h31.23.413,jersey_experiment_5_v0,2023.2.2,Win32,85.47008547,,,,,,,,,,,,,,,,242.4655,243.5077,243.5078,247.6289,return,0.2929,,73.4375,0,50,50,27,1,FBP-YG-19.png,0.4,1.2,28,0.25,,,,,,,,,,,,,,,,,,,,,,,,,,,,,,,,,,,,,,,,,,,,,
,,,,,SRP24_031,21,Male,2024-04-10_15h31.23.413,jersey_experiment_5_v0,2023.2.2,Win32,85.47008547,,,,,,,,,,,,,,,,247.6291,248.677,248.677,250.3718,return,0.4474,,79.55729167,0,51,51,53,1,FBP-PT-18.png,0.43,1.2,54,0.25,,,,,,,,,,,,,,,,,,,,,,,,,,,,,,,,,,,,,,,,,,,,,
,,,,,SRP24_031,21,Male,2024-04-10_15h31.23.413,jersey_experiment_5_v0,2023.2.2,Win32,85.47008547,,,,,,,,,,,,,,,,250.372,251.6727,251.6727,255.4069,return,1.4017,,85.546875,0,52,52,4,1,FBP-OG-71.png,0.45,1.2,5,0.5,,,,,,,,,,,,,,,,,,,,,,,,,,,,,,,,,,,,,,,,,,,,,
,,,,,SRP24_031,21,Male,2024-04-10_15h31.23.413,jersey_experiment_5_v0,2023.2.2,Win32,85.47008547,,,,,,,,,,,,,,,,255.4071,256.4526,256.4526,259.0069,return,1.2132,,87.109375,0,53,53,23,1,FBP-YG-18.png,0.43,1.2,24,0.25,,,,,,,,,,,,,,,,,,,,,,,,,,,,,,,,,,,,,,,,,,,,,
,,,,,SRP24_031,21,Male,2024-04-10_15h31.23.413,jersey_experiment_5_v0,2023.2.2,Win32,85.47008547,,,,,,,,,,,,,,,,259.0071,260.3083,260.3083,261.972,return,0.0841,,42.578125,0,54,54,37,1,FBP-RB-18.png,0.4,1.2,38,0.5,,,,,,,,,,,,,,,,,,,,,,,,,,,,,,,,,,,,,,,,,,,,,
,,,,,SRP24_031,21,Male,2024-04-10_15h31.23.413,jersey_experiment_5_v0,2023.2.2,Win32,85.47008547,,,,,,,,,,,,,,,,261.9722,263.273,263.2731,265.2848,return,0.0943,,55.59895833,0,55,55,33,1,FBP-RB-17.png,0.43,1.2,34,0.5,,,,,,,,,,,,,,,,,,,,,,,,,,,,,,,,,,,,,,,,,,,,,
,,,,,SRP24_031,21,Male,2024-04-10_15h31.23.413,jersey_experiment_5_v0,2023.2.2,Win32,85.47008547,,,,,,,,,,,,,,,,265.2851,266.5836,266.5837,267.9593,return,0.0577,,25.78125,0,56,56,40,1,FBP-RB-19.png,0.35,1.2,41,0.5,,,,,,,,,,,,,,,,,,,,,,,,,,,,,,,,,,,,,,,,,,,,,
,,,,,SRP24_031,21,Male,2024-04-10_15h31.23.413,jersey_experiment_5_v0,2023.2.2,Win32,85.47008547,,,,,,,,,,,,,,,,267.9594,269.0026,269.0026,269.9251,return,0.0471,,25.78125,0,57,57,51,1,FBP-PT-18.png,0.37,1.2,52,0.25,,,,,,,,,,,,,,,,,,,,,,,,,,,,,,,,,,,,,,,,,,,,,
,,,,,SRP24_031,21,Male,2024-04-10_15h31.23.413,jersey_experiment_5_v0,2023.2.2,Win32,85.47008547,,,,,,,,,,,,,,,,269.9251,270.9674,270.9675,272.3556,return,0.0837,,65.88541667,0,58,58,18,1,FBP-YG-17.png,0.43,1.2,19,0.25,,,,,,,,,,,,,,,,,,,,,,,,,,,,,,,,,,,,,,,,,,,,,
,,,,,SRP24_031,21,Male,2024-04-10_15h31.23.413,jersey_experiment_5_v0,2023.2.2,Win32,85.47008547,,,,,,,,,,,,,,,,272.3557,273.4027,273.4027,276.9946,return,0.1758,,68.61979167,0,59,59,15,1,FBP-YG-17.png,0.35,1.2,16,0.25,,,,,,,,,,,,,,,,,,,,,,,,,,,,,,,,,,,,,,,,,,,,,
,,,,,SRP24_031,21,Male,2024-04-10_15h31.23.413,jersey_experiment_5_v0,2023.2.2,Win32,85.47008547,,,,,,,,,,,,,,,,276.9965,278.297,278.2971,282.0618,return,0.0283,,58.33333333,,,,,,FBP-OG-19.png,0.4,1.2,13,0.5,0,0,0,12,1,,,,,,,,,,,,,,,,,,,,,,,,,,,,,,,,,,,,,,,,
,,,,,SRP24_031,21,Male,2024-04-10_15h31.23.413,jersey_experiment_5_v0,2023.2.2,Win32,85.47008547,,,,,,,,,,,,,,,,282.0621,283.109,283.1091,284.3962,return,0.0944,,75.26041667,,,,,,FBP-PT-71.png,0.45,1.2,50,0.25,0,1,1,49,1,,,,,,,,,,,,,,,,,,,,,,,,,,,,,,,,,,,,,,,,
,,,,,SRP24_031,21,Male,2024-04-10_15h31.23.413,jersey_experiment_5_v0,2023.2.2,Win32,85.47008547,,,,,,,,,,,,,,,,284.3963,285.4418,285.4419,286.7729,return,0.0476,,69.53125,,,,,,FBP-PT-71.png,0.4,1.2,48,0.25,0,2,2,47,1,,,,,,,,,,,,,,,,,,,,,,,,,,,,,,,,,,,,,,,,
,,,,,SRP24_031,21,Male,2024-04-10_15h31.23.413,jersey_experiment_5_v0,2023.2.2,Win32,85.47008547,,,,,,,,,,,,,,,,286.7732,288.0772,288.0772,289.5328,return,0.5118,,81.640625,,,,,,FBP-OG-19.png,0.45,1.2,15,0.5,0,3,3,14,1,,,,,,,,,,,,,,,,,,,,,,,,,,,,,,,,,,,,,,,,
,,,,,SRP24_031,21,Male,2024-04-10_15h31.23.413,jersey_experiment_5_v0,2023.2.2,Win32,85.47008547,,,,,,,,,,,,,,,,289.533,290.827,290.827,292.5143,return,0.4837,,25.26041667,,,,,,FBP-RB-71.png,0.35,1.2,31,0.5,0,4,4,30,1,,,,,,,,,,,,,,,,,,,,,,,,,,,,,,,,,,,,,,,,
,,,,,SRP24_031,21,Male,2024-04-10_15h31.23.413,jersey_experiment_5_v0,2023.2.2,Win32,85.47008547,,,,,,,,,,,,,,,,292.5144,293.5565,293.5566,296.3331,return,0.1118,,60.28645833,,,,,,FBP-PT-91.png,0.4,1.2,58,0.25,0,5,5,57,1,,,,,,,,,,,,,,,,,,,,,,,,,,,,,,,,,,,,,,,,
,,,,,SRP24_031,21,Male,2024-04-10_15h31.23.413,jersey_experiment_5_v0,2023.2.2,Win32,85.47008547,,,,,,,,,,,,,,,,296.3332,297.38,297.3801,299.0085,return,0.037,,68.359375,,,,,,FBP-PT-91.png,0.43,1.2,59,0.25,0,6,6,58,1,,,,,,,,,,,,,,,,,,,,,,,,,,,,,,,,,,,,,,,,
,,,,,SRP24_031,21,Male,2024-04-10_15h31.23.413,jersey_experiment_5_v0,2023.2.2,Win32,85.47008547,,,,,,,,,,,,,,,,299.0087,300.0509,300.0509,301.3719,return,0.1179,,31.90104167,,,,,,FBP-YG-91.png,0.35,1.2,26,0.25,0,7,7,25,1,,,,,,,,,,,,,,,,,,,,,,,,,,,,,,,,,,,,,,,,
,,,,,SRP24_031,21,Male,2024-04-10_15h31.23.413,jersey_experiment_5_v0,2023.2.2,Win32,85.47008547,,,,,,,,,,,,,,,,301.372,302.6743,302.6743,304.4156,return,0.1549,,74.86979167,,,,,,FBP-RB-71.png,0.45,1.2,35,0.5,0,8,8,34,1,,,,,,,,,,,,,,,,,,,,,,,,,,,,,,,,,,,,,,,,
,,,,,SRP24_031,21,Male,2024-04-10_15h31.23.413,jersey_experiment_5_v0,2023.2.2,Win32,85.47008547,,,,,,,,,,,,,,,,304.4159,305.4627,305.4627,307.3619,return,0.2593,,35.80729167,,,,,,FBP-YG-81.png,0.35,1.2,21,0.25,0,9,9,20,1,,,,,,,,,,,,,,,,,,,,,,,,,,,,,,,,,,,,,,,,
,,,,,SRP24_031,21,Male,2024-04-10_15h31.23.413,jersey_experiment_5_v0,2023.2.2,Win32,85.47008547,,,,,,,,,,,,,,,,307.362,308.6629,308.6629,310.2896,return,0.0942,,41.66666667,,,,,,FBP-RB-71.png,0.37,1.2,32,0.5,0,10,10,31,1,,,,,,,,,,,,,,,,,,,,,,,,,,,,,,,,,,,,,,,,
,,,,,SRP24_031,21,Male,2024-04-10_15h31.23.413,jersey_experiment_5_v0,2023.2.2,Win32,85.47008547,,,,,,,,,,,,,,,,310.2898,311.5837,311.5838,312.6511,return,0.1017,,57.03125,,,,,,FBP-RB-81.png,0.43,1.2,39,0.5,0,11,11,38,1,,,,,,,,,,,,,,,,,,,,,,,,,,,,,,,,,,,,,,,,
,,,,,SRP24_031,21,Male,2024-04-10_15h31.23.413,jersey_experiment_5_v0,2023.2.2,Win32,85.47008547,,,,,,,,,,,,,,,,312.6514,313.7015,313.7016,315.315,return,0.165,,39.71354167,,,,,,FBP-YG-71.png,0.37,1.2,17,0.25,0,12,12,16,1,,,,,,,,,,,,,,,,,,,,,,,,,,,,,,,,,,,,,,,,
,,,,,SRP24_031,21,Male,2024-04-10_15h31.23.413,jersey_experiment_5_v0,2023.2.2,Win32,85.47008547,,,,,,,,,,,,,,,,315.3153,316.3573,316.3573,317.6279,return,0.1362,,39.84375,,,,,,FBP-PT-81.png,0.35,1.2,51,0.25,0,13,13,50,1,,,,,,,,,,,,,,,,,,,,,,,,,,,,,,,,,,,,,,,,
,,,,,SRP24_031,21,Male,2024-04-10_15h31.23.413,jersey_experiment_5_v0,2023.2.2,Win32,85.47008547,,,,,,,,,,,,,,,,317.6281,318.675,318.675,319.6077,return,0.0704,,32.55208333,,,,,,FBP-PT-71.png,0.35,1.2,46,0.25,0,14,14,45,1,,,,,,,,,,,,,,,,,,,,,,,,,,,,,,,,,,,,,,,,
,,,,,SRP24_031,21,Male,2024-04-10_15h31.23.413,jersey_experiment_5_v0,2023.2.2,Win32,85.47008547,,,,,,,,,,,,,,,,319.6078,320.9103,320.9103,323.514,return,0.7064,,41.796875,,,,,,FBP-RB-91.png,0.43,1.2,44,0.5,0,15,15,43,1,,,,,,,,,,,,,,,,,,,,,,,,,,,,,,,,,,,,,,,,
,,,,,SRP24_031,21,Male,2024-04-10_15h31.23.413,jersey_experiment_5_v0,2023.2.2,Win32,85.47008547,,,,,,,,,,,,,,,,323.5141,324.5574,324.5574,332.28,return,0.6956,,58.33333333,,,,,,FBP-YG-91.png,0.4,1.2,28,0.25,0,16,16,27,1,,,,,,,,,,,,,,,,,,,,,,,,,,,,,,,,,,,,,,,,
,,,,,SRP24_031,21,Male,2024-04-10_15h31.23.413,jersey_experiment_5_v0,2023.2.2,Win32,85.47008547,,,,,,,,,,,,,,,,332.2801,333.3224,333.3224,335.8568,return,0.2721,,41.92708333,,,,,,FBP-YG-71.png,0.35,1.2,16,0.25,0,17,17,15,1,,,,,,,,,,,,,,,,,,,,,,,,,,,,,,,,,,,,,,,,
,,,,,SRP24_031,21,Male,2024-04-10_15h31.23.413,jersey_experiment_5_v0,2023.2.2,Win32,85.47008547,,,,,,,,,,,,,,,,335.8569,337.158,337.1581,341.311,return,1.4622,,61.84895833,,,,,,FBP-OG-19.png,0.43,1.2,14,0.5,0,18,18,13,1,,,,,,,,,,,,,,,,,,,,,,,,,,,,,,,,,,,,,,,,
,,,,,SRP24_031,21,Male,2024-04-10_15h31.23.413,jersey_experiment_5_v0,2023.2.2,Win32,85.47008547,,,,,,,,,,,,,,,,341.3112,342.6099,342.6099,346.9029,return,0.2122,,52.21354167,,,,,,FBP-OG-18.png,0.37,1.2,7,0.5,0,19,19,6,1,,,,,,,,,,,,,,,,,,,,,,,,,,,,,,,,,,,,,,,,
,,,,,SRP24_031,21,Male,2024-04-10_15h31.23.413,jersey_experiment_5_v0,2023.2.2,Win32,85.47008547,,,,,,,,,,,,,,,,346.9031,348.2053,348.2054,349.8808,return,0.2355,,44.140625,,,,,,FBP-OG-17.png,0.37,1.2,2,0.5,0,20,20,1,1,,,,,,,,,,,,,,,,,,,,,,,,,,,,,,,,,,,,,,,,
,,,,,SRP24_031,21,Male,2024-04-10_15h31.23.413,jersey_experiment_5_v0,2023.2.2,Win32,85.47008547,,,,,,,,,,,,,,,,349.8809,351.182,351.182,353.6456,return,0.1075,,52.47395833,,,,,,FBP-OG-18.png,0.4,1.2,8,0.5,0,21,21,7,1,,,,,,,,,,,,,,,,,,,,,,,,,,,,,,,,,,,,,,,,
,,,,,SRP24_031,21,Male,2024-04-10_15h31.23.413,jersey_experiment_5_v0,2023.2.2,Win32,85.47008547,,,,,,,,,,,,,,,,353.6457,354.6914,354.6914,357.9351,return,0.2977,,65.36458333,,,,,,FBP-PT-81.png,0.4,1.2,53,0.25,0,22,22,52,1,,,,,,,,,,,,,,,,,,,,,,,,,,,,,,,,,,,,,,,,
,,,,,SRP24_031,21,Male,2024-04-10_15h31.23.413,jersey_experiment_5_v0,2023.2.2,Win32,85.47008547,,,,,,,,,,,,,,,,357.9354,359.2292,359.2294,361.3164,return,0.2013,,54.81770833,,,,,,FBP-RB-71.png,0.4,1.2,33,0.5,0,23,23,32,1,,,,,,,,,,,,,,,,,,,,,,,,,,,,,,,,,,,,,,,,
,,,,,SRP24_031,21,Male,2024-04-10_15h31.23.413,jersey_experiment_5_v0,2023.2.2,Win32,85.47008547,,,,,,,,,,,,,,,,361.3165,362.6176,362.6177,364.2343,return,0.4839,,65.625,,,,,,FBP-RB-71.png,0.43,1.2,34,0.5,0,24,24,33,1,,,,,,,,,,,,,,,,,,,,,,,,,,,,,,,,,,,,,,,,
,,,,,SRP24_031,21,Male,2024-04-10_15h31.23.413,jersey_experiment_5_v0,2023.2.2,Win32,85.47008547,,,,,,,,,,,,,,,,364.2344,365.5354,365.5354,368.2814,return,0.1312,,49.47916667,,,,,,FBP-OG-19.png,0.35,1.2,11,0.5,0,25,25,10,1,,,,,,,,,,,,,,,,,,,,,,,,,,,,,,,,,,,,,,,,
,,,,,SRP24_031,21,Male,2024-04-10_15h31.23.413,jersey_experiment_5_v0,2023.2.2,Win32,85.47008547,,,,,,,,,,,,,,,,368.2816,369.5826,369.5826,371.1757,return,0.1416,,49.47916667,,,,,,FBP-OG-19.png,0.37,1.2,12,0.5,0,26,26,11,1,,,,,,,,,,,,,,,,,,,,,,,,,,,,,,,,,,,,,,,,
,,,,,SRP24_031,21,Male,2024-04-10_15h31.23.413,jersey_experiment_5_v0,2023.2.2,Win32,85.47008547,,,,,,,,,,,,,,,,371.1759,372.4695,372.4696,373.9753,return,0.4835,,49.47916667,,,,,,FBP-RB-81.png,0.37,1.2,37,0.5,0,27,27,36,1,,,,,,,,,,,,,,,,,,,,,,,,,,,,,,,,,,,,,,,,
,,,,,SRP24_031,21,Male,2024-04-10_15h31.23.413,jersey_experiment_5_v0,2023.2.2,Win32,85.47008547,,,,,,,,,,,,,,,,373.9754,375.018,375.0181,376.6816,return,0.235,,67.1875,,,,,,FBP-YG-71.png,0.43,1.2,19,0.25,0,28,28,18,1,,,,,,,,,,,,,,,,,,,,,,,,,,,,,,,,,,,,,,,,
,,,,,SRP24_031,21,Male,2024-04-10_15h31.23.413,jersey_experiment_5_v0,2023.2.2,Win32,85.47008547,,,,,,,,,,,,,,,,376.6818,377.986,377.986,380.6181,return,0.5143,,58.46354167,,,,,,FBP-RB-91.png,0.37,1.2,42,0.5,0,29,29,41,1,,,,,,,,,,,,,,,,,,,,,,,,,,,,,,,,,,,,,,,,
,,,,,SRP24_031,21,Male,2024-04-10_15h31.23.413,jersey_experiment_5_v0,2023.2.2,Win32,85.47008547,,,,,,,,,,,,,,,,380.6183,381.6694,381.6694,388.6114,return,0.2591,,63.93229167,,,,,,FBP-PT-91.png,0.35,1.2,56,0.25,0,30,30,55,1,,,,,,,,,,,,,,,,,,,,,,,,,,,,,,,,,,,,,,,,
,,,,,SRP24_031,21,Male,2024-04-10_15h31.23.413,jersey_experiment_5_v0,2023.2.2,Win32,85.47008547,,,,,,,,,,,,,,,,388.6116,389.9126,389.9127,391.5009,return,0.17,,83.59375,,,,,,FBP-RB-81.png,0.45,1.2,40,0.5,0,31,31,39,1,,,,,,,,,,,,,,,,,,,,,,,,,,,,,,,,,,,,,,,,
,,,,,SRP24_031,21,Male,2024-04-10_15h31.23.413,jersey_experiment_5_v0,2023.2.2,Win32,85.47008547,,,,,,,,,,,,,,,,391.5011,392.5481,392.5481,394.128,return,0.0813,,60.15625,,,,,,FBP-YG-81.png,0.4,1.2,23,0.25,0,32,32,22,1,,,,,,,,,,,,,,,,,,,,,,,,,,,,,,,,,,,,,,,,
,,,,,SRP24_031,21,Male,2024-04-10_15h31.23.413,jersey_experiment_5_v0,2023.2.2,Win32,85.47008547,,,,,,,,,,,,,,,,394.1282,395.1764,395.1764,396.5247,return,0.0752,,62.5,,,,,,FBP-PT-91.png,0.37,1.2,57,0.25,0,33,33,56,1,,,,,,,,,,,,,,,,,,,,,,,,,,,,,,,,,,,,,,,,
,,,,,SRP24_031,21,Male,2024-04-10_15h31.23.413,jersey_experiment_5_v0,2023.2.2,Win32,85.47008547,,,,,,,,,,,,,,,,396.5248,397.5763,397.5764,399.4589,return,0.1546,,74.609375,,,,,,FBP-PT-81.png,0.43,1.2,54,0.25,0,34,34,53,1,,,,,,,,,,,,,,,,,,,,,,,,,,,,,,,,,,,,,,,,
,,,,,SRP24_031,21,Male,2024-04-10_15h31.23.413,jersey_experiment_5_v0,2023.2.2,Win32,85.47008547,,,,,,,,,,,,,,,,399.4591,400.5012,400.5013,401.9766,return,0.1179,,56.11979167,,,,,,FBP-PT-81.png,0.37,1.2,52,0.25,0,35,35,51,1,,,,,,,,,,,,,,,,,,,,,,,,,,,,,,,,,,,,,,,,
,,,,,SRP24_031,21,Male,2024-04-10_15h31.23.413,jersey_experiment_5_v0,2023.2.2,Win32,85.47008547,,,,,,,,,,,,,,,,401.9769,403.2708,403.2708,404.2932,return,0.1519,,38.02083333,,,,,,FBP-OG-17.png,0.35,1.2,1,0.5,0,36,36,0,1,,,,,,,,,,,,,,,,,,,,,,,,,,,,,,,,,,,,,,,,
,,,,,SRP24_031,21,Male,2024-04-10_15h31.23.413,jersey_experiment_5_v0,2023.2.2,Win32,85.47008547,,,,,,,,,,,,,,,,404.2933,405.5955,405.5956,407.224,return,0.2253,,80.859375,,,,,,FBP-OG-17.png,0.45,1.2,5,0.5,0,37,37,4,1,,,,,,,,,,,,,,,,,,,,,,,,,,,,,,,,,,,,,,,,
,,,,,SRP24_031,21,Male,2024-04-10_15h31.23.413,jersey_experiment_5_v0,2023.2.2,Win32,85.47008547,,,,,,,,,,,,,,,,407.2242,408.5283,408.5283,411.4829,return,0.189,,56.38020833,,,,,,FBP-OG-17.png,0.4,1.2,3,0.5,0,38,38,2,1,,,,,,,,,,,,,,,,,,,,,,,,,,,,,,,,,,,,,,,,
,,,,,SRP24_031,21,Male,2024-04-10_15h31.23.413,jersey_experiment_5_v0,2023.2.2,Win32,85.47008547,,,,,,,,,,,,,,,,411.483,412.5253,412.5253,414.1522,return,0.1651,,75.26041667,,,,,,FBP-YG-91.png,0.43,1.2,29,0.25,0,39,39,28,1,,,,,,,,,,,,,,,,,,,,,,,,,,,,,,,,,,,,,,,,
,,,,,SRP24_031,21,Male,2024-04-10_15h31.23.413,jersey_experiment_5_v0,2023.2.2,Win32,85.47008547,,,,,,,,,,,,,,,,414.1523,415.4546,415.4547,416.717,return,0.212,,75.26041667,,,,,,FBP-OG-17.png,0.43,1.2,4,0.5,0,40,40,3,1,,,,,,,,,,,,,,,,,,,,,,,,,,,,,,,,,,,,,,,,
,,,,,SRP24_031,21,Male,2024-04-10_15h31.23.413,jersey_experiment_5_v0,2023.2.2,Win32,85.47008547,,,,,,,,,,,,,,,,416.7172,418.0194,418.0194,419.8547,return,0.4978,,54.42708333,,,,,,FBP-RB-91.png,0.4,1.2,43,0.5,0,41,41,42,1,,,,,,,,,,,,,,,,,,,,,,,,,,,,,,,,,,,,,,,,
,,,,,SRP24_031,21,Male,2024-04-10_15h31.23.413,jersey_experiment_5_v0,2023.2.2,Win32,85.47008547,,,,,,,,,,,,,,,,419.855,421.149,421.149,423.917,return,1.3174,,69.27083333,,,,,,FBP-RB-91.png,0.45,1.2,45,0.5,0,42,42,44,1,,,,,,,,,,,,,,,,,,,,,,,,,,,,,,,,,,,,,,,,
,,,,,SRP24_031,21,Male,2024-04-10_15h31.23.413,jersey_experiment_5_v0,2023.2.2,Win32,85.47008547,,,,,,,,,,,,,,,,423.9172,425.2197,425.2198,427.1306,return,0.2725,,49.08854167,,,,,,FBP-RB-81.png,0.4,1.2,38,0.5,0,43,43,37,1,,,,,,,,,,,,,,,,,,,,,,,,,,,,,,,,,,,,,,,,
,,,,,SRP24_031,21,Male,2024-04-10_15h31.23.413,jersey_experiment_5_v0,2023.2.2,Win32,85.47008547,,,,,,,,,,,,,,,,427.1309,428.1728,428.1728,430.2235,return,0.199,,83.72395833,,,,,,FBP-PT-71.png,0.43,1.2,49,0.25,0,44,44,48,1,,,,,,,,,,,,,,,,,,,,,,,,,,,,,,,,,,,,,,,,
,,,,,SRP24_031,21,Male,2024-04-10_15h31.23.413,jersey_experiment_5_v0,2023.2.2,Win32,85.47008547,,,,,,,,,,,,,,,,430.2236,431.2669,431.267,435.0082,return,0.1067,,49.73958333,,,,,,FBP-YG-91.png,0.37,1.2,27,0.25,0,45,45,26,1,,,,,,,,,,,,,,,,,,,,,,,,,,,,,,,,,,,,,,,,
,,,,,SRP24_031,21,Male,2024-04-10_15h31.23.413,jersey_experiment_5_v0,2023.2.2,Win32,85.47008547,,,,,,,,,,,,,,,,435.0085,436.3024,436.3025,437.8237,return,0.3168,,38.93229167,,,,,,FBP-OG-18.png,0.35,1.2,6,0.5,0,46,46,5,1,,,,,,,,,,,,,,,,,,,,,,,,,,,,,,,,,,,,,,,,
,,,,,SRP24_031,21,Male,2024-04-10_15h31.23.413,jersey_experiment_5_v0,2023.2.2,Win32,85.47008547,,,,,,,,,,,,,,,,437.8239,438.8672,438.8673,440.5424,return,0.1074,,44.01041667,,,,,,FBP-YG-81.png,0.37,1.2,22,0.25,0,47,47,21,1,,,,,,,,,,,,,,,,,,,,,,,,,,,,,,,,,,,,,,,,
,,,,,SRP24_031,21,Male,2024-04-10_15h31.23.413,jersey_experiment_5_v0,2023.2.2,Win32,85.47008547,,,,,,,,,,,,,,,,440.5427,441.5882,441.5882,444.2606,return,1.318,,74.73958333,,,,,,FBP-PT-81.png,0.45,1.2,55,0.25,0,48,48,54,1,,,,,,,,,,,,,,,,,,,,,,,,,,,,,,,,,,,,,,,,
,,,,,SRP24_031,21,Male,2024-04-10_15h31.23.413,jersey_experiment_5_v0,2023.2.2,Win32,85.47008547,,,,,,,,,,,,,,,,444.2607,445.5544,445.5545,446.8253,return,0.0473,,90.36458333,,,,,,FBP-OG-18.png,0.45,1.2,10,0.5,0,49,49,9,1,,,,,,,,,,,,,,,,,,,,,,,,,,,,,,,,,,,,,,,,
,,,,,SRP24_031,21,Male,2024-04-10_15h31.23.413,jersey_experiment_5_v0,2023.2.2,Win32,85.47008547,,,,,,,,,,,,,,,,446.8256,447.8676,447.8677,449.4559,return,0.5775,,88.15104167,,,,,,FBP-YG-91.png,0.45,1.2,30,0.25,0,50,50,29,1,,,,,,,,,,,,,,,,,,,,,,,,,,,,,,,,,,,,,,,,
,,,,,SRP24_031,21,Male,2024-04-10_15h31.23.413,jersey_experiment_5_v0,2023.2.2,Win32,85.47008547,,,,,,,,,,,,,,,,449.456,450.7548,450.7548,452.0594,return,0.152,,55.98958333,,,,,,FBP-RB-91.png,0.35,1.2,41,0.5,0,51,51,40,1,,,,,,,,,,,,,,,,,,,,,,,,,,,,,,,,,,,,,,,,
,,,,,SRP24_031,21,Male,2024-04-10_15h31.23.413,jersey_experiment_5_v0,2023.2.2,Win32,85.47008547,,,,,,,,,,,,,,,,452.0595,453.103,453.103,454.9266,return,0.1334,,74.08854167,,,,,,FBP-YG-71.png,0.4,1.2,18,0.25,0,52,52,17,1,,,,,,,,,,,,,,,,,,,,,,,,,,,,,,,,,,,,,,,,
,,,,,SRP24_031,21,Male,2024-04-10_15h31.23.413,jersey_experiment_5_v0,2023.2.2,Win32,85.47008547,,,,,,,,,,,,,,,,454.9269,456.2209,456.2209,457.7268,return,0.1906,,73.95833333,,,,,,FBP-OG-18.png,0.43,1.2,9,0.5,0,53,53,8,1,,,,,,,,,,,,,,,,,,,,,,,,,,,,,,,,,,,,,,,,
,,,,,SRP24_031,21,Male,2024-04-10_15h31.23.413,jersey_experiment_5_v0,2023.2.2,Win32,85.47008547,,,,,,,,,,,,,,,,457.727,458.7737,458.7738,460.0128,return,0.1654,,73.69791667,,,,,,FBP-YG-81.png,0.45,1.2,25,0.25,0,54,54,24,1,,,,,,,,,,,,,,,,,,,,,,,,,,,,,,,,,,,,,,,,
,,,,,SRP24_031,21,Male,2024-04-10_15h31.23.413,jersey_experiment_5_v0,2023.2.2,Win32,85.47008547,,,,,,,,,,,,,,,,460.0131,461.0563,461.0563,462.5541,return,0.7063,,74.609375,,,,,,FBP-YG-81.png,0.43,1.2,24,0.25,0,55,55,23,1,,,,,,,,,,,,,,,,,,,,,,,,,,,,,,,,,,,,,,,,
,,,,,SRP24_031,21,Male,2024-04-10_15h31.23.413,jersey_experiment_5_v0,2023.2.2,Win32,85.47008547,,,,,,,,,,,,,,,,462.5542,463.5975,463.5975,464.7505,return,0.1085,,82.8125,,,,,,FBP-YG-71.png,0.45,1.2,20,0.25,0,56,56,19,1,,,,,,,,,,,,,,,,,,,,,,,,,,,,,,,,,,,,,,,,
,,,,,SRP24_031,21,Male,2024-04-10_15h31.23.413,jersey_experiment_5_v0,2023.2.2,Win32,85.47008547,,,,,,,,,,,,,,,,464.7508,465.8008,465.8008,467.3741,return,0.4869,,94.40104167,,,,,,FBP-PT-91.png,0.45,1.2,60,0.25,0,57,57,59,1,,,,,,,,,,,,,,,,,,,,,,,,,,,,,,,,,,,,,,,,
,,,,,SRP24_031,21,Male,2024-04-10_15h31.23.413,jersey_experiment_5_v0,2023.2.2,Win32,85.47008547,,,,,,,,,,,,,,,,467.3743,468.4211,468.4212,470.813,return,0.8579,,44.27083333,,,,,,FBP-PT-71.png,0.37,1.2,47,0.25,0,58,58,46,1,,,,,,,,,,,,,,,,,,,,,,,,,,,,,,,,,,,,,,,,
,,,,,SRP24_031,21,Male,2024-04-10_15h31.23.413,jersey_experiment_5_v0,2023.2.2,Win32,85.47008547,,,,,,,,,,,,,,,,470.8133,472.1154,472.1155,475.3391,return,0.1486,,29.16666667,,,,,,FBP-RB-81.png,0.35,1.2,36,0.5,0,59,59,35,1,,,,,,,,,,,,,,,,,,,,,,,,,,,,,,,,,,,,,,,,
,,,,,SRP24_031,21,Male,2024-04-10_15h31.23.413,jersey_experiment_5_v0,2023.2.2,Win32,85.47008547,,,,,,,,,,,,,,,,,,,,,,,,,,,,,,,,,,,,,,,475.3394,595.3317,,,,,,,,,,,,,,,,,,,,,,,,,,,,,,,,,,,,,,
,,,,,SRP24_031,21,Male,2024-04-10_15h31.23.413,jersey_experiment_5_v0,2023.2.2,Win32,85.47008547,,,,,,,,,,,,,,,,,,,,,,,,,,,,,,,,,,,,,,,,,595.3317,597.061,return,1.705,,,,,,,,,,,,,,,,,,,,,,,,,,,,,,,,,,
,,,,,SRP24_031,21,Male,2024-04-10_15h31.23.413,jersey_experiment_5_v0,2023.2.2,Win32,85.47008547,,,,,,,,,,,,,,,,597.0673,598.3596,598.3596,601.9792,return,0.8117,,41.015625,,,,,,FBP-YG-19.png,0.37,1.2,27,0.5,,,,,,,,,,,,,0,0,0,26,1,,,,,,,,,,,,,,,,,,,,,,,,,,,,
,,,,,SRP24_031,21,Male,2024-04-10_15h31.23.413,jersey_experiment_5_v0,2023.2.2,Win32,85.47008547,,,,,,,,,,,,,,,,601.9794,603.0264,603.0264,606.1247,return,1.7182,,70.83333333,,,,,,FBP-OG-91.png,0.4,1.2,13,0.25,,,,,,,,,,,,,0,1,1,12,1,,,,,,,,,,,,,,,,,,,,,,,,,,,,
,,,,,SRP24_031,21,Male,2024-04-10_15h31.23.413,jersey_experiment_5_v0,2023.2.2,Win32,85.47008547,,,,,,,,,,,,,,,,606.1249,607.4289,607.4289,609.8529,return,0.094,,57.68229167,,,,,,FBP-YG-17.png,0.37,1.2,17,0.5,,,,,,,,,,,,,0,2,2,16,1,,,,,,,,,,,,,,,,,,,,,,,,,,,,
,,,,,SRP24_031,21,Male,2024-04-10_15h31.23.413,jersey_experiment_5_v0,2023.2.2,Win32,85.47008547,,,,,,,,,,,,,,,,609.8531,611.1602,611.1602,612.1438,return,0.1433,,75.13020833,,,,,,FBP-PT-17.png,0.4,1.2,48,0.5,,,,,,,,,,,,,0,3,3,47,1,,,,,,,,,,,,,,,,,,,,,,,,,,,,
,,,,,SRP24_031,21,Male,2024-04-10_15h31.23.413,jersey_experiment_5_v0,2023.2.2,Win32,85.47008547,,,,,,,,,,,,,,,,612.1439,613.1909,613.191,614.2851,return,0.3816,,75.13020833,,,,,,FBP-OG-91.png,0.43,1.2,14,0.25,,,,,,,,,,,,,0,4,4,13,1,,,,,,,,,,,,,,,,,,,,,,,,,,,,
,,,,,SRP24_031,21,Male,2024-04-10_15h31.23.413,jersey_experiment_5_v0,2023.2.2,Win32,85.47008547,,,,,,,,,,,,,,,,614.2853,615.3321,615.3322,616.6497,return,0.5849,,75.13020833,,,,,,FBP-OG-71.png,0.43,1.2,4,0.25,,,,,,,,,,,,,0,5,5,3,1,,,,,,,,,,,,,,,,,,,,,,,,,,,,
,,,,,SRP24_031,21,Male,2024-04-10_15h31.23.413,jersey_experiment_5_v0,2023.2.2,Win32,85.47008547,,,,,,,,,,,,,,,,616.6499,617.6969,617.697,619.3018,return,0.4239,,63.80208333,,,,,,FBP-RB-19.png,0.35,1.2,41,0.25,,,,,,,,,,,,,0,6,6,40,1,,,,,,,,,,,,,,,,,,,,,,,,,,,,
,,,,,SRP24_031,21,Male,2024-04-10_15h31.23.413,jersey_experiment_5_v0,2023.2.2,Win32,85.47008547,,,,,,,,,,,,,,,,619.3019,620.3441,620.3441,621.7088,return,0.1215,,71.74479167,,,,,,FBP-OG-71.png,0.37,1.2,2,0.25,,,,,,,,,,,,,0,7,7,1,1,,,,,,,,,,,,,,,,,,,,,,,,,,,,
,,,,,SRP24_031,21,Male,2024-04-10_15h31.23.413,jersey_experiment_5_v0,2023.2.2,Win32,85.47008547,,,,,,,,,,,,,,,,621.7089,623.003,623.003,624.2031,return,0.0426,,77.99479167,,,,,,FBP-YG-19.png,0.4,1.2,28,0.5,,,,,,,,,,,,,0,8,8,27,1,,,,,,,,,,,,,,,,,,,,,,,,,,,,
,,,,,SRP24_031,21,Male,2024-04-10_15h31.23.413,jersey_experiment_5_v0,2023.2.2,Win32,85.47008547,,,,,,,,,,,,,,,,624.2033,625.2501,625.2501,627.3359,return,0.4471,,77.47395833,,,,,,FBP-OG-71.png,0.4,1.2,3,0.25,,,,,,,,,,,,,0,9,9,2,1,,,,,,,,,,,,,,,,,,,,,,,,,,,,
,,,,,SRP24_031,21,Male,2024-04-10_15h31.23.413,jersey_experiment_5_v0,2023.2.2,Win32,85.47008547,,,,,,,,,,,,,,,,627.3361,628.63,628.63,631.2081,return,0.3061,,69.79166667,,,,,,FBP-PT-17.png,0.37,1.2,47,0.5,,,,,,,,,,,,,0,10,10,46,1,,,,,,,,,,,,,,,,,,,,,,,,,,,,
,,,,,SRP24_031,21,Male,2024-04-10_15h31.23.413,jersey_experiment_5_v0,2023.2.2,Win32,85.47008547,,,,,,,,,,,,,,,,631.2083,632.5092,632.5092,633.4034,return,0.1938,,82.68229167,,,,,,FBP-YG-19.png,0.43,1.2,29,0.5,,,,,,,,,,,,,0,11,11,28,1,,,,,,,,,,,,,,,,,,,,,,,,,,,,
,,,,,SRP24_031,21,Male,2024-04-10_15h31.23.413,jersey_experiment_5_v0,2023.2.2,Win32,85.47008547,,,,,,,,,,,,,,,,633.4036,634.4505,634.4505,635.6739,return,0.0552,,86.84895833,,,,,,FBP-OG-81.png,0.43,1.2,9,0.25,,,,,,,,,,,,,0,12,12,8,1,,,,,,,,,,,,,,,,,,,,,,,,,,,,
,,,,,SRP24_031,21,Male,2024-04-10_15h31.23.413,jersey_experiment_5_v0,2023.2.2,Win32,85.47008547,,,,,,,,,,,,,,,,635.6741,636.9682,636.9682,638.0656,return,0.1414,,58.46354167,,,,,,FBP-YG-17.png,0.4,1.2,18,0.5,,,,,,,,,,,,,0,13,13,17,1,,,,,,,,,,,,,,,,,,,,,,,,,,,,
,,,,,SRP24_031,21,Male,2024-04-10_15h31.23.413,jersey_experiment_5_v0,2023.2.2,Win32,85.47008547,,,,,,,,,,,,,,,,638.0658,639.3682,639.3682,640.286,return,0.1218,,45.44270833,,,,,,FBP-PT-19.png,0.35,1.2,56,0.5,,,,,,,,,,,,,0,14,14,55,1,,,,,,,,,,,,,,,,,,,,,,,,,,,,
,,,,,SRP24_031,21,Male,2024-04-10_15h31.23.413,jersey_experiment_5_v0,2023.2.2,Win32,85.47008547,,,,,,,,,,,,,,,,640.2862,641.333,641.333,642.5599,return,0.1046,,58.07291667,,,,,,FBP-RB-17.png,0.37,1.2,32,0.25,,,,,,,,,,,,,0,15,15,31,1,,,,,,,,,,,,,,,,,,,,,,,,,,,,
,,,,,SRP24_031,21,Male,2024-04-10_15h31.23.413,jersey_experiment_5_v0,2023.2.2,Win32,85.47008547,,,,,,,,,,,,,,,,642.5601,643.8544,643.8545,644.6674,return,0.118,,69.921875,,,,,,FBP-PT-18.png,0.4,1.2,53,0.5,,,,,,,,,,,,,0,16,16,52,1,,,,,,,,,,,,,,,,,,,,,,,,,,,,
,,,,,SRP24_031,21,Male,2024-04-10_15h31.23.413,jersey_experiment_5_v0,2023.2.2,Win32,85.47008547,,,,,,,,,,,,,,,,644.6676,645.9685,645.9686,646.9097,return,0.134,,77.21354167,,,,,,FBP-PT-19.png,0.37,1.2,57,0.5,,,,,,,,,,,,,0,17,17,56,1,,,,,,,,,,,,,,,,,,,,,,,,,,,,
,,,,,SRP24_031,21,Male,2024-04-10_15h31.23.413,jersey_experiment_5_v0,2023.2.2,Win32,85.47008547,,,,,,,,,,,,,,,,646.9099,647.9567,647.9567,648.9603,return,0.1417,,87.36979167,,,,,,FBP-RB-17.png,0.43,1.2,34,0.25,,,,,,,,,,,,,0,18,18,33,1,,,,,,,,,,,,,,,,,,,,,,,,,,,,
,,,,,SRP24_031,21,Male,2024-04-10_15h31.23.413,jersey_experiment_5_v0,2023.2.2,Win32,85.47008547,,,,,,,,,,,,,,,,648.9605,650.2674,650.2674,650.9922,return,0.096,,90.75520833,,,,,,FBP-YG-17.png,0.43,1.2,19,0.5,,,,,,,,,,,,,0,19,19,18,1,,,,,,,,,,,,,,,,,,,,,,,,,,,,
,,,,,SRP24_031,21,Male,2024-04-10_15h31.23.413,jersey_experiment_5_v0,2023.2.2,Win32,85.47008547,,,,,,,,,,,,,,,,650.9924,652.2908,652.2908,652.7616,return,0.0943,,91.92708333,,,,,,FBP-PT-19.png,0.43,1.2,59,0.5,,,,,,,,,,,,,0,20,20,58,1,,,,,,,,,,,,,,,,,,,,,,,,,,,,
,,,,,SRP24_031,21,Male,2024-04-10_15h31.23.413,jersey_experiment_5_v0,2023.2.2,Win32,85.47008547,,,,,,,,,,,,,,,,652.7619,653.804,653.8041,655.6747,return,0.1719,,41.015625,,,,,,FBP-RB-19.png,0.37,1.2,42,0.25,,,,,,,,,,,,,0,21,21,41,1,,,,,,,,,,,,,,,,,,,,,,,,,,,,
,,,,,SRP24_031,21,Male,2024-04-10_15h31.23.413,jersey_experiment_5_v0,2023.2.2,Win32,85.47008547,,,,,,,,,,,,,,,,655.675,656.9689,656.9689,658.4277,return,0.2418,,82.421875,,,,,,FBP-YG-18.png,0.43,1.2,24,0.5,,,,,,,,,,,,,0,22,22,23,1,,,,,,,,,,,,,,,,,,,,,,,,,,,,
,,,,,SRP24_031,21,Male,2024-04-10_15h31.23.413,jersey_experiment_5_v0,2023.2.2,Win32,85.47008547,,,,,,,,,,,,,,,,658.4279,659.4748,659.4749,661.1488,return,0.2933,,62.109375,,,,,,FBP-RB-18.png,0.37,1.2,37,0.25,,,,,,,,,,,,,0,23,23,36,1,,,,,,,,,,,,,,,,,,,,,,,,,,,,
,,,,,SRP24_031,21,Male,2024-04-10_15h31.23.413,jersey_experiment_5_v0,2023.2.2,Win32,85.47008547,,,,,,,,,,,,,,,,661.149,662.1971,662.1971,663.4913,return,0.2249,,81.77083333,,,,,,FBP-RB-18.png,0.43,1.2,39,0.25,,,,,,,,,,,,,0,24,24,38,1,,,,,,,,,,,,,,,,,,,,,,,,,,,,
,,,,,SRP24_031,21,Male,2024-04-10_15h31.23.413,jersey_experiment_5_v0,2023.2.2,Win32,85.47008547,,,,,,,,,,,,,,,,663.4915,664.5337,664.5337,665.9726,return,0.1179,,75.13020833,,,,,,FBP-OG-91.png,0.37,1.2,12,0.25,,,,,,,,,,,,,0,25,25,11,1,,,,,,,,,,,,,,,,,,,,,,,,,,,,
,,,,,SRP24_031,21,Male,2024-04-10_15h31.23.413,jersey_experiment_5_v0,2023.2.2,Win32,85.47008547,,,,,,,,,,,,,,,,665.9728,667.0209,667.0209,669.361,return,0.0945,,42.31770833,,,,,,FBP-OG-81.png,0.35,1.2,6,0.25,,,,,,,,,,,,,0,26,26,5,1,,,,,,,,,,,,,,,,,,,,,,,,,,,,
,,,,,SRP24_031,21,Male,2024-04-10_15h31.23.413,jersey_experiment_5_v0,2023.2.2,Win32,85.47008547,,,,,,,,,,,,,,,,669.3612,670.4046,670.4047,671.8081,return,0.1415,,82.94270833,,,,,,FBP-OG-91.png,0.45,1.2,15,0.25,,,,,,,,,,,,,0,27,27,14,1,,,,,,,,,,,,,,,,,,,,,,,,,,,,
,,,,,SRP24_031,21,Male,2024-04-10_15h31.23.413,jersey_experiment_5_v0,2023.2.2,Win32,85.47008547,,,,,,,,,,,,,,,,671.8081,672.8564,672.8564,674.4202,return,0.152,,38.41145833,,,,,,FBP-OG-81.png,0.37,1.2,7,0.25,,,,,,,,,,,,,0,28,28,6,1,,,,,,,,,,,,,,,,,,,,,,,,,,,,
,,,,,SRP24_031,21,Male,2024-04-10_15h31.23.413,jersey_experiment_5_v0,2023.2.2,Win32,85.47008547,,,,,,,,,,,,,,,,674.4204,675.4636,675.4637,678.5273,return,0.1415,,71.484375,,,,,,FBP-RB-19.png,0.4,1.2,43,0.25,,,,,,,,,,,,,0,29,29,42,1,,,,,,,,,,,,,,,,,,,,,,,,,,,,
,,,,,SRP24_031,21,Male,2024-04-10_15h31.23.413,jersey_experiment_5_v0,2023.2.2,Win32,85.47008547,,,,,,,,,,,,,,,,678.5275,679.5697,679.5697,680.3861,return,0.0473,,85.28645833,,,,,,FBP-RB-19.png,0.43,1.2,44,0.25,,,,,,,,,,,,,0,30,30,43,1,,,,,,,,,,,,,,,,,,,,,,,,,,,,
,,,,,SRP24_031,21,Male,2024-04-10_15h31.23.413,jersey_experiment_5_v0,2023.2.2,Win32,85.47008547,,,,,,,,,,,,,,,,680.3862,681.6804,681.6804,682.8808,return,0.1549,,35.15625,,,,,,FBP-YG-18.png,0.37,1.2,22,0.5,,,,,,,,,,,,,0,31,31,21,1,,,,,,,,,,,,,,,,,,,,,,,,,,,,
,,,,,SRP24_031,21,Male,2024-04-10_15h31.23.413,jersey_experiment_5_v0,2023.2.2,Win32,85.47008547,,,,,,,,,,,,,,,,682.881,683.9227,683.9227,685.2287,return,0.0997,,91.14583333,,,,,,FBP-OG-71.png,0.45,1.2,5,0.25,,,,,,,,,,,,,0,32,32,4,1,,,,,,,,,,,,,,,,,,,,,,,,,,,,
,,,,,SRP24_031,21,Male,2024-04-10_15h31.23.413,jersey_experiment_5_v0,2023.2.2,Win32,85.47008547,,,,,,,,,,,,,,,,685.2288,686.2793,686.2793,688.0205,return,0.4709,,37.63020833,,,,,,FBP-RB-18.png,0.35,1.2,36,0.25,,,,,,,,,,,,,0,33,33,35,1,,,,,,,,,,,,,,,,,,,,,,,,,,,,
,,,,,SRP24_031,21,Male,2024-04-10_15h31.23.413,jersey_experiment_5_v0,2023.2.2,Win32,85.47008547,,,,,,,,,,,,,,,,688.0206,689.0641,689.0641,691.2335,return,0.578,,86.97916667,,,,,,FBP-OG-81.png,0.45,1.2,10,0.25,,,,,,,,,,,,,0,34,34,9,1,,,,,,,,,,,,,,,,,,,,,,,,,,,,
,,,,,SRP24_031,21,Male,2024-04-10_15h31.23.413,jersey_experiment_5_v0,2023.2.2,Win32,85.47008547,,,,,,,,,,,,,,,,691.2337,692.5275,692.5276,694.0445,return,0.1414,,11.328125,,,,,,FBP-PT-17.png,0.35,1.2,46,0.5,,,,,,,,,,,,,0,35,35,45,1,,,,,,,,,,,,,,,,,,,,,,,,,,,,
,,,,,SRP24_031,21,Male,2024-04-10_15h31.23.413,jersey_experiment_5_v0,2023.2.2,Win32,85.47008547,,,,,,,,,,,,,,,,694.0447,695.0925,695.0925,697.0408,return,0.1899,,77.21354167,,,,,,FBP-RB-17.png,0.45,1.2,35,0.25,,,,,,,,,,,,,0,36,36,34,1,,,,,,,,,,,,,,,,,,,,,,,,,,,,
,,,,,SRP24_031,21,Male,2024-04-10_15h31.23.413,jersey_experiment_5_v0,2023.2.2,Win32,85.47008547,,,,,,,,,,,,,,,,697.0411,698.335,698.3351,699.4408,return,0.1194,,24.34895833,,,,,,FBP-PT-18.png,0.35,1.2,51,0.5,,,,,,,,,,,,,0,37,37,50,1,,,,,,,,,,,,,,,,,,,,,,,,,,,,
,,,,,SRP24_031,21,Male,2024-04-10_15h31.23.413,jersey_experiment_5_v0,2023.2.2,Win32,85.47008547,,,,,,,,,,,,,,,,699.4411,700.7394,700.7394,702.0917,return,0.317,,36.19791667,,,,,,FBP-YG-18.png,0.35,1.2,21,0.5,,,,,,,,,,,,,0,38,38,20,1,,,,,,,,,,,,,,,,,,,,,,,,,,,,
,,,,,SRP24_031,21,Male,2024-04-10_15h31.23.413,jersey_experiment_5_v0,2023.2.2,Win32,85.47008547,,,,,,,,,,,,,,,,702.0919,703.1394,703.1394,704.5117,return,0.2731,,62.23958333,,,,,,FBP-RB-17.png,0.4,1.2,33,0.25,,,,,,,,,,,,,0,39,39,32,1,,,,,,,,,,,,,,,,,,,,,,,,,,,,
,,,,,SRP24_031,21,Male,2024-04-10_15h31.23.413,jersey_experiment_5_v0,2023.2.2,Win32,85.47008547,,,,,,,,,,,,,,,,704.5119,705.8059,705.8059,707.5872,return,0.2247,,38.15104167,,,,,,FBP-YG-19.png,0.35,1.2,26,0.5,,,,,,,,,,,,,0,40,40,25,1,,,,,,,,,,,,,,,,,,,,,,,,,,,,
,,,,,SRP24_031,21,Male,2024-04-10_15h31.23.413,jersey_experiment_5_v0,2023.2.2,Win32,85.47008547,,,,,,,,,,,,,,,,707.5873,708.8883,708.8883,710.1152,return,0.3061,,81.11979167,,,,,,FBP-YG-17.png,0.45,1.2,20,0.5,,,,,,,,,,,,,0,41,41,19,1,,,,,,,,,,,,,,,,,,,,,,,,,,,,
,,,,,SRP24_031,21,Male,2024-04-10_15h31.23.413,jersey_experiment_5_v0,2023.2.2,Win32,85.47008547,,,,,,,,,,,,,,,,710.1154,711.159,711.159,712.2532,return,0.158,,83.46354167,,,,,,FBP-RB-19.png,0.45,1.2,45,0.25,,,,,,,,,,,,,0,42,42,44,1,,,,,,,,,,,,,,,,,,,,,,,,,,,,
,,,,,SRP24_031,21,Male,2024-04-10_15h31.23.413,jersey_experiment_5_v0,2023.2.2,Win32,85.47008547,,,,,,,,,,,,,,,,712.2534,713.5473,713.5474,714.5861,return,0.0945,,71.35416667,,,,,,FBP-YG-18.png,0.4,1.2,23,0.5,,,,,,,,,,,,,0,43,43,22,1,,,,,,,,,,,,,,,,,,,,,,,,,,,,
,,,,,SRP24_031,21,Male,2024-04-10_15h31.23.413,jersey_experiment_5_v0,2023.2.2,Win32,85.47008547,,,,,,,,,,,,,,,,714.5862,715.8934,715.8934,717.9711,return,0.0605,,75.390625,,,,,,FBP-PT-19.png,0.4,1.2,58,0.5,,,,,,,,,,,,,0,44,44,57,1,,,,,,,,,,,,,,,,,,,,,,,,,,,,
,,,,,SRP24_031,21,Male,2024-04-10_15h31.23.413,jersey_experiment_5_v0,2023.2.2,Win32,85.47008547,,,,,,,,,,,,,,,,717.9713,719.0222,719.0223,721.4888,return,0.1765,,41.27604167,,,,,,FBP-OG-71.png,0.35,1.2,1,0.25,,,,,,,,,,,,,0,45,45,0,1,,,,,,,,,,,,,,,,,,,,,,,,,,,,
,,,,,SRP24_031,21,Male,2024-04-10_15h31.23.413,jersey_experiment_5_v0,2023.2.2,Win32,85.47008547,,,,,,,,,,,,,,,,721.4891,722.7877,722.7878,724.2065,return,0.4388,,75.65104167,,,,,,FBP-YG-19.png,0.45,1.2,30,0.5,,,,,,,,,,,,,0,46,46,29,1,,,,,,,,,,,,,,,,,,,,,,,,,,,,
,,,,,SRP24_031,21,Male,2024-04-10_15h31.23.413,jersey_experiment_5_v0,2023.2.2,Win32,85.47008547,,,,,,,,,,,,,,,,724.2068,725.2536,725.2536,725.9987,return,0.0478,,75.390625,,,,,,FBP-RB-18.png,0.45,1.2,40,0.25,,,,,,,,,,,,,0,47,47,39,1,,,,,,,,,,,,,,,,,,,,,,,,,,,,
,,,,,SRP24_031,21,Male,2024-04-10_15h31.23.413,jersey_experiment_5_v0,2023.2.2,Win32,85.47008547,,,,,,,,,,,,,,,,725.9988,727.0418,727.0418,728.3714,return,0.0943,,36.06770833,,,,,,FBP-RB-17.png,0.35,1.2,31,0.25,,,,,,,,,,,,,0,48,48,30,1,,,,,,,,,,,,,,,,,,,,,,,,,,,,
,,,,,SRP24_031,21,Male,2024-04-10_15h31.23.413,jersey_experiment_5_v0,2023.2.2,Win32,85.47008547,,,,,,,,,,,,,,,,728.3716,729.6653,729.6654,730.8454,return,0.4106,,37.109375,,,,,,FBP-YG-17.png,0.35,1.2,16,0.5,,,,,,,,,,,,,0,49,49,15,1,,,,,,,,,,,,,,,,,,,,,,,,,,,,
,,,,,SRP24_031,21,Male,2024-04-10_15h31.23.413,jersey_experiment_5_v0,2023.2.2,Win32,85.47008547,,,,,,,,,,,,,,,,730.8456,732.14,732.14,733.3058,return,0.165,,88.15104167,,,,,,FBP-PT-17.png,0.45,1.2,50,0.5,,,,,,,,,,,,,0,50,50,49,1,,,,,,,,,,,,,,,,,,,,,,,,,,,,
,,,,,SRP24_031,21,Male,2024-04-10_15h31.23.413,jersey_experiment_5_v0,2023.2.2,Win32,85.47008547,,,,,,,,,,,,,,,,733.3059,734.5996,734.5997,735.6116,return,0.0839,,44.66145833,,,,,,FBP-PT-18.png,0.37,1.2,52,0.5,,,,,,,,,,,,,0,51,51,51,1,,,,,,,,,,,,,,,,,,,,,,,,,,,,
,,,,,SRP24_031,21,Male,2024-04-10_15h31.23.413,jersey_experiment_5_v0,2023.2.2,Win32,85.47008547,,,,,,,,,,,,,,,,735.6118,736.9127,736.9128,737.9882,return,0.1305,,74.08854167,,,,,,FBP-YG-18.png,0.45,1.2,25,0.5,,,,,,,,,,,,,0,52,52,24,1,,,,,,,,,,,,,,,,,,,,,,,,,,,,
,,,,,SRP24_031,21,Male,2024-04-10_15h31.23.413,jersey_experiment_5_v0,2023.2.2,Win32,85.47008547,,,,,,,,,,,,,,,,737.9884,739.2894,739.2894,740.6894,return,0.0815,,69.66145833,,,,,,FBP-PT-18.png,0.43,1.2,54,0.5,,,,,,,,,,,,,0,53,53,53,1,,,,,,,,,,,,,,,,,,,,,,,,,,,,
,,,,,SRP24_031,21,Male,2024-04-10_15h31.23.413,jersey_experiment_5_v0,2023.2.2,Win32,85.47008547,,,,,,,,,,,,,,,,740.6896,741.9882,741.9882,742.9296,return,0.1415,,76.43229167,,,,,,FBP-PT-17.png,0.43,1.2,49,0.5,,,,,,,,,,,,,0,54,54,48,1,,,,,,,,,,,,,,,,,,,,,,,,,,,,
,,,,,SRP24_031,21,Male,2024-04-10_15h31.23.413,jersey_experiment_5_v0,2023.2.2,Win32,85.47008547,,,,,,,,,,,,,,,,742.9298,743.9718,743.9718,745.0813,return,0.0946,,38.28125,,,,,,FBP-OG-91.png,0.35,1.2,11,0.25,,,,,,,,,,,,,0,55,55,10,1,,,,,,,,,,,,,,,,,,,,,,,,,,,,
,,,,,SRP24_031,21,Male,2024-04-10_15h31.23.413,jersey_experiment_5_v0,2023.2.2,Win32,85.47008547,,,,,,,,,,,,,,,,745.0816,746.1296,746.1296,747.824,return,0.3534,,63.671875,,,,,,FBP-RB-18.png,0.4,1.2,38,0.25,,,,,,,,,,,,,0,56,56,37,1,,,,,,,,,,,,,,,,,,,,,,,,,,,,
,,,,,SRP24_031,21,Male,2024-04-10_15h31.23.413,jersey_experiment_5_v0,2023.2.2,Win32,85.47008547,,,,,,,,,,,,,,,,747.8241,749.1281,749.1281,750.564,return,0.1183,,70.703125,,,,,,FBP-PT-19.png,0.45,1.2,60,0.5,,,,,,,,,,,,,0,57,57,59,1,,,,,,,,,,,,,,,,,,,,,,,,,,,,
,,,,,SRP24_031,21,Male,2024-04-10_15h31.23.413,jersey_experiment_5_v0,2023.2.2,Win32,85.47008547,,,,,,,,,,,,,,,,750.5642,751.8662,751.8663,753.6698,return,0.6827,,38.93229167,,,,,,FBP-PT-18.png,0.45,1.2,55,0.5,,,,,,,,,,,,,0,58,58,54,1,,,,,,,,,,,,,,,,,,,,,,,,,,,,
,,,,,SRP24_031,21,Male,2024-04-10_15h31.23.413,jersey_experiment_5_v0,2023.2.2,Win32,85.47008547,,,,,,,,,,,,,,,,753.67,754.7134,754.7134,756.0359,return,0.1178,,43.359375,,,,,,FBP-OG-81.png,0.4,1.2,8,0.25,,,,,,,,,,,,,0,59,59,7,1,,,,,,,,,,,,,,,,,,,,,,,,,,,,
,,,,,SRP24_031,21,Male,2024-04-10_15h31.23.413,jersey_experiment_5_v0,2023.2.2,Win32,85.47008547,,,,,,,,,,,,,,,,756.0371,757.0947,757.0947,758.2112,return,0.118,,34.50520833,,,,,,FBP-RB-81.png,0.37,1.2,37,0.25,,,,,,,,,,,,,,,,,,0,0,0,36,1,,,,,,,,,,,,,,,,,,,,,,,
,,,,,SRP24_031,21,Male,2024-04-10_15h31.23.413,jersey_experiment_5_v0,2023.2.2,Win32,85.47008547,,,,,,,,,,,,,,,,758.2113,759.2548,759.2548,760.9302,return,0.131,,37.5,,,,,,FBP-OG-17.png,0.4,1.2,3,0.25,,,,,,,,,,,,,,,,,,0,1,1,2,1,,,,,,,,,,,,,,,,,,,,,,,
,,,,,SRP24_031,21,Male,2024-04-10_15h31.23.413,jersey_experiment_5_v0,2023.2.2,Win32,85.47008547,,,,,,,,,,,,,,,,760.9303,761.9755,761.9756,763.095,return,0.1649,,36.06770833,,,,,,FBP-OG-19.png,0.4,1.2,13,0.25,,,,,,,,,,,,,,,,,,0,2,2,12,1,,,,,,,,,,,,,,,,,,,,,,,
,,,,,SRP24_031,21,Male,2024-04-10_15h31.23.413,jersey_experiment_5_v0,2023.2.2,Win32,85.47008547,,,,,,,,,,,,,,,,763.0952,764.1373,764.1373,765.3304,return,0.0945,,49.86979167,,,,,,FBP-RB-91.png,0.45,1.2,45,0.25,,,,,,,,,,,,,,,,,,0,3,3,44,1,,,,,,,,,,,,,,,,,,,,,,,
,,,,,SRP24_031,21,Male,2024-04-10_15h31.23.413,jersey_experiment_5_v0,2023.2.2,Win32,85.47008547,,,,,,,,,,,,,,,,765.3305,766.6349,766.6349,767.7775,return,0.5312,,68.22916667,,,,,,FBP-PT-91.png,0.45,1.2,60,0.5,,,,,,,,,,,,,,,,,,0,4,4,59,1,,,,,,,,,,,,,,,,,,,,,,,
,,,,,SRP24_031,21,Male,2024-04-10_15h31.23.413,jersey_experiment_5_v0,2023.2.2,Win32,85.47008547,,,,,,,,,,,,,,,,767.7776,769.082,769.082,769.9022,return,0.1097,,41.796875,,,,,,FBP-YG-71.png,0.4,1.2,18,0.5,,,,,,,,,,,,,,,,,,0,5,5,17,1,,,,,,,,,,,,,,,,,,,,,,,
,,,,,SRP24_031,21,Male,2024-04-10_15h31.23.413,jersey_experiment_5_v0,2023.2.2,Win32,85.47008547,,,,,,,,,,,,,,,,769.9025,771.1965,771.1965,772.0433,return,0.1229,,36.06770833,,,,,,FBP-YG-81.png,0.4,1.2,23,0.5,,,,,,,,,,,,,,,,,,0,6,6,22,1,,,,,,,,,,,,,,,,,,,,,,,
,,,,,SRP24_031,21,Male,2024-04-10_15h31.23.413,jersey_experiment_5_v0,2023.2.2,Win32,85.47008547,,,,,,,,,,,,,,,,772.0435,773.3409,773.3409,774.4318,return,0.1198,,24.609375,,,,,,FBP-YG-71.png,0.35,1.2,16,0.5,,,,,,,,,,,,,,,,,,0,7,7,15,1,,,,,,,,,,,,,,,,,,,,,,,
,,,,,SRP24_031,21,Male,2024-04-10_15h31.23.413,jersey_experiment_5_v0,2023.2.2,Win32,85.47008547,,,,,,,,,,,,,,,,774.432,775.7258,775.7259,776.4942,return,0.0945,,24.08854167,,,,,,FBP-PT-91.png,0.37,1.2,57,0.5,,,,,,,,,,,,,,,,,,0,8,8,56,1,,,,,,,,,,,,,,,,,,,,,,,
,,,,,SRP24_031,21,Male,2024-04-10_15h31.23.413,jersey_experiment_5_v0,2023.2.2,Win32,85.47008547,,,,,,,,,,,,,,,,776.4942,777.7966,777.7966,781.5026,return,0.2736,,39.97395833,,,,,,FBP-YG-71.png,0.45,1.2,20,0.5,,,,,,,,,,,,,,,,,,0,9,9,19,1,,,,,,,,,,,,,,,,,,,,,,,
,,,,,SRP24_031,21,Male,2024-04-10_15h31.23.413,jersey_experiment_5_v0,2023.2.2,Win32,85.47008547,,,,,,,,,,,,,,,,781.5027,782.5496,782.5497,785.9663,return,1.8355,,37.23958333,,,,,,FBP-OG-17.png,0.37,1.2,2,0.25,,,,,,,,,,,,,,,,,,0,10,10,1,1,,,,,,,,,,,,,,,,,,,,,,,
,,,,,SRP24_031,21,Male,2024-04-10_15h31.23.413,jersey_experiment_5_v0,2023.2.2,Win32,85.47008547,,,,,,,,,,,,,,,,785.9665,787.2707,787.2707,789.5299,return,0.3298,,24.73958333,,,,,,FBP-PT-81.png,0.35,1.2,51,0.5,,,,,,,,,,,,,,,,,,0,11,11,50,1,,,,,,,,,,,,,,,,,,,,,,,
,,,,,SRP24_031,21,Male,2024-04-10_15h31.23.413,jersey_experiment_5_v0,2023.2.2,Win32,85.47008547,,,,,,,,,,,,,,,,789.5301,790.5735,790.5736,793.6375,return,0.3061,,25.52083333,,,,,,FBP-RB-71.png,0.37,1.2,32,0.25,,,,,,,,,,,,,,,,,,0,12,12,31,1,,,,,,,,,,,,,,,,,,,,,,,
,,,,,SRP24_031,21,Male,2024-04-10_15h31.23.413,jersey_experiment_5_v0,2023.2.2,Win32,85.47008547,,,,,,,,,,,,,,,,793.6377,794.9419,794.9419,796.6963,return,0.2958,,19.921875,,,,,,FBP-PT-71.png,0.35,1.2,46,0.5,,,,,,,,,,,,,,,,,,0,13,13,45,1,,,,,,,,,,,,,,,,,,,,,,,
,,,,,SRP24_031,21,Male,2024-04-10_15h31.23.413,jersey_experiment_5_v0,2023.2.2,Win32,85.47008547,,,,,,,,,,,,,,,,796.6964,797.9902,797.9902,799.6138,return,0.484,,24.73958333,,,,,,FBP-PT-71.png,0.4,1.2,48,0.5,,,,,,,,,,,,,,,,,,0,14,14,47,1,,,,,,,,,,,,,,,,,,,,,,,
,,,,,SRP24_031,21,Male,2024-04-10_15h31.23.413,jersey_experiment_5_v0,2023.2.2,Win32,85.47008547,,,,,,,,,,,,,,,,799.614,800.9078,800.9079,802.668,return,0.4296,,61.45833333,,,,,,FBP-YG-91.png,0.45,1.2,30,0.5,,,,,,,,,,,,,,,,,,0,15,15,29,1,,,,,,,,,,,,,,,,,,,,,,,
,,,,,SRP24_031,21,Male,2024-04-10_15h31.23.413,jersey_experiment_5_v0,2023.2.2,Win32,85.47008547,,,,,,,,,,,,,,,,802.6682,803.9622,803.9622,805.1776,return,0.1182,,49.86979167,,,,,,FBP-YG-81.png,0.43,1.2,24,0.5,,,,,,,,,,,,,,,,,,0,16,16,23,1,,,,,,,,,,,,,,,,,,,,,,,
,,,,,SRP24_031,21,Male,2024-04-10_15h31.23.413,jersey_experiment_5_v0,2023.2.2,Win32,85.47008547,,,,,,,,,,,,,,,,805.1778,806.2257,806.2257,808.2024,return,0.0607,,49.86979167,,,,,,FBP-OG-18.png,0.4,1.2,8,0.25,,,,,,,,,,,,,,,,,,0,17,17,7,1,,,,,,,,,,,,,,,,,,,,,,,
,,,,,SRP24_031,21,Male,2024-04-10_15h31.23.413,jersey_experiment_5_v0,2023.2.2,Win32,85.47008547,,,,,,,,,,,,,,,,808.2027,809.5036,809.5037,813.2614,return,0.0944,,55.59895833,,,,,,FBP-YG-81.png,0.45,1.2,25,0.5,,,,,,,,,,,,,,,,,,0,18,18,24,1,,,,,,,,,,,,,,,,,,,,,,,
,,,,,SRP24_031,21,Male,2024-04-10_15h31.23.413,jersey_experiment_5_v0,2023.2.2,Win32,85.47008547,,,,,,,,,,,,,,,,813.2615,814.5551,814.5552,816.1557,return,0.5179,,38.15104167,,,,,,FBP-PT-81.png,0.37,1.2,52,0.5,,,,,,,,,,,,,,,,,,0,19,19,51,1,,,,,,,,,,,,,,,,,,,,,,,
,,,,,SRP24_031,21,Male,2024-04-10_15h31.23.413,jersey_experiment_5_v0,2023.2.2,Win32,85.47008547,,,,,,,,,,,,,,,,816.1558,817.46,817.46,819.5309,return,0.0238,,37.23958333,,,,,,FBP-YG-71.png,0.37,1.2,17,0.5,,,,,,,,,,,,,,,,,,0,20,20,16,1,,,,,,,,,,,,,,,,,,,,,,,
,,,,,SRP24_031,21,Male,2024-04-10_15h31.23.413,jersey_experiment_5_v0,2023.2.2,Win32,85.47008547,,,,,,,,,,,,,,,,819.531,820.8247,820.8247,822.4803,return,0.59,,34.89583333,,,,,,FBP-YG-81.png,0.37,1.2,22,0.5,,,,,,,,,,,,,,,,,,0,21,21,21,1,,,,,,,,,,,,,,,,,,,,,,,
,,,,,SRP24_031,21,Male,2024-04-10_15h31.23.413,jersey_experiment_5_v0,2023.2.2,Win32,85.47008547,,,,,,,,,,,,,,,,822.4808,823.5277,823.5277,825.2099,return,0.2773,,34.89583333,,,,,,FBP-OG-19.png,0.43,1.2,14,0.25,,,,,,,,,,,,,,,,,,0,22,22,13,1,,,,,,,,,,,,,,,,,,,,,,,
,,,,,SRP24_031,21,Male,2024-04-10_15h31.23.413,jersey_experiment_5_v0,2023.2.2,Win32,85.47008547,,,,,,,,,,,,,,,,825.2101,826.2571,826.2572,827.869,return,0.1228,,75.78125,,,,,,FBP-OG-18.png,0.45,1.2,10,0.25,,,,,,,,,,,,,,,,,,0,23,23,9,1,,,,,,,,,,,,,,,,,,,,,,,
,,,,,SRP24_031,21,Male,2024-04-10_15h31.23.413,jersey_experiment_5_v0,2023.2.2,Win32,85.47008547,,,,,,,,,,,,,,,,827.8692,828.916,828.916,830.3548,return,0.2122,,35.02604167,,,,,,FBP-OG-17.png,0.35,1.2,1,0.25,,,,,,,,,,,,,,,,,,0,24,24,0,1,,,,,,,,,,,,,,,,,,,,,,,
,,,,,SRP24_031,21,Male,2024-04-10_15h31.23.413,jersey_experiment_5_v0,2023.2.2,Win32,85.47008547,,,,,,,,,,,,,,,,830.355,831.6573,831.6573,833.1784,return,0.0709,,27.47395833,,,,,,FBP-PT-81.png,0.4,1.2,53,0.5,,,,,,,,,,,,,,,,,,0,25,25,52,1,,,,,,,,,,,,,,,,,,,,,,,
,,,,,SRP24_031,21,Male,2024-04-10_15h31.23.413,jersey_experiment_5_v0,2023.2.2,Win32,85.47008547,,,,,,,,,,,,,,,,833.1785,834.222,834.2221,835.6621,return,0.2589,,25,,,,,,FBP-OG-19.png,0.35,1.2,11,0.25,,,,,,,,,,,,,,,,,,0,26,26,10,1,,,,,,,,,,,,,,,,,,,,,,,
,,,,,SRP24_031,21,Male,2024-04-10_15h31.23.413,jersey_experiment_5_v0,2023.2.2,Win32,85.47008547,,,,,,,,,,,,,,,,835.6622,836.9561,836.9561,838.5282,return,0.3077,,25,,,,,,FBP-PT-91.png,0.35,1.2,56,0.5,,,,,,,,,,,,,,,,,,0,27,27,55,1,,,,,,,,,,,,,,,,,,,,,,,
,,,,,SRP24_031,21,Male,2024-04-10_15h31.23.413,jersey_experiment_5_v0,2023.2.2,Win32,85.47008547,,,,,,,,,,,,,,,,838.5284,839.827,839.827,840.94,return,0.2059,,60.80729167,,,,,,FBP-PT-81.png,0.43,1.2,54,0.5,,,,,,,,,,,,,,,,,,0,28,28,53,1,,,,,,,,,,,,,,,,,,,,,,,
,,,,,SRP24_031,21,Male,2024-04-10_15h31.23.413,jersey_experiment_5_v0,2023.2.2,Win32,85.47008547,,,,,,,,,,,,,,,,840.9402,841.987,841.987,843.0505,return,0.0839,,66.27604167,,,,,,FBP-RB-91.png,0.43,1.2,44,0.25,,,,,,,,,,,,,,,,,,0,29,29,43,1,,,,,,,,,,,,,,,,,,,,,,,
,,,,,SRP24_031,21,Male,2024-04-10_15h31.23.413,jersey_experiment_5_v0,2023.2.2,Win32,85.47008547,,,,,,,,,,,,,,,,843.0506,844.0964,844.0965,845.4742,return,0.0947,,50.26041667,,,,,,FBP-RB-91.png,0.4,1.2,43,0.25,,,,,,,,,,,,,,,,,,0,30,30,42,1,,,,,,,,,,,,,,,,,,,,,,,
,,,,,SRP24_031,21,Male,2024-04-10_15h31.23.413,jersey_experiment_5_v0,2023.2.2,Win32,85.47008547,,,,,,,,,,,,,,,,845.4744,846.768,846.768,847.8039,return,0.2251,,75.13020833,,,,,,FBP-PT-71.png,0.45,1.2,50,0.5,,,,,,,,,,,,,,,,,,0,31,31,49,1,,,,,,,,,,,,,,,,,,,,,,,
,,,,,SRP24_031,21,Male,2024-04-10_15h31.23.413,jersey_experiment_5_v0,2023.2.2,Win32,85.47008547,,,,,,,,,,,,,,,,847.8041,848.8461,848.8461,850.439,return,0.2016,,49.34895833,,,,,,FBP-RB-91.png,0.37,1.2,42,0.25,,,,,,,,,,,,,,,,,,0,32,32,41,1,,,,,,,,,,,,,,,,,,,,,,,
,,,,,SRP24_031,21,Male,2024-04-10_15h31.23.413,jersey_experiment_5_v0,2023.2.2,Win32,85.47008547,,,,,,,,,,,,,,,,850.4392,851.4814,851.4815,852.5286,return,0.0248,,39.0625,,,,,,FBP-RB-81.png,0.35,1.2,36,0.25,,,,,,,,,,,,,,,,,,0,33,33,35,1,,,,,,,,,,,,,,,,,,,,,,,
,,,,,SRP24_031,21,Male,2024-04-10_15h31.23.413,jersey_experiment_5_v0,2023.2.2,Win32,85.47008547,,,,,,,,,,,,,,,,852.5289,853.8228,853.8228,855.4747,return,0.6593,,30.98958333,,,,,,FBP-YG-81.png,0.35,1.2,21,0.5,,,,,,,,,,,,,,,,,,0,34,34,20,1,,,,,,,,,,,,,,,,,,,,,,,
,,,,,SRP24_031,21,Male,2024-04-10_15h31.23.413,jersey_experiment_5_v0,2023.2.2,Win32,85.47008547,,,,,,,,,,,,,,,,855.4748,856.5201,856.5201,857.5795,return,0.0712,,26.04166667,,,,,,FBP-OG-18.png,0.35,1.2,6,0.25,,,,,,,,,,,,,,,,,,0,35,35,5,1,,,,,,,,,,,,,,,,,,,,,,,
,,,,,SRP24_031,21,Male,2024-04-10_15h31.23.413,jersey_experiment_5_v0,2023.2.2,Win32,85.47008547,,,,,,,,,,,,,,,,857.5797,858.6277,858.6277,860.1338,return,0.2254,,85.67708333,,,,,,FBP-RB-81.png,0.45,1.2,40,0.25,,,,,,,,,,,,,,,,,,0,36,36,39,1,,,,,,,,,,,,,,,,,,,,,,,
,,,,,SRP24_031,21,Male,2024-04-10_15h31.23.413,jersey_experiment_5_v0,2023.2.2,Win32,85.47008547,,,,,,,,,,,,,,,,860.1339,861.4381,861.4381,863.1558,return,0.3531,,38.15104167,,,,,,FBP-YG-91.png,0.35,1.2,26,0.5,,,,,,,,,,,,,,,,,,0,37,37,25,1,,,,,,,,,,,,,,,,,,,,,,,
,,,,,SRP24_031,21,Male,2024-04-10_15h31.23.413,jersey_experiment_5_v0,2023.2.2,Win32,85.47008547,,,,,,,,,,,,,,,,863.156,864.1997,864.1997,866.0267,return,0.5651,,73.69791667,,,,,,FBP-RB-81.png,0.4,1.2,38,0.25,,,,,,,,,,,,,,,,,,0,38,38,37,1,,,,,,,,,,,,,,,,,,,,,,,
,,,,,SRP24_031,21,Male,2024-04-10_15h31.23.413,jersey_experiment_5_v0,2023.2.2,Win32,85.47008547,,,,,,,,,,,,,,,,866.0269,867.3292,867.3293,869.6939,return,0.8028,,75.390625,,,,,,FBP-PT-71.png,0.43,1.2,49,0.5,,,,,,,,,,,,,,,,,,0,39,39,48,1,,,,,,,,,,,,,,,,,,,,,,,
,,,,,SRP24_031,21,Male,2024-04-10_15h31.23.413,jersey_experiment_5_v0,2023.2.2,Win32,85.47008547,,,,,,,,,,,,,,,,869.6942,870.9881,870.9881,873.0823,return,1.4078,,69.27083333,,,,,,FBP-YG-91.png,0.43,1.2,29,0.5,,,,,,,,,,,,,,,,,,0,40,40,28,1,,,,,,,,,,,,,,,,,,,,,,,
,,,,,SRP24_031,21,Male,2024-04-10_15h31.23.413,jersey_experiment_5_v0,2023.2.2,Win32,85.47008547,,,,,,,,,,,,,,,,873.0825,874.1292,874.1292,876.8589,return,0.36,,65.36458333,,,,,,FBP-RB-71.png,0.4,1.2,33,0.25,,,,,,,,,,,,,,,,,,0,41,41,32,1,,,,,,,,,,,,,,,,,,,,,,,
,,,,,SRP24_031,21,Male,2024-04-10_15h31.23.413,jersey_experiment_5_v0,2023.2.2,Win32,85.47008547,,,,,,,,,,,,,,,,876.8591,878.153,878.153,879.6744,return,0.2829,,73.4375,,,,,,FBP-YG-71.png,0.43,1.2,19,0.5,,,,,,,,,,,,,,,,,,0,42,42,18,1,,,,,,,,,,,,,,,,,,,,,,,
,,,,,SRP24_031,21,Male,2024-04-10_15h31.23.413,jersey_experiment_5_v0,2023.2.2,Win32,85.47008547,,,,,,,,,,,,,,,,879.6745,880.9765,880.9766,883.0238,return,0.3547,,37.36979167,,,,,,FBP-PT-71.png,0.37,1.2,47,0.5,,,,,,,,,,,,,,,,,,0,43,43,46,1,,,,,,,,,,,,,,,,,,,,,,,
,,,,,SRP24_031,21,Male,2024-04-10_15h31.23.413,jersey_experiment_5_v0,2023.2.2,Win32,85.47008547,,,,,,,,,,,,,,,,883.024,884.3227,884.3227,885.518,return,0.5447,,63.54166667,,,,,,FBP-PT-81.png,0.45,1.2,55,0.5,,,,,,,,,,,,,,,,,,0,44,44,54,1,,,,,,,,,,,,,,,,,,,,,,,
,,,,,SRP24_031,21,Male,2024-04-10_15h31.23.413,jersey_experiment_5_v0,2023.2.2,Win32,85.47008547,,,,,,,,,,,,,,,,885.5182,886.5683,886.5683,888.0041,return,0.5648,,73.95833333,,,,,,FBP-RB-71.png,0.45,1.2,35,0.25,,,,,,,,,,,,,,,,,,0,45,45,34,1,,,,,,,,,,,,,,,,,,,,,,,
,,,,,SRP24_031,21,Male,2024-04-10_15h31.23.413,jersey_experiment_5_v0,2023.2.2,Win32,85.47008547,,,,,,,,,,,,,,,,888.0042,889.0521,889.0521,890.6359,return,0.1114,,73.56770833,,,,,,FBP-OG-17.png,0.43,1.2,4,0.25,,,,,,,,,,,,,,,,,,0,46,46,3,1,,,,,,,,,,,,,,,,,,,,,,,
,,,,,SRP24_031,21,Male,2024-04-10_15h31.23.413,jersey_experiment_5_v0,2023.2.2,Win32,85.47008547,,,,,,,,,,,,,,,,890.6361,891.9336,891.9337,892.9818,return,0.178,,32.94270833,,,,,,FBP-YG-91.png,0.37,1.2,27,0.5,,,,,,,,,,,,,,,,,,0,47,47,26,1,,,,,,,,,,,,,,,,,,,,,,,
,,,,,SRP24_031,21,Male,2024-04-10_15h31.23.413,jersey_experiment_5_v0,2023.2.2,Win32,85.47008547,,,,,,,,,,,,,,,,892.9819,894.2829,894.283,896.2395,return,0.0943,,42.05729167,,,,,,FBP-YG-91.png,0.4,1.2,28,0.5,,,,,,,,,,,,,,,,,,0,48,48,27,1,,,,,,,,,,,,,,,,,,,,,,,
,,,,,SRP24_031,21,Male,2024-04-10_15h31.23.413,jersey_experiment_5_v0,2023.2.2,Win32,85.47008547,,,,,,,,,,,,,,,,896.2397,897.2831,897.2831,898.7232,return,0.1075,,25.390625,,,,,,FBP-RB-71.png,0.35,1.2,31,0.25,,,,,,,,,,,,,,,,,,0,49,49,30,1,,,,,,,,,,,,,,,,,,,,,,,
,,,,,SRP24_031,21,Male,2024-04-10_15h31.23.413,jersey_experiment_5_v0,2023.2.2,Win32,85.47008547,,,,,,,,,,,,,,,,898.7234,899.7656,899.7656,901.3219,return,0.1647,,69.140625,,,,,,FBP-RB-81.png,0.43,1.2,39,0.25,,,,,,,,,,,,,,,,,,0,50,50,38,1,,,,,,,,,,,,,,,,,,,,,,,
,,,,,SRP24_031,21,Male,2024-04-10_15h31.23.413,jersey_experiment_5_v0,2023.2.2,Win32,85.47008547,,,,,,,,,,,,,,,,901.322,902.37,902.3701,903.9304,return,0.1367,,72.91666667,,,,,,FBP-OG-17.png,0.45,1.2,5,0.25,,,,,,,,,,,,,,,,,,0,51,51,4,1,,,,,,,,,,,,,,,,,,,,,,,
,,,,,SRP24_031,21,Male,2024-04-10_15h31.23.413,jersey_experiment_5_v0,2023.2.2,Win32,85.47008547,,,,,,,,,,,,,,,,903.9306,904.9774,904.9775,906.2293,return,0.178,,30.078125,,,,,,FBP-RB-91.png,0.35,1.2,41,0.25,,,,,,,,,,,,,,,,,,0,52,52,40,1,,,,,,,,,,,,,,,,,,,,,,,
,,,,,SRP24_031,21,Male,2024-04-10_15h31.23.413,jersey_experiment_5_v0,2023.2.2,Win32,85.47008547,,,,,,,,,,,,,,,,906.2295,907.2748,907.2748,908.7775,return,0.1011,,74.609375,,,,,,FBP-OG-18.png,0.43,1.2,9,0.25,,,,,,,,,,,,,,,,,,0,53,53,8,1,,,,,,,,,,,,,,,,,,,,,,,
,,,,,SRP24_031,21,Male,2024-04-10_15h31.23.413,jersey_experiment_5_v0,2023.2.2,Win32,85.47008547,,,,,,,,,,,,,,,,908.7777,909.8248,909.8248,910.8179,return,0.3061,,74.08854167,,,,,,FBP-OG-19.png,0.45,1.2,15,0.25,,,,,,,,,,,,,,,,,,0,54,54,14,1,,,,,,,,,,,,,,,,,,,,,,,
,,,,,SRP24_031,21,Male,2024-04-10_15h31.23.413,jersey_experiment_5_v0,2023.2.2,Win32,85.47008547,,,,,,,,,,,,,,,,910.818,911.8601,911.8601,912.7944,return,0.1075,,78.38541667,,,,,,FBP-RB-71.png,0.43,1.2,34,0.25,,,,,,,,,,,,,,,,,,0,55,55,33,1,,,,,,,,,,,,,,,,,,,,,,,
,,,,,SRP24_031,21,Male,2024-04-10_15h31.23.413,jersey_experiment_5_v0,2023.2.2,Win32,85.47008547,,,,,,,,,,,,,,,,912.7945,914.0984,914.0985,915.3354,return,0.1177,,74.47916667,,,,,,FBP-PT-91.png,0.43,1.2,59,0.5,,,,,,,,,,,,,,,,,,0,56,56,58,1,,,,,,,,,,,,,,,,,,,,,,,
,,,,,SRP24_031,21,Male,2024-04-10_15h31.23.413,jersey_experiment_5_v0,2023.2.2,Win32,85.47008547,,,,,,,,,,,,,,,,915.3355,916.3778,916.3778,917.5109,return,0.1651,,42.31770833,,,,,,FBP-OG-18.png,0.37,1.2,7,0.25,,,,,,,,,,,,,,,,,,0,57,57,6,1,,,,,,,,,,,,,,,,,,,,,,,
,,,,,SRP24_031,21,Male,2024-04-10_15h31.23.413,jersey_experiment_5_v0,2023.2.2,Win32,85.47008547,,,,,,,,,,,,,,,,917.511,918.559,918.559,919.3898,return,0.097,,36.06770833,,,,,,FBP-OG-19.png,0.37,1.2,12,0.25,,,,,,,,,,,,,,,,,,0,58,58,11,1,,,,,,,,,,,,,,,,,,,,,,,
,,,,,SRP24_031,21,Male,2024-04-10_15h31.23.413,jersey_experiment_5_v0,2023.2.2,Win32,85.47008547,,,,,,,,,,,,,,,,919.39,920.6839,920.6839,922.0756,return,0.1179,,49.73958333,,,,,,FBP-PT-91.png,0.4,1.2,58,0.5,,,,,,,,,,,,,,,,,,0,59,59,57,1,,,,,,,,,,,,,,,,,,,,,,,
,,,,,SRP24_031,21,Male,2024-04-10_15h31.23.413,jersey_experiment_5_v0,2023.2.2,Win32,85.47008547,,,,,,,,,,,,,,,,,,,,,,,,,,,,,,,,,,,,,,,,,,,,,,,,,,,,,,,,922.076,927.8727,return,5.7765,,,,,,,,,,,,,,,,,,,
,,,,,SRP24_031,21,Male,2024-04-10_15h31.23.413,jersey_experiment_5_v0,2023.2.2,Win32,85.47008547,,,,,,,,,,,,,,,,,,,,,,,,,,,,,,,,,,,,,,,,,,,,,,,,,,,,,,,,,,,,,927.8727,932.9836,1,4.076,return,1.012,,,,,,,,,,,,
,,,,,SRP24_031,21,Male,2024-04-10_15h31.23.413,jersey_experiment_5_v0,2023.2.2,Win32,85.47008547,,,,,,,,,,,,,,,,,,,,,,,,,,,,,,,,,,,,,,,,,,,,,,,,,,,,,,,,,,,,,,,,,,,,932.9836,1002.4523,I do not have a good idea of what this study is about. ,right,61.0142,,,,,,
,,,,,SRP24_031,21,Male,2024-04-10_15h31.23.413,jersey_experiment_5_v0,2023.2.2,Win32,85.47008547,,,,,,,,,,,,,,,,,,,,,,,,,,,,,,,,,,,,,,,,,,,,,,,,,,,,,,,,,,,,,,,,,,,,,,,,,,1002.4524,1032.7823,return,30.3091,