requirements.started,requirements.stopped,key_resp_3.keys,key_resp_3.rt,key_resp_3.duration,Subject ID,Age,Gender,date,expName,psychopyVersion,OS,frameRate,instructions1.started,instructions1.stopped,key_resp.keys,key_resp.rt,key_resp.duration,example.started,example.stopped,enter_2.keys,enter_2.rt,enter_2.duration,instructions2.started,instructions2.stopped,enter_3.keys,enter_3.rt,enter_3.duration,image.started,image.stopped,slider_2.started,slider_2.stopped,next.keys,next.rt,next.duration,slider.response,trial_block_1.thisRepN,trial_block_1.thisTrialN,trial_block_1.thisN,trial_block_1.thisIndex,trial_block_1.ran,Path,Width,Height,Index,Duration,trial_block_2.thisRepN,trial_block_2.thisTrialN,trial_block_2.thisN,trial_block_2.thisIndex,trial_block_2.ran,rest_break.started,rest_break.stopped,end_break.started,end_break.stopped,key_resp_5.keys,key_resp_5.rt,key_resp_5.duration,trial_block_3.thisRepN,trial_block_3.thisTrialN,trial_block_3.thisN,trial_block_3.thisIndex,trial_block_3.ran,trial_block_4.thisRepN,trial_block_4.thisTrialN,trial_block_4.thisN,trial_block_4.thisIndex,trial_block_4.ran,questions_intro.started,questions_intro.stopped,enter_12.keys,enter_12.rt,enter_12.duration,question2.started,question2.stopped,question_doingbest.response,question_doingbest.rt,enter_15.keys,enter_15.rt,enter_15.duration,pattern.started,pattern.stopped,pattern_2.text,enter_17.keys,enter_17.rt,enter_17.duration,thankyou.started,thankyou.stopped,enter_14.keys,enter_14.rt,enter_14.duration
0.0002,17.8392,return,17.8261,,SRP24_023,26,female,2024-04-09_16h35.30.276,jersey_experiment_5_v0,2023.2.2,Win32,84.74576271,,,,,,,,,,,,,,,,,,,,,,,,,,,,,,,,,,,,,,,,,,,,,,,,,,,,,,,,,,,,,,,,,,,,,,,,,,,,,,
,,,,,SRP24_023,26,female,2024-04-09_16h35.30.276,jersey_experiment_5_v0,2023.2.2,Win32,84.74576271,17.8393,19.3331,return,1.4875,,,,,,,,,,,,,,,,,,,,,,,,,,,,,,,,,,,,,,,,,,,,,,,,,,,,,,,,,,,,,,,,,,,,,,,,,,
,,,,,SRP24_023,26,female,2024-04-09_16h35.30.276,jersey_experiment_5_v0,2023.2.2,Win32,84.74576271,,,,,,19.3333,29.4983,return,10.1378,,,,,,,,,,,,,,,,,,,,,,,,,,,,,,,,,,,,,,,,,,,,,,,,,,,,,,,,,,,,,,,,,,,,,
,,,,,SRP24_023,26,female,2024-04-09_16h35.30.276,jersey_experiment_5_v0,2023.2.2,Win32,84.74576271,,,,,,,,,,,29.4984,86.0535,return,56.5359,,,,,,,,,,,,,,,,,,,,,,,,,,,,,,,,,,,,,,,,,,,,,,,,,,,,,,,,,,,,,,,,
,,,,,SRP24_023,26,female,2024-04-09_16h35.30.276,jersey_experiment_5_v0,2023.2.2,Win32,84.74576271,,,,,,,,,,,,,,,,86.0609,87.1038,87.1038,94.9829,return,3.4994,,24.73958333,0,0,0,57,1,FBP-PT-19.png,0.4,1.2,58,0.25,,,,,,,,,,,,,,,,,,,,,,,,,,,,,,,,,,,,,,,,,,,,,
,,,,,SRP24_023,26,female,2024-04-09_16h35.30.276,jersey_experiment_5_v0,2023.2.2,Win32,84.74576271,,,,,,,,,,,,,,,,94.9872,96.2802,96.2802,101.9513,return,1.0358,,1.041666667,0,1,1,11,1,FBP-OG-91.png,0.37,1.2,12,0.5,,,,,,,,,,,,,,,,,,,,,,,,,,,,,,,,,,,,,,,,,,,,,
,,,,,SRP24_023,26,female,2024-04-09_16h35.30.276,jersey_experiment_5_v0,2023.2.2,Win32,84.74576271,,,,,,,,,,,,,,,,101.9515,103.2582,103.2582,127.3299,return,3.0357,,75.13020833,0,2,2,43,1,FBP-RB-19.png,0.43,1.2,44,0.5,,,,,,,,,,,,,,,,,,,,,,,,,,,,,,,,,,,,,,,,,,,,,
,,,,,SRP24_023,26,female,2024-04-09_16h35.30.276,jersey_experiment_5_v0,2023.2.2,Win32,84.74576271,,,,,,,,,,,,,,,,127.3301,128.6244,128.6244,131.7638,return,0.4473,,24.86979167,0,3,3,40,1,FBP-RB-19.png,0.35,1.2,41,0.5,,,,,,,,,,,,,,,,,,,,,,,,,,,,,,,,,,,,,,,,,,,,,
,,,,,SRP24_023,26,female,2024-04-09_16h35.30.276,jersey_experiment_5_v0,2023.2.2,Win32,84.74576271,,,,,,,,,,,,,,,,131.764,133.0668,133.0668,144.7531,return,8.2703,,84.50520833,0,4,4,39,1,FBP-RB-18.png,0.45,1.2,40,0.5,,,,,,,,,,,,,,,,,,,,,,,,,,,,,,,,,,,,,,,,,,,,,
,,,,,SRP24_023,26,female,2024-04-09_16h35.30.276,jersey_experiment_5_v0,2023.2.2,Win32,84.74576271,,,,,,,,,,,,,,,,144.7532,146.0465,146.0465,150.2012,return,2.107,,80.078125,0,5,5,14,1,FBP-OG-91.png,0.45,1.2,15,0.5,,,,,,,,,,,,,,,,,,,,,,,,,,,,,,,,,,,,,,,,,,,,,
,,,,,SRP24_023,26,female,2024-04-09_16h35.30.276,jersey_experiment_5_v0,2023.2.2,Win32,84.74576271,,,,,,,,,,,,,,,,150.2015,151.5026,151.5026,154.3532,return,0.4576,,50.52083333,0,6,6,6,1,FBP-OG-81.png,0.37,1.2,7,0.5,,,,,,,,,,,,,,,,,,,,,,,,,,,,,,,,,,,,,,,,,,,,,
,,,,,SRP24_023,26,female,2024-04-09_16h35.30.276,jersey_experiment_5_v0,2023.2.2,Win32,84.74576271,,,,,,,,,,,,,,,,154.3533,155.4014,155.4014,158.4207,return,0.6647,,72.00520833,0,7,7,23,1,FBP-YG-18.png,0.43,1.2,24,0.25,,,,,,,,,,,,,,,,,,,,,,,,,,,,,,,,,,,,,,,,,,,,,
,,,,,SRP24_023,26,female,2024-04-09_16h35.30.276,jersey_experiment_5_v0,2023.2.2,Win32,84.74576271,,,,,,,,,,,,,,,,158.4209,159.4677,159.4677,163.849,return,0.4238,,33.33333333,0,8,8,25,1,FBP-YG-19.png,0.35,1.2,26,0.25,,,,,,,,,,,,,,,,,,,,,,,,,,,,,,,,,,,,,,,,,,,,,
,,,,,SRP24_023,26,female,2024-04-09_16h35.30.276,jersey_experiment_5_v0,2023.2.2,Win32,84.74576271,,,,,,,,,,,,,,,,163.8491,165.1503,165.1503,170.1794,return,3.6241,,60.28645833,0,9,9,13,1,FBP-OG-91.png,0.43,1.2,14,0.5,,,,,,,,,,,,,,,,,,,,,,,,,,,,,,,,,,,,,,,,,,,,,
,,,,,SRP24_023,26,female,2024-04-09_16h35.30.276,jersey_experiment_5_v0,2023.2.2,Win32,84.74576271,,,,,,,,,,,,,,,,170.1796,171.4833,171.4833,175.5202,return,1.6944,,20.18229167,0,10,10,35,1,FBP-RB-18.png,0.35,1.2,36,0.5,,,,,,,,,,,,,,,,,,,,,,,,,,,,,,,,,,,,,,,,,,,,,
,,,,,SRP24_023,26,female,2024-04-09_16h35.30.276,jersey_experiment_5_v0,2023.2.2,Win32,84.74576271,,,,,,,,,,,,,,,,175.5204,176.5656,176.5656,178.8956,return,0.3065,,74.21875,0,11,11,28,1,FBP-YG-19.png,0.43,1.2,29,0.25,,,,,,,,,,,,,,,,,,,,,,,,,,,,,,,,,,,,,,,,,,,,,
,,,,,SRP24_023,26,female,2024-04-09_16h35.30.276,jersey_experiment_5_v0,2023.2.2,Win32,84.74576271,,,,,,,,,,,,,,,,178.8957,180.1978,180.1979,181.9155,return,0.3294,,80.20833333,0,12,12,9,1,FBP-OG-81.png,0.45,1.2,10,0.5,,,,,,,,,,,,,,,,,,,,,,,,,,,,,,,,,,,,,,,,,,,,,
,,,,,SRP24_023,26,female,2024-04-09_16h35.30.276,jersey_experiment_5_v0,2023.2.2,Win32,84.74576271,,,,,,,,,,,,,,,,181.9157,182.966,182.966,187.563,return,2.5298,,22.52604167,0,13,13,20,1,FBP-YG-18.png,0.35,1.2,21,0.25,,,,,,,,,,,,,,,,,,,,,,,,,,,,,,,,,,,,,,,,,,,,,
,,,,,SRP24_023,26,female,2024-04-09_16h35.30.276,jersey_experiment_5_v0,2023.2.2,Win32,84.74576271,,,,,,,,,,,,,,,,187.5631,188.857,188.857,191.2252,return,0.4237,,45.703125,0,14,14,31,1,FBP-RB-17.png,0.37,1.2,32,0.5,,,,,,,,,,,,,,,,,,,,,,,,,,,,,,,,,,,,,,,,,,,,,
,,,,,SRP24_023,26,female,2024-04-09_16h35.30.276,jersey_experiment_5_v0,2023.2.2,Win32,84.74576271,,,,,,,,,,,,,,,,191.2254,192.5277,192.5278,195.2253,return,0.4473,,75.13020833,0,15,15,3,1,FBP-OG-71.png,0.43,1.2,4,0.5,,,,,,,,,,,,,,,,,,,,,,,,,,,,,,,,,,,,,,,,,,,,,
,,,,,SRP24_023,26,female,2024-04-09_16h35.30.276,jersey_experiment_5_v0,2023.2.2,Win32,84.74576271,,,,,,,,,,,,,,,,195.2254,196.528,196.528,198.6845,return,0.7536,,83.07291667,0,16,16,4,1,FBP-OG-71.png,0.45,1.2,5,0.5,,,,,,,,,,,,,,,,,,,,,,,,,,,,,,,,,,,,,,,,,,,,,
,,,,,SRP24_023,26,female,2024-04-09_16h35.30.276,jersey_experiment_5_v0,2023.2.2,Win32,84.74576271,,,,,,,,,,,,,,,,198.6846,199.9868,199.9868,204.2507,return,2.2014,,29.16666667,0,17,17,5,1,FBP-OG-81.png,0.35,1.2,6,0.5,,,,,,,,,,,,,,,,,,,,,,,,,,,,,,,,,,,,,,,,,,,,,
,,,,,SRP24_023,26,female,2024-04-09_16h35.30.276,jersey_experiment_5_v0,2023.2.2,Win32,84.74576271,,,,,,,,,,,,,,,,204.2509,205.5519,205.5519,208.2274,return,0.5308,,30.72916667,0,18,18,36,1,FBP-RB-18.png,0.37,1.2,37,0.5,,,,,,,,,,,,,,,,,,,,,,,,,,,,,,,,,,,,,,,,,,,,,
,,,,,SRP24_023,26,female,2024-04-09_16h35.30.276,jersey_experiment_5_v0,2023.2.2,Win32,84.74576271,,,,,,,,,,,,,,,,208.2276,209.5285,209.5285,214.9993,return,3.8872,,60.546875,0,19,19,34,1,FBP-RB-17.png,0.45,1.2,35,0.5,,,,,,,,,,,,,,,,,,,,,,,,,,,,,,,,,,,,,,,,,,,,,
,,,,,SRP24_023,26,female,2024-04-09_16h35.30.276,jersey_experiment_5_v0,2023.2.2,Win32,84.74576271,,,,,,,,,,,,,,,,214.9995,216.0465,216.0465,218.6615,return,1.0119,,74.08854167,0,20,20,59,1,FBP-PT-19.png,0.45,1.2,60,0.25,,,,,,,,,,,,,,,,,,,,,,,,,,,,,,,,,,,,,,,,,,,,,
,,,,,SRP24_023,26,female,2024-04-09_16h35.30.276,jersey_experiment_5_v0,2023.2.2,Win32,84.74576271,,,,,,,,,,,,,,,,218.6616,219.7096,219.7096,221.3807,return,0.2828,,45.3125,0,21,21,51,1,FBP-PT-18.png,0.37,1.2,52,0.25,,,,,,,,,,,,,,,,,,,,,,,,,,,,,,,,,,,,,,,,,,,,,
,,,,,SRP24_023,26,female,2024-04-09_16h35.30.276,jersey_experiment_5_v0,2023.2.2,Win32,84.74576271,,,,,,,,,,,,,,,,221.3808,222.4232,222.4233,223.922,return,0.4476,,49.73958333,0,22,22,22,1,FBP-YG-18.png,0.4,1.2,23,0.25,,,,,,,,,,,,,,,,,,,,,,,,,,,,,,,,,,,,,,,,,,,,,
,,,,,SRP24_023,26,female,2024-04-09_16h35.30.276,jersey_experiment_5_v0,2023.2.2,Win32,84.74576271,,,,,,,,,,,,,,,,223.9222,225.2231,225.2231,227.0618,return,0.5176,,49.73958333,0,23,23,7,1,FBP-OG-81.png,0.4,1.2,8,0.5,,,,,,,,,,,,,,,,,,,,,,,,,,,,,,,,,,,,,,,,,,,,,
,,,,,SRP24_023,26,female,2024-04-09_16h35.30.276,jersey_experiment_5_v0,2023.2.2,Win32,84.74576271,,,,,,,,,,,,,,,,227.0621,228.3563,228.3563,230.9528,return,1.1561,,54.296875,0,24,24,37,1,FBP-RB-18.png,0.4,1.2,38,0.5,,,,,,,,,,,,,,,,,,,,,,,,,,,,,,,,,,,,,,,,,,,,,
,,,,,SRP24_023,26,female,2024-04-09_16h35.30.276,jersey_experiment_5_v0,2023.2.2,Win32,84.74576271,,,,,,,,,,,,,,,,230.953,232.247,232.247,233.7339,return,0.2956,,62.76041667,0,25,25,33,1,FBP-RB-17.png,0.43,1.2,34,0.5,,,,,,,,,,,,,,,,,,,,,,,,,,,,,,,,,,,,,,,,,,,,,
,,,,,SRP24_023,26,female,2024-04-09_16h35.30.276,jersey_experiment_5_v0,2023.2.2,Win32,84.74576271,,,,,,,,,,,,,,,,233.734,234.7764,234.7765,236.9059,return,0.3309,,61.45833333,0,26,26,58,1,FBP-PT-19.png,0.43,1.2,59,0.25,,,,,,,,,,,,,,,,,,,,,,,,,,,,,,,,,,,,,,,,,,,,,
,,,,,SRP24_023,26,female,2024-04-09_16h35.30.276,jersey_experiment_5_v0,2023.2.2,Win32,84.74576271,,,,,,,,,,,,,,,,236.9062,237.953,237.953,242.3459,return,1.7646,,47.78645833,0,27,27,56,1,FBP-PT-19.png,0.37,1.2,57,0.25,,,,,,,,,,,,,,,,,,,,,,,,,,,,,,,,,,,,,,,,,,,,,
,,,,,SRP24_023,26,female,2024-04-09_16h35.30.276,jersey_experiment_5_v0,2023.2.2,Win32,84.74576271,,,,,,,,,,,,,,,,242.346,243.3886,243.3886,246.9687,return,2.3064,,31.11979167,0,28,28,55,1,FBP-PT-19.png,0.35,1.2,56,0.25,,,,,,,,,,,,,,,,,,,,,,,,,,,,,,,,,,,,,,,,,,,,,
,,,,,SRP24_023,26,female,2024-04-09_16h35.30.276,jersey_experiment_5_v0,2023.2.2,Win32,84.74576271,,,,,,,,,,,,,,,,246.9688,248.0122,248.0122,250.6059,return,1.0963,,30.72916667,0,29,29,52,1,FBP-PT-18.png,0.4,1.2,53,0.25,,,,,,,,,,,,,,,,,,,,,,,,,,,,,,,,,,,,,,,,,,,,,
,,,,,SRP24_023,26,female,2024-04-09_16h35.30.276,jersey_experiment_5_v0,2023.2.2,Win32,84.74576271,,,,,,,,,,,,,,,,250.6061,251.9065,251.9065,255.0762,return,0.2018,,69.66145833,0,30,30,44,1,FBP-RB-19.png,0.45,1.2,45,0.5,,,,,,,,,,,,,,,,,,,,,,,,,,,,,,,,,,,,,,,,,,,,,
,,,,,SRP24_023,26,female,2024-04-09_16h35.30.276,jersey_experiment_5_v0,2023.2.2,Win32,84.74576271,,,,,,,,,,,,,,,,255.0763,256.1186,256.1187,258.4648,return,0.4941,,66.40625,0,31,31,17,1,FBP-YG-17.png,0.4,1.2,18,0.25,,,,,,,,,,,,,,,,,,,,,,,,,,,,,,,,,,,,,,,,,,,,,
,,,,,SRP24_023,26,female,2024-04-09_16h35.30.276,jersey_experiment_5_v0,2023.2.2,Win32,84.74576271,,,,,,,,,,,,,,,,258.4649,259.5069,259.5069,261.7822,return,0.848,,37.5,0,32,32,21,1,FBP-YG-18.png,0.37,1.2,22,0.25,,,,,,,,,,,,,,,,,,,,,,,,,,,,,,,,,,,,,,,,,,,,,
,,,,,SRP24_023,26,female,2024-04-09_16h35.30.276,jersey_experiment_5_v0,2023.2.2,Win32,84.74576271,,,,,,,,,,,,,,,,261.7825,262.8246,262.8247,264.4043,return,0.2586,,28.64583333,0,33,33,45,1,FBP-PT-17.png,0.35,1.2,46,0.25,,,,,,,,,,,,,,,,,,,,,,,,,,,,,,,,,,,,,,,,,,,,,
,,,,,SRP24_023,26,female,2024-04-09_16h35.30.276,jersey_experiment_5_v0,2023.2.2,Win32,84.74576271,,,,,,,,,,,,,,,,264.4045,265.711,265.711,267.2835,return,0.432,,26.5625,0,34,34,0,1,FBP-OG-71.png,0.35,1.2,1,0.5,,,,,,,,,,,,,,,,,,,,,,,,,,,,,,,,,,,,,,,,,,,,,
,,,,,SRP24_023,26,female,2024-04-09_16h35.30.276,jersey_experiment_5_v0,2023.2.2,Win32,84.74576271,,,,,,,,,,,,,,,,267.2838,268.3307,268.3307,273.8603,return,3.2197,,62.63020833,0,35,35,53,1,FBP-PT-18.png,0.43,1.2,54,0.25,,,,,,,,,,,,,,,,,,,,,,,,,,,,,,,,,,,,,,,,,,,,,
,,,,,SRP24_023,26,female,2024-04-09_16h35.30.276,jersey_experiment_5_v0,2023.2.2,Win32,84.74576271,,,,,,,,,,,,,,,,273.8606,275.1545,275.1545,278.7947,return,2.3661,,63.28125,0,36,36,32,1,FBP-RB-17.png,0.4,1.2,33,0.5,,,,,,,,,,,,,,,,,,,,,,,,,,,,,,,,,,,,,,,,,,,,,
,,,,,SRP24_023,26,female,2024-04-09_16h35.30.276,jersey_experiment_5_v0,2023.2.2,Win32,84.74576271,,,,,,,,,,,,,,,,278.7949,280.099,280.099,284.4842,return,1.89,,27.60416667,0,37,37,30,1,FBP-RB-17.png,0.35,1.2,31,0.5,,,,,,,,,,,,,,,,,,,,,,,,,,,,,,,,,,,,,,,,,,,,,
,,,,,SRP24_023,26,female,2024-04-09_16h35.30.276,jersey_experiment_5_v0,2023.2.2,Win32,84.74576271,,,,,,,,,,,,,,,,284.4844,285.7823,285.7823,290.536,return,1.9526,,73.69791667,0,38,38,38,1,FBP-RB-18.png,0.43,1.2,39,0.5,,,,,,,,,,,,,,,,,,,,,,,,,,,,,,,,,,,,,,,,,,,,,
,,,,,SRP24_023,26,female,2024-04-09_16h35.30.276,jersey_experiment_5_v0,2023.2.2,Win32,84.74576271,,,,,,,,,,,,,,,,290.5362,291.5787,291.5787,295.1009,return,1.6939,,32.29166667,0,39,39,50,1,FBP-PT-18.png,0.35,1.2,51,0.25,,,,,,,,,,,,,,,,,,,,,,,,,,,,,,,,,,,,,,,,,,,,,
,,,,,SRP24_023,26,female,2024-04-09_16h35.30.276,jersey_experiment_5_v0,2023.2.2,Win32,84.74576271,,,,,,,,,,,,,,,,295.1011,296.1473,296.1473,299.2187,return,0.3897,,74.73958333,0,40,40,29,1,FBP-YG-19.png,0.45,1.2,30,0.25,,,,,,,,,,,,,,,,,,,,,,,,,,,,,,,,,,,,,,,,,,,,,
,,,,,SRP24_023,26,female,2024-04-09_16h35.30.276,jersey_experiment_5_v0,2023.2.2,Win32,84.74576271,,,,,,,,,,,,,,,,299.2188,300.2613,300.2614,302.537,return,1.0491,,70.83333333,0,41,41,48,1,FBP-PT-17.png,0.43,1.2,49,0.25,,,,,,,,,,,,,,,,,,,,,,,,,,,,,,,,,,,,,,,,,,,,,
,,,,,SRP24_023,26,female,2024-04-09_16h35.30.276,jersey_experiment_5_v0,2023.2.2,Win32,84.74576271,,,,,,,,,,,,,,,,302.5372,303.5789,303.579,305.8379,return,0.4708,,50,0,42,42,26,1,FBP-YG-19.png,0.37,1.2,27,0.25,,,,,,,,,,,,,,,,,,,,,,,,,,,,,,,,,,,,,,,,,,,,,
,,,,,SRP24_023,26,female,2024-04-09_16h35.30.276,jersey_experiment_5_v0,2023.2.2,Win32,84.74576271,,,,,,,,,,,,,,,,305.8382,307.1321,307.1321,308.3121,return,0.3769,,45.83333333,0,43,43,41,1,FBP-RB-19.png,0.37,1.2,42,0.5,,,,,,,,,,,,,,,,,,,,,,,,,,,,,,,,,,,,,,,,,,,,,
,,,,,SRP24_023,26,female,2024-04-09_16h35.30.276,jersey_experiment_5_v0,2023.2.2,Win32,84.74576271,,,,,,,,,,,,,,,,308.3123,309.3608,309.3609,311.6735,return,0.6601,,74.73958333,0,44,44,24,1,FBP-YG-18.png,0.45,1.2,25,0.25,,,,,,,,,,,,,,,,,,,,,,,,,,,,,,,,,,,,,,,,,,,,,
,,,,,SRP24_023,26,female,2024-04-09_16h35.30.276,jersey_experiment_5_v0,2023.2.2,Win32,84.74576271,,,,,,,,,,,,,,,,311.6737,312.9677,312.9677,317.3371,return,1.3311,,52.21354167,0,45,45,1,1,FBP-OG-71.png,0.37,1.2,2,0.5,,,,,,,,,,,,,,,,,,,,,,,,,,,,,,,,,,,,,,,,,,,,,
,,,,,SRP24_023,26,female,2024-04-09_16h35.30.276,jersey_experiment_5_v0,2023.2.2,Win32,84.74576271,,,,,,,,,,,,,,,,317.3373,318.3797,318.3798,321.7211,return,0.4725,,72.78645833,0,46,46,54,1,FBP-PT-18.png,0.45,1.2,55,0.25,,,,,,,,,,,,,,,,,,,,,,,,,,,,,,,,,,,,,,,,,,,,,
,,,,,SRP24_023,26,female,2024-04-09_16h35.30.276,jersey_experiment_5_v0,2023.2.2,Win32,84.74576271,,,,,,,,,,,,,,,,321.7213,322.7681,322.7681,324.6315,return,0.3295,,73.046875,0,47,47,49,1,FBP-PT-17.png,0.45,1.2,50,0.25,,,,,,,,,,,,,,,,,,,,,,,,,,,,,,,,,,,,,,,,,,,,,
,,,,,SRP24_023,26,female,2024-04-09_16h35.30.276,jersey_experiment_5_v0,2023.2.2,Win32,84.74576271,,,,,,,,,,,,,,,,324.6317,325.6739,325.674,327.7376,return,0.6957,,70.57291667,0,48,48,18,1,FBP-YG-17.png,0.43,1.2,19,0.25,,,,,,,,,,,,,,,,,,,,,,,,,,,,,,,,,,,,,,,,,,,,,
,,,,,SRP24_023,26,female,2024-04-09_16h35.30.276,jersey_experiment_5_v0,2023.2.2,Win32,84.74576271,,,,,,,,,,,,,,,,327.7378,329.039,329.0391,330.1248,return,0.3065,,67.44791667,0,49,49,8,1,FBP-OG-81.png,0.43,1.2,9,0.5,,,,,,,,,,,,,,,,,,,,,,,,,,,,,,,,,,,,,,,,,,,,,
,,,,,SRP24_023,26,female,2024-04-09_16h35.30.276,jersey_experiment_5_v0,2023.2.2,Win32,84.74576271,,,,,,,,,,,,,,,,330.125,331.4271,331.4271,333.1599,return,0.3527,,63.28125,0,50,50,2,1,FBP-OG-71.png,0.4,1.2,3,0.5,,,,,,,,,,,,,,,,,,,,,,,,,,,,,,,,,,,,,,,,,,,,,
,,,,,SRP24_023,26,female,2024-04-09_16h35.30.276,jersey_experiment_5_v0,2023.2.2,Win32,84.74576271,,,,,,,,,,,,,,,,333.1601,334.2038,334.2038,339.4327,return,3.1774,,36.71875,0,51,51,15,1,FBP-YG-17.png,0.35,1.2,16,0.25,,,,,,,,,,,,,,,,,,,,,,,,,,,,,,,,,,,,,,,,,,,,,
,,,,,SRP24_023,26,female,2024-04-09_16h35.30.276,jersey_experiment_5_v0,2023.2.2,Win32,84.74576271,,,,,,,,,,,,,,,,339.4329,340.7335,340.7335,343.7018,return,1.5164,,51.953125,0,52,52,42,1,FBP-RB-19.png,0.4,1.2,43,0.5,,,,,,,,,,,,,,,,,,,,,,,,,,,,,,,,,,,,,,,,,,,,,
,,,,,SRP24_023,26,female,2024-04-09_16h35.30.276,jersey_experiment_5_v0,2023.2.2,Win32,84.74576271,,,,,,,,,,,,,,,,343.702,344.7452,344.7452,346.9146,return,0.7898,,52.47395833,0,53,53,27,1,FBP-YG-19.png,0.4,1.2,28,0.25,,,,,,,,,,,,,,,,,,,,,,,,,,,,,,,,,,,,,,,,,,,,,
,,,,,SRP24_023,26,female,2024-04-09_16h35.30.276,jersey_experiment_5_v0,2023.2.2,Win32,84.74576271,,,,,,,,,,,,,,,,346.9148,347.9573,347.9573,351.1272,return,1.7658,,31.640625,0,54,54,46,1,FBP-PT-17.png,0.37,1.2,47,0.25,,,,,,,,,,,,,,,,,,,,,,,,,,,,,,,,,,,,,,,,,,,,,
,,,,,SRP24_023,26,female,2024-04-09_16h35.30.276,jersey_experiment_5_v0,2023.2.2,Win32,84.74576271,,,,,,,,,,,,,,,,351.1274,352.1691,352.1693,354.8787,return,0.4817,,36.97916667,0,55,55,16,1,FBP-YG-17.png,0.37,1.2,17,0.25,,,,,,,,,,,,,,,,,,,,,,,,,,,,,,,,,,,,,,,,,,,,,
,,,,,SRP24_023,26,female,2024-04-09_16h35.30.276,jersey_experiment_5_v0,2023.2.2,Win32,84.74576271,,,,,,,,,,,,,,,,354.8788,355.9222,355.9222,357.5978,return,0.3427,,61.45833333,0,56,56,19,1,FBP-YG-17.png,0.45,1.2,20,0.25,,,,,,,,,,,,,,,,,,,,,,,,,,,,,,,,,,,,,,,,,,,,,
,,,,,SRP24_023,26,female,2024-04-09_16h35.30.276,jersey_experiment_5_v0,2023.2.2,Win32,84.74576271,,,,,,,,,,,,,,,,357.5979,358.8921,358.8921,360.5257,return,0.612,,38.02083333,0,57,57,10,1,FBP-OG-91.png,0.35,1.2,11,0.5,,,,,,,,,,,,,,,,,,,,,,,,,,,,,,,,,,,,,,,,,,,,,
,,,,,SRP24_023,26,female,2024-04-09_16h35.30.276,jersey_experiment_5_v0,2023.2.2,Win32,84.74576271,,,,,,,,,,,,,,,,360.5259,361.5739,361.574,364.2436,return,1.2574,,37.890625,0,58,58,47,1,FBP-PT-17.png,0.4,1.2,48,0.25,,,,,,,,,,,,,,,,,,,,,,,,,,,,,,,,,,,,,,,,,,,,,
,,,,,SRP24_023,26,female,2024-04-09_16h35.30.276,jersey_experiment_5_v0,2023.2.2,Win32,84.74576271,,,,,,,,,,,,,,,,364.2438,365.5375,365.5375,366.8214,return,0.6248,,50,0,59,59,12,1,FBP-OG-91.png,0.4,1.2,13,0.5,,,,,,,,,,,,,,,,,,,,,,,,,,,,,,,,,,,,,,,,,,,,,
,,,,,SRP24_023,26,female,2024-04-09_16h35.30.276,jersey_experiment_5_v0,2023.2.2,Win32,84.74576271,,,,,,,,,,,,,,,,366.8236,368.1226,368.1226,369.4171,return,0.3199,,42.578125,,,,,,FBP-RB-81.png,0.37,1.2,37,0.5,0,0,0,36,1,,,,,,,,,,,,,,,,,,,,,,,,,,,,,,,,,,,,,,,,
,,,,,SRP24_023,26,female,2024-04-09_16h35.30.276,jersey_experiment_5_v0,2023.2.2,Win32,84.74576271,,,,,,,,,,,,,,,,369.4173,370.464,370.464,371.6691,return,0.3904,,41.27604167,,,,,,FBP-PT-81.png,0.4,1.2,53,0.25,0,1,1,52,1,,,,,,,,,,,,,,,,,,,,,,,,,,,,,,,,,,,,,,,,
,,,,,SRP24_023,26,female,2024-04-09_16h35.30.276,jersey_experiment_5_v0,2023.2.2,Win32,84.74576271,,,,,,,,,,,,,,,,371.6694,372.97,372.97,374.6641,return,0.4857,,58.46354167,,,,,,FBP-RB-81.png,0.43,1.2,39,0.5,0,2,2,38,1,,,,,,,,,,,,,,,,,,,,,,,,,,,,,,,,,,,,,,,,
,,,,,SRP24_023,26,female,2024-04-09_16h35.30.276,jersey_experiment_5_v0,2023.2.2,Win32,84.74576271,,,,,,,,,,,,,,,,374.6643,375.9615,375.9615,377.8674,return,0.8238,,44.66145833,,,,,,FBP-RB-81.png,0.4,1.2,38,0.5,0,3,3,37,1,,,,,,,,,,,,,,,,,,,,,,,,,,,,,,,,,,,,,,,,
,,,,,SRP24_023,26,female,2024-04-09_16h35.30.276,jersey_experiment_5_v0,2023.2.2,Win32,84.74576271,,,,,,,,,,,,,,,,377.8675,378.9113,378.9113,381.2408,return,1.449,,64.32291667,,,,,,FBP-PT-81.png,0.43,1.2,54,0.25,0,4,4,53,1,,,,,,,,,,,,,,,,,,,,,,,,,,,,,,,,,,,,,,,,
,,,,,SRP24_023,26,female,2024-04-09_16h35.30.276,jersey_experiment_5_v0,2023.2.2,Win32,84.74576271,,,,,,,,,,,,,,,,381.2411,382.535,382.535,384.4693,return,0.4606,,65.88541667,,,,,,FBP-RB-81.png,0.45,1.2,40,0.5,0,5,5,39,1,,,,,,,,,,,,,,,,,,,,,,,,,,,,,,,,,,,,,,,,
,,,,,SRP24_023,26,female,2024-04-09_16h35.30.276,jersey_experiment_5_v0,2023.2.2,Win32,84.74576271,,,,,,,,,,,,,,,,384.4695,385.5117,385.5117,387.6567,return,0.6362,,50.65104167,,,,,,FBP-YG-91.png,0.4,1.2,28,0.25,0,6,6,27,1,,,,,,,,,,,,,,,,,,,,,,,,,,,,,,,,,,,,,,,,
,,,,,SRP24_023,26,female,2024-04-09_16h35.30.276,jersey_experiment_5_v0,2023.2.2,Win32,84.74576271,,,,,,,,,,,,,,,,387.6569,388.9587,388.9588,390.5035,return,0.471,,40.10416667,,,,,,FBP-OG-17.png,0.37,1.2,2,0.5,0,7,7,1,1,,,,,,,,,,,,,,,,,,,,,,,,,,,,,,,,,,,,,,,,
,,,,,SRP24_023,26,female,2024-04-09_16h35.30.276,jersey_experiment_5_v0,2023.2.2,Win32,84.74576271,,,,,,,,,,,,,,,,390.5036,391.5472,391.5472,393.8341,return,1.0827,,54.296875,,,,,,FBP-YG-71.png,0.43,1.2,19,0.25,0,8,8,18,1,,,,,,,,,,,,,,,,,,,,,,,,,,,,,,,,,,,,,,,,
,,,,,SRP24_023,26,female,2024-04-09_16h35.30.276,jersey_experiment_5_v0,2023.2.2,Win32,84.74576271,,,,,,,,,,,,,,,,393.8343,395.1355,395.1355,396.8459,return,0.7297,,67.44791667,,,,,,FBP-OG-19.png,0.45,1.2,15,0.5,0,9,9,14,1,,,,,,,,,,,,,,,,,,,,,,,,,,,,,,,,,,,,,,,,
,,,,,SRP24_023,26,female,2024-04-09_16h35.30.276,jersey_experiment_5_v0,2023.2.2,Win32,84.74576271,,,,,,,,,,,,,,,,396.846,397.8886,397.8887,400.235,return,1.2003,,38.28125,,,,,,FBP-YG-71.png,0.37,1.2,17,0.25,0,10,10,16,1,,,,,,,,,,,,,,,,,,,,,,,,,,,,,,,,,,,,,,,,
,,,,,SRP24_023,26,female,2024-04-09_16h35.30.276,jersey_experiment_5_v0,2023.2.2,Win32,84.74576271,,,,,,,,,,,,,,,,400.2351,401.2802,401.2803,403.058,return,0.4604,,49.73958333,,,,,,FBP-YG-81.png,0.43,1.2,24,0.25,0,11,11,23,1,,,,,,,,,,,,,,,,,,,,,,,,,,,,,,,,,,,,,,,,
,,,,,SRP24_023,26,female,2024-04-09_16h35.30.276,jersey_experiment_5_v0,2023.2.2,Win32,84.74576271,,,,,,,,,,,,,,,,403.0581,404.3628,404.3628,406.1005,return,0.4192,,50,,,,,,FBP-RB-71.png,0.43,1.2,34,0.5,0,12,12,33,1,,,,,,,,,,,,,,,,,,,,,,,,,,,,,,,,,,,,,,,,
,,,,,SRP24_023,26,female,2024-04-09_16h35.30.276,jersey_experiment_5_v0,2023.2.2,Win32,84.74576271,,,,,,,,,,,,,,,,406.1007,407.1476,407.1477,409.9396,return,1.93,,30.46875,,,,,,FBP-PT-81.png,0.35,1.2,51,0.25,0,13,13,50,1,,,,,,,,,,,,,,,,,,,,,,,,,,,,,,,,,,,,,,,,
,,,,,SRP24_023,26,female,2024-04-09_16h35.30.276,jersey_experiment_5_v0,2023.2.2,Win32,84.74576271,,,,,,,,,,,,,,,,409.9398,410.9879,410.988,412.6819,return,0.3424,,49.609375,,,,,,FBP-PT-71.png,0.43,1.2,49,0.25,0,14,14,48,1,,,,,,,,,,,,,,,,,,,,,,,,,,,,,,,,,,,,,,,,
,,,,,SRP24_023,26,female,2024-04-09_16h35.30.276,jersey_experiment_5_v0,2023.2.2,Win32,84.74576271,,,,,,,,,,,,,,,,412.682,413.9833,413.9833,416.6222,return,0.7771,,61.71875,,,,,,FBP-OG-18.png,0.45,1.2,10,0.5,0,15,15,9,1,,,,,,,,,,,,,,,,,,,,,,,,,,,,,,,,,,,,,,,,
,,,,,SRP24_023,26,female,2024-04-09_16h35.30.276,jersey_experiment_5_v0,2023.2.2,Win32,84.74576271,,,,,,,,,,,,,,,,416.6224,417.67,417.67,419.5633,return,0.3871,,32.03125,,,,,,FBP-PT-81.png,0.37,1.2,52,0.25,0,16,16,51,1,,,,,,,,,,,,,,,,,,,,,,,,,,,,,,,,,,,,,,,,
,,,,,SRP24_023,26,female,2024-04-09_16h35.30.276,jersey_experiment_5_v0,2023.2.2,Win32,84.74576271,,,,,,,,,,,,,,,,419.5635,420.607,420.6071,422.7528,return,0.4467,,65.49479167,,,,,,FBP-PT-71.png,0.45,1.2,50,0.25,0,17,17,49,1,,,,,,,,,,,,,,,,,,,,,,,,,,,,,,,,,,,,,,,,
,,,,,SRP24_023,26,female,2024-04-09_16h35.30.276,jersey_experiment_5_v0,2023.2.2,Win32,84.74576271,,,,,,,,,,,,,,,,422.753,424.0468,424.0468,425.3366,return,0.295,,68.48958333,,,,,,FBP-RB-91.png,0.45,1.2,45,0.5,0,18,18,44,1,,,,,,,,,,,,,,,,,,,,,,,,,,,,,,,,,,,,,,,,
,,,,,SRP24_023,26,female,2024-04-09_16h35.30.276,jersey_experiment_5_v0,2023.2.2,Win32,84.74576271,,,,,,,,,,,,,,,,425.3369,426.6308,426.6309,428.2358,return,0.3901,,50,,,,,,FBP-OG-17.png,0.4,1.2,3,0.5,0,19,19,2,1,,,,,,,,,,,,,,,,,,,,,,,,,,,,,,,,,,,,,,,,
,,,,,SRP24_023,26,female,2024-04-09_16h35.30.276,jersey_experiment_5_v0,2023.2.2,Win32,84.74576271,,,,,,,,,,,,,,,,428.236,429.2813,429.2813,431.2708,return,0.565,,36.06770833,,,,,,FBP-PT-91.png,0.35,1.2,56,0.25,0,20,20,55,1,,,,,,,,,,,,,,,,,,,,,,,,,,,,,,,,,,,,,,,,
,,,,,SRP24_023,26,female,2024-04-09_16h35.30.276,jersey_experiment_5_v0,2023.2.2,Win32,84.74576271,,,,,,,,,,,,,,,,431.271,432.3165,432.3165,434.584,return,0.3432,,49.34895833,,,,,,FBP-YG-81.png,0.4,1.2,23,0.25,0,21,21,22,1,,,,,,,,,,,,,,,,,,,,,,,,,,,,,,,,,,,,,,,,
,,,,,SRP24_023,26,female,2024-04-09_16h35.30.276,jersey_experiment_5_v0,2023.2.2,Win32,84.74576271,,,,,,,,,,,,,,,,434.5843,435.8784,435.8784,437.3183,return,0.2958,,35.41666667,,,,,,FBP-OG-17.png,0.35,1.2,1,0.5,0,22,22,0,1,,,,,,,,,,,,,,,,,,,,,,,,,,,,,,,,,,,,,,,,
,,,,,SRP24_023,26,female,2024-04-09_16h35.30.276,jersey_experiment_5_v0,2023.2.2,Win32,84.74576271,,,,,,,,,,,,,,,,437.3185,438.6226,438.6226,440.8243,return,0.2831,,51.04166667,,,,,,FBP-OG-19.png,0.43,1.2,14,0.5,0,23,23,13,1,,,,,,,,,,,,,,,,,,,,,,,,,,,,,,,,,,,,,,,,
,,,,,SRP24_023,26,female,2024-04-09_16h35.30.276,jersey_experiment_5_v0,2023.2.2,Win32,84.74576271,,,,,,,,,,,,,,,,440.8245,441.8697,441.8698,443.4231,return,0.5051,,64.58333333,,,,,,FBP-YG-91.png,0.45,1.2,30,0.25,0,24,24,29,1,,,,,,,,,,,,,,,,,,,,,,,,,,,,,,,,,,,,,,,,
,,,,,SRP24_023,26,female,2024-04-09_16h35.30.276,jersey_experiment_5_v0,2023.2.2,Win32,84.74576271,,,,,,,,,,,,,,,,443.4233,444.4668,444.4669,446.012,return,0.3303,,34.765625,,,,,,FBP-YG-81.png,0.35,1.2,21,0.25,0,25,25,20,1,,,,,,,,,,,,,,,,,,,,,,,,,,,,,,,,,,,,,,,,
,,,,,SRP24_023,26,female,2024-04-09_16h35.30.276,jersey_experiment_5_v0,2023.2.2,Win32,84.74576271,,,,,,,,,,,,,,,,446.0122,447.0551,447.0551,450.3171,return,1.6943,,38.54166667,,,,,,FBP-PT-71.png,0.37,1.2,47,0.25,0,26,26,46,1,,,,,,,,,,,,,,,,,,,,,,,,,,,,,,,,,,,,,,,,
,,,,,SRP24_023,26,female,2024-04-09_16h35.30.276,jersey_experiment_5_v0,2023.2.2,Win32,84.74576271,,,,,,,,,,,,,,,,450.3173,451.3611,451.3611,453.813,return,0.212,,52.47395833,,,,,,FBP-PT-91.png,0.4,1.2,58,0.25,0,27,27,57,1,,,,,,,,,,,,,,,,,,,,,,,,,,,,,,,,,,,,,,,,
,,,,,SRP24_023,26,female,2024-04-09_16h35.30.276,jersey_experiment_5_v0,2023.2.2,Win32,84.74576271,,,,,,,,,,,,,,,,453.8132,454.8554,454.8554,456.9896,return,1.237,,67.70833333,,,,,,FBP-PT-81.png,0.45,1.2,55,0.25,0,28,28,54,1,,,,,,,,,,,,,,,,,,,,,,,,,,,,,,,,,,,,,,,,
,,,,,SRP24_023,26,female,2024-04-09_16h35.30.276,jersey_experiment_5_v0,2023.2.2,Win32,84.74576271,,,,,,,,,,,,,,,,456.9899,458.2908,458.2908,459.7379,return,0.214,,40.88541667,,,,,,FBP-RB-71.png,0.37,1.2,32,0.5,0,29,29,31,1,,,,,,,,,,,,,,,,,,,,,,,,,,,,,,,,,,,,,,,,
,,,,,SRP24_023,26,female,2024-04-09_16h35.30.276,jersey_experiment_5_v0,2023.2.2,Win32,84.74576271,,,,,,,,,,,,,,,,459.7382,460.7881,460.7881,463.044,return,1.3373,,41.66666667,,,,,,FBP-YG-91.png,0.37,1.2,27,0.25,0,30,30,26,1,,,,,,,,,,,,,,,,,,,,,,,,,,,,,,,,,,,,,,,,
,,,,,SRP24_023,26,female,2024-04-09_16h35.30.276,jersey_experiment_5_v0,2023.2.2,Win32,84.74576271,,,,,,,,,,,,,,,,463.0442,464.338,464.3381,466.9899,return,0.8709,,67.96875,,,,,,FBP-OG-17.png,0.45,1.2,5,0.5,0,31,31,4,1,,,,,,,,,,,,,,,,,,,,,,,,,,,,,,,,,,,,,,,,
,,,,,SRP24_023,26,female,2024-04-09_16h35.30.276,jersey_experiment_5_v0,2023.2.2,Win32,84.74576271,,,,,,,,,,,,,,,,466.9902,468.0355,468.0355,470.0123,return,0.2828,,71.875,,,,,,FBP-YG-81.png,0.45,1.2,25,0.25,0,32,32,24,1,,,,,,,,,,,,,,,,,,,,,,,,,,,,,,,,,,,,,,,,
,,,,,SRP24_023,26,female,2024-04-09_16h35.30.276,jersey_experiment_5_v0,2023.2.2,Win32,84.74576271,,,,,,,,,,,,,,,,470.0125,471.3062,471.3063,473.3303,return,0.2355,,62.36979167,,,,,,FBP-OG-17.png,0.43,1.2,4,0.5,0,33,33,3,1,,,,,,,,,,,,,,,,,,,,,,,,,,,,,,,,,,,,,,,,
,,,,,SRP24_023,26,female,2024-04-09_16h35.30.276,jersey_experiment_5_v0,2023.2.2,Win32,84.74576271,,,,,,,,,,,,,,,,473.3304,474.6368,474.6368,477.8799,return,1.1098,,48.30729167,,,,,,FBP-OG-18.png,0.37,1.2,7,0.5,0,34,34,6,1,,,,,,,,,,,,,,,,,,,,,,,,,,,,,,,,,,,,,,,,
,,,,,SRP24_023,26,female,2024-04-09_16h35.30.276,jersey_experiment_5_v0,2023.2.2,Win32,84.74576271,,,,,,,,,,,,,,,,477.8801,479.1739,479.174,480.8917,return,0.3634,,69.79166667,,,,,,FBP-RB-71.png,0.45,1.2,35,0.5,0,35,35,34,1,,,,,,,,,,,,,,,,,,,,,,,,,,,,,,,,,,,,,,,,
,,,,,SRP24_023,26,female,2024-04-09_16h35.30.276,jersey_experiment_5_v0,2023.2.2,Win32,84.74576271,,,,,,,,,,,,,,,,480.8918,482.1903,482.1903,484.2846,return,0.4839,,39.97395833,,,,,,FBP-RB-91.png,0.35,1.2,41,0.5,0,36,36,40,1,,,,,,,,,,,,,,,,,,,,,,,,,,,,,,,,,,,,,,,,
,,,,,SRP24_023,26,female,2024-04-09_16h35.30.276,jersey_experiment_5_v0,2023.2.2,Win32,84.74576271,,,,,,,,,,,,,,,,484.2847,485.5891,485.5891,487.3907,return,0.4135,,44.01041667,,,,,,FBP-OG-19.png,0.4,1.2,13,0.5,0,37,37,12,1,,,,,,,,,,,,,,,,,,,,,,,,,,,,,,,,,,,,,,,,
,,,,,SRP24_023,26,female,2024-04-09_16h35.30.276,jersey_experiment_5_v0,2023.2.2,Win32,84.74576271,,,,,,,,,,,,,,,,487.3909,488.4364,488.4364,490.5439,return,0.8475,,52.47395833,,,,,,FBP-PT-91.png,0.43,1.2,59,0.25,0,38,38,58,1,,,,,,,,,,,,,,,,,,,,,,,,,,,,,,,,,,,,,,,,
,,,,,SRP24_023,26,female,2024-04-09_16h35.30.276,jersey_experiment_5_v0,2023.2.2,Win32,84.74576271,,,,,,,,,,,,,,,,490.544,491.5862,491.5862,493.7543,return,1.3416,,63.28125,,,,,,FBP-YG-71.png,0.45,1.2,20,0.25,0,39,39,19,1,,,,,,,,,,,,,,,,,,,,,,,,,,,,,,,,,,,,,,,,
,,,,,SRP24_023,26,female,2024-04-09_16h35.30.276,jersey_experiment_5_v0,2023.2.2,Win32,84.74576271,,,,,,,,,,,,,,,,493.7544,494.8025,494.8025,497.3544,return,1.2579,,48.4375,,,,,,FBP-YG-71.png,0.4,1.2,18,0.25,0,40,40,17,1,,,,,,,,,,,,,,,,,,,,,,,,,,,,,,,,,,,,,,,,
,,,,,SRP24_023,26,female,2024-04-09_16h35.30.276,jersey_experiment_5_v0,2023.2.2,Win32,84.74576271,,,,,,,,,,,,,,,,497.3546,498.6488,498.6488,499.9901,return,0.3066,,50.78125,,,,,,FBP-RB-91.png,0.43,1.2,44,0.5,0,41,41,43,1,,,,,,,,,,,,,,,,,,,,,,,,,,,,,,,,,,,,,,,,
,,,,,SRP24_023,26,female,2024-04-09_16h35.30.276,jersey_experiment_5_v0,2023.2.2,Win32,84.74576271,,,,,,,,,,,,,,,,499.9903,501.0336,501.0337,502.2382,return,0.4235,,48.69791667,,,,,,FBP-PT-71.png,0.4,1.2,48,0.25,0,42,42,47,1,,,,,,,,,,,,,,,,,,,,,,,,,,,,,,,,,,,,,,,,
,,,,,SRP24_023,26,female,2024-04-09_16h35.30.276,jersey_experiment_5_v0,2023.2.2,Win32,84.74576271,,,,,,,,,,,,,,,,502.2383,503.5323,503.5324,505.1796,return,0.7898,,36.71875,,,,,,FBP-OG-19.png,0.35,1.2,11,0.5,0,43,43,10,1,,,,,,,,,,,,,,,,,,,,,,,,,,,,,,,,,,,,,,,,
,,,,,SRP24_023,26,female,2024-04-09_16h35.30.276,jersey_experiment_5_v0,2023.2.2,Win32,84.74576271,,,,,,,,,,,,,,,,505.1797,506.2221,506.2221,508.2728,return,0.3771,,52.60416667,,,,,,FBP-YG-91.png,0.43,1.2,29,0.25,0,44,44,28,1,,,,,,,,,,,,,,,,,,,,,,,,,,,,,,,,,,,,,,,,
,,,,,SRP24_023,26,female,2024-04-09_16h35.30.276,jersey_experiment_5_v0,2023.2.2,Win32,84.74576271,,,,,,,,,,,,,,,,508.2729,509.575,509.575,511.9434,return,0.8578,,48.95833333,,,,,,FBP-RB-91.png,0.4,1.2,43,0.5,0,45,45,42,1,,,,,,,,,,,,,,,,,,,,,,,,,,,,,,,,,,,,,,,,
,,,,,SRP24_023,26,female,2024-04-09_16h35.30.276,jersey_experiment_5_v0,2023.2.2,Win32,84.74576271,,,,,,,,,,,,,,,,511.9434,513.2458,513.2458,515.9095,return,1.6607,,38.41145833,,,,,,FBP-RB-91.png,0.37,1.2,42,0.5,0,46,46,41,1,,,,,,,,,,,,,,,,,,,,,,,,,,,,,,,,,,,,,,,,
,,,,,SRP24_023,26,female,2024-04-09_16h35.30.276,jersey_experiment_5_v0,2023.2.2,Win32,84.74576271,,,,,,,,,,,,,,,,515.9097,516.9518,516.9519,518.2156,return,0.2592,,30.59895833,,,,,,FBP-PT-91.png,0.37,1.2,57,0.25,0,47,47,56,1,,,,,,,,,,,,,,,,,,,,,,,,,,,,,,,,,,,,,,,,
,,,,,SRP24_023,26,female,2024-04-09_16h35.30.276,jersey_experiment_5_v0,2023.2.2,Win32,84.74576271,,,,,,,,,,,,,,,,518.2159,519.5166,519.5166,520.6814,return,0.3658,,28.38541667,,,,,,FBP-RB-81.png,0.35,1.2,36,0.5,0,48,48,35,1,,,,,,,,,,,,,,,,,,,,,,,,,,,,,,,,,,,,,,,,
,,,,,SRP24_023,26,female,2024-04-09_16h35.30.276,jersey_experiment_5_v0,2023.2.2,Win32,84.74576271,,,,,,,,,,,,,,,,520.6816,521.7319,521.7319,524.885,return,0.3873,,66.92708333,,,,,,FBP-PT-91.png,0.45,1.2,60,0.25,0,49,49,59,1,,,,,,,,,,,,,,,,,,,,,,,,,,,,,,,,,,,,,,,,
,,,,,SRP24_023,26,female,2024-04-09_16h35.30.276,jersey_experiment_5_v0,2023.2.2,Win32,84.74576271,,,,,,,,,,,,,,,,524.8853,526.1919,526.1919,529.8936,return,0.8524,,49.08854167,,,,,,FBP-OG-19.png,0.37,1.2,12,0.5,0,50,50,11,1,,,,,,,,,,,,,,,,,,,,,,,,,,,,,,,,,,,,,,,,
,,,,,SRP24_023,26,female,2024-04-09_16h35.30.276,jersey_experiment_5_v0,2023.2.2,Win32,84.74576271,,,,,,,,,,,,,,,,529.8937,531.1877,531.1878,532.7101,return,0.2248,,36.06770833,,,,,,FBP-OG-18.png,0.35,1.2,6,0.5,0,51,51,5,1,,,,,,,,,,,,,,,,,,,,,,,,,,,,,,,,,,,,,,,,
,,,,,SRP24_023,26,female,2024-04-09_16h35.30.276,jersey_experiment_5_v0,2023.2.2,Win32,84.74576271,,,,,,,,,,,,,,,,532.7102,534.0039,534.004,535.3923,return,0.6249,,35.02604167,,,,,,FBP-RB-71.png,0.4,1.2,33,0.5,0,52,52,32,1,,,,,,,,,,,,,,,,,,,,,,,,,,,,,,,,,,,,,,,,
,,,,,SRP24_023,26,female,2024-04-09_16h35.30.276,jersey_experiment_5_v0,2023.2.2,Win32,84.74576271,,,,,,,,,,,,,,,,535.3924,536.4383,536.4383,540.1219,return,2.2251,,25.91145833,,,,,,FBP-PT-71.png,0.35,1.2,46,0.25,0,53,53,45,1,,,,,,,,,,,,,,,,,,,,,,,,,,,,,,,,,,,,,,,,
,,,,,SRP24_023,26,female,2024-04-09_16h35.30.276,jersey_experiment_5_v0,2023.2.2,Win32,84.74576271,,,,,,,,,,,,,,,,540.1221,541.4266,541.4267,542.7816,return,0.3197,,25.26041667,,,,,,FBP-RB-71.png,0.35,1.2,31,0.5,0,54,54,30,1,,,,,,,,,,,,,,,,,,,,,,,,,,,,,,,,,,,,,,,,
,,,,,SRP24_023,26,female,2024-04-09_16h35.30.276,jersey_experiment_5_v0,2023.2.2,Win32,84.74576271,,,,,,,,,,,,,,,,542.7818,543.8233,543.8234,545.7462,return,1.0724,,24.47916667,,,,,,FBP-YG-71.png,0.35,1.2,16,0.25,0,55,55,15,1,,,,,,,,,,,,,,,,,,,,,,,,,,,,,,,,,,,,,,,,
,,,,,SRP24_023,26,female,2024-04-09_16h35.30.276,jersey_experiment_5_v0,2023.2.2,Win32,84.74576271,,,,,,,,,,,,,,,,545.7464,546.7884,546.7885,550.1095,return,2.3769,,31.77083333,,,,,,FBP-YG-81.png,0.37,1.2,22,0.25,0,56,56,21,1,,,,,,,,,,,,,,,,,,,,,,,,,,,,,,,,,,,,,,,,
,,,,,SRP24_023,26,female,2024-04-09_16h35.30.276,jersey_experiment_5_v0,2023.2.2,Win32,84.74576271,,,,,,,,,,,,,,,,550.1097,551.1531,551.1531,553.5822,return,0.7901,,26.04166667,,,,,,FBP-YG-91.png,0.35,1.2,26,0.25,0,57,57,25,1,,,,,,,,,,,,,,,,,,,,,,,,,,,,,,,,,,,,,,,,
,,,,,SRP24_023,26,female,2024-04-09_16h35.30.276,jersey_experiment_5_v0,2023.2.2,Win32,84.74576271,,,,,,,,,,,,,,,,553.5824,554.8857,554.8857,557.1298,return,0.7311,,49.47916667,,,,,,FBP-OG-18.png,0.4,1.2,8,0.5,0,58,58,7,1,,,,,,,,,,,,,,,,,,,,,,,,,,,,,,,,,,,,,,,,
,,,,,SRP24_023,26,female,2024-04-09_16h35.30.276,jersey_experiment_5_v0,2023.2.2,Win32,84.74576271,,,,,,,,,,,,,,,,557.1301,558.4287,558.4288,560.0241,return,0.3334,,58.59375,,,,,,FBP-OG-18.png,0.43,1.2,9,0.5,0,59,59,8,1,,,,,,,,,,,,,,,,,,,,,,,,,,,,,,,,,,,,,,,,
,,,,,SRP24_023,26,female,2024-04-09_16h35.30.276,jersey_experiment_5_v0,2023.2.2,Win32,84.74576271,,,,,,,,,,,,,,,,,,,,,,,,,,,,,,,,,,,,,,,560.0245,680.0174,,,,,,,,,,,,,,,,,,,,,,,,,,,,,,,,,,,,,,
,,,,,SRP24_023,26,female,2024-04-09_16h35.30.276,jersey_experiment_5_v0,2023.2.2,Win32,84.74576271,,,,,,,,,,,,,,,,,,,,,,,,,,,,,,,,,,,,,,,,,680.0174,682.2758,return,2.2424,,,,,,,,,,,,,,,,,,,,,,,,,,,,,,,,,,
,,,,,SRP24_023,26,female,2024-04-09_16h35.30.276,jersey_experiment_5_v0,2023.2.2,Win32,84.74576271,,,,,,,,,,,,,,,,682.282,683.5817,683.5817,688.1851,return,2.3294,,45.96354167,,,,,,FBP-PT-19.png,0.35,1.2,56,0.5,,,,,,,,,,,,,0,0,0,55,1,,,,,,,,,,,,,,,,,,,,,,,,,,,,
,,,,,SRP24_023,26,female,2024-04-09_16h35.30.276,jersey_experiment_5_v0,2023.2.2,Win32,84.74576271,,,,,,,,,,,,,,,,688.1852,689.2289,689.229,691.5939,return,0.3922,,49.86979167,,,,,,FBP-RB-18.png,0.4,1.2,38,0.25,,,,,,,,,,,,,0,1,1,37,1,,,,,,,,,,,,,,,,,,,,,,,,,,,,
,,,,,SRP24_023,26,female,2024-04-09_16h35.30.276,jersey_experiment_5_v0,2023.2.2,Win32,84.74576271,,,,,,,,,,,,,,,,691.594,692.8879,692.888,694.1822,return,0.3707,,40.88541667,,,,,,FBP-PT-18.png,0.35,1.2,51,0.5,,,,,,,,,,,,,0,2,2,50,1,,,,,,,,,,,,,,,,,,,,,,,,,,,,
,,,,,SRP24_023,26,female,2024-04-09_16h35.30.276,jersey_experiment_5_v0,2023.2.2,Win32,84.74576271,,,,,,,,,,,,,,,,694.1823,695.4793,695.4793,697.6058,return,0.3593,,58.59375,,,,,,FBP-PT-18.png,0.43,1.2,54,0.5,,,,,,,,,,,,,0,3,3,53,1,,,,,,,,,,,,,,,,,,,,,,,,,,,,
,,,,,SRP24_023,26,female,2024-04-09_16h35.30.276,jersey_experiment_5_v0,2023.2.2,Win32,84.74576271,,,,,,,,,,,,,,,,697.6059,698.6527,698.6527,701.0327,return,1.3648,,41.14583333,,,,,,FBP-RB-19.png,0.37,1.2,42,0.25,,,,,,,,,,,,,0,4,4,41,1,,,,,,,,,,,,,,,,,,,,,,,,,,,,
,,,,,SRP24_023,26,female,2024-04-09_16h35.30.276,jersey_experiment_5_v0,2023.2.2,Win32,84.74576271,,,,,,,,,,,,,,,,701.0328,702.081,702.081,703.8696,return,0.5545,,38.02083333,,,,,,FBP-OG-81.png,0.35,1.2,6,0.25,,,,,,,,,,,,,0,5,5,5,1,,,,,,,,,,,,,,,,,,,,,,,,,,,,
,,,,,SRP24_023,26,female,2024-04-09_16h35.30.276,jersey_experiment_5_v0,2023.2.2,Win32,84.74576271,,,,,,,,,,,,,,,,703.8697,705.174,705.174,709.4095,return,3.0116,,68.359375,,,,,,FBP-YG-17.png,0.45,1.2,20,0.5,,,,,,,,,,,,,0,6,6,19,1,,,,,,,,,,,,,,,,,,,,,,,,,,,,
,,,,,SRP24_023,26,female,2024-04-09_16h35.30.276,jersey_experiment_5_v0,2023.2.2,Win32,84.74576271,,,,,,,,,,,,,,,,709.4097,710.4532,710.4533,711.8333,return,0.5755,,62.5,,,,,,FBP-OG-71.png,0.43,1.2,4,0.25,,,,,,,,,,,,,0,7,7,3,1,,,,,,,,,,,,,,,,,,,,,,,,,,,,
,,,,,SRP24_023,26,female,2024-04-09_16h35.30.276,jersey_experiment_5_v0,2023.2.2,Win32,84.74576271,,,,,,,,,,,,,,,,711.8335,713.1405,713.1406,717.9745,return,3.9873,,47.91666667,,,,,,FBP-PT-18.png,0.4,1.2,53,0.5,,,,,,,,,,,,,0,8,8,52,1,,,,,,,,,,,,,,,,,,,,,,,,,,,,
,,,,,SRP24_023,26,female,2024-04-09_16h35.30.276,jersey_experiment_5_v0,2023.2.2,Win32,84.74576271,,,,,,,,,,,,,,,,717.9746,719.2686,719.2686,720.5059,return,0.354,,53.25520833,,,,,,FBP-YG-19.png,0.43,1.2,29,0.5,,,,,,,,,,,,,0,9,9,28,1,,,,,,,,,,,,,,,,,,,,,,,,,,,,
,,,,,SRP24_023,26,female,2024-04-09_16h35.30.276,jersey_experiment_5_v0,2023.2.2,Win32,84.74576271,,,,,,,,,,,,,,,,720.506,721.548,721.548,724.069,return,0.3167,,73.30729167,,,,,,FBP-OG-81.png,0.45,1.2,10,0.25,,,,,,,,,,,,,0,10,10,9,1,,,,,,,,,,,,,,,,,,,,,,,,,,,,
,,,,,SRP24_023,26,female,2024-04-09_16h35.30.276,jersey_experiment_5_v0,2023.2.2,Win32,84.74576271,,,,,,,,,,,,,,,,724.0691,725.3764,725.3764,727.5598,return,0.3572,,56.38020833,,,,,,FBP-PT-17.png,0.43,1.2,49,0.5,,,,,,,,,,,,,0,11,11,48,1,,,,,,,,,,,,,,,,,,,,,,,,,,,,
,,,,,SRP24_023,26,female,2024-04-09_16h35.30.276,jersey_experiment_5_v0,2023.2.2,Win32,84.74576271,,,,,,,,,,,,,,,,727.56,728.6069,728.607,730.4892,return,0.5424,,49.609375,,,,,,FBP-OG-81.png,0.4,1.2,8,0.25,,,,,,,,,,,,,0,12,12,7,1,,,,,,,,,,,,,,,,,,,,,,,,,,,,
,,,,,SRP24_023,26,female,2024-04-09_16h35.30.276,jersey_experiment_5_v0,2023.2.2,Win32,84.74576271,,,,,,,,,,,,,,,,730.4894,731.542,731.5421,732.9762,return,0.3662,,49.86979167,,,,,,FBP-OG-91.png,0.4,1.2,13,0.25,,,,,,,,,,,,,0,13,13,12,1,,,,,,,,,,,,,,,,,,,,,,,,,,,,
,,,,,SRP24_023,26,female,2024-04-09_16h35.30.276,jersey_experiment_5_v0,2023.2.2,Win32,84.74576271,,,,,,,,,,,,,,,,732.9764,734.2704,734.2704,736.5637,return,1.1065,,63.54166667,,,,,,FBP-PT-18.png,0.45,1.2,55,0.5,,,,,,,,,,,,,0,14,14,54,1,,,,,,,,,,,,,,,,,,,,,,,,,,,,
,,,,,SRP24_023,26,female,2024-04-09_16h35.30.276,jersey_experiment_5_v0,2023.2.2,Win32,84.74576271,,,,,,,,,,,,,,,,736.5638,737.6117,737.6117,739.0941,return,0.3897,,37.36979167,,,,,,FBP-OG-71.png,0.35,1.2,1,0.25,,,,,,,,,,,,,0,15,15,0,1,,,,,,,,,,,,,,,,,,,,,,,,,,,,
,,,,,SRP24_023,26,female,2024-04-09_16h35.30.276,jersey_experiment_5_v0,2023.2.2,Win32,84.74576271,,,,,,,,,,,,,,,,739.0943,740.3988,740.3989,742.7282,return,1.2943,,61.97916667,,,,,,FBP-YG-18.png,0.45,1.2,25,0.5,,,,,,,,,,,,,0,16,16,24,1,,,,,,,,,,,,,,,,,,,,,,,,,,,,
,,,,,SRP24_023,26,female,2024-04-09_16h35.30.276,jersey_experiment_5_v0,2023.2.2,Win32,84.74576271,,,,,,,,,,,,,,,,742.7283,743.7721,743.7722,744.8781,return,0.3169,,68.88020833,,,,,,FBP-RB-19.png,0.45,1.2,45,0.25,,,,,,,,,,,,,0,17,17,44,1,,,,,,,,,,,,,,,,,,,,,,,,,,,,
,,,,,SRP24_023,26,female,2024-04-09_16h35.30.276,jersey_experiment_5_v0,2023.2.2,Win32,84.74576271,,,,,,,,,,,,,,,,744.8782,746.1722,746.1722,747.4582,return,0.3403,,68.88020833,,,,,,FBP-YG-19.png,0.45,1.2,30,0.5,,,,,,,,,,,,,0,18,18,29,1,,,,,,,,,,,,,,,,,,,,,,,,,,,,
,,,,,SRP24_023,26,female,2024-04-09_16h35.30.276,jersey_experiment_5_v0,2023.2.2,Win32,84.74576271,,,,,,,,,,,,,,,,747.4584,748.752,748.752,752.7416,return,0.2952,,50.13020833,,,,,,FBP-YG-19.png,0.4,1.2,28,0.5,,,,,,,,,,,,,0,19,19,27,1,,,,,,,,,,,,,,,,,,,,,,,,,,,,
,,,,,SRP24_023,26,female,2024-04-09_16h35.30.276,jersey_experiment_5_v0,2023.2.2,Win32,84.74576271,,,,,,,,,,,,,,,,752.7417,754.0431,754.0431,755.2901,return,0.3068,,38.15104167,,,,,,FBP-YG-18.png,0.37,1.2,22,0.5,,,,,,,,,,,,,0,20,20,21,1,,,,,,,,,,,,,,,,,,,,,,,,,,,,
,,,,,SRP24_023,26,female,2024-04-09_16h35.30.276,jersey_experiment_5_v0,2023.2.2,Win32,84.74576271,,,,,,,,,,,,,,,,755.2904,756.3373,756.3373,760.3259,return,2.5595,,50.26041667,,,,,,FBP-RB-17.png,0.4,1.2,33,0.25,,,,,,,,,,,,,0,21,21,32,1,,,,,,,,,,,,,,,,,,,,,,,,,,,,
,,,,,SRP24_023,26,female,2024-04-09_16h35.30.276,jersey_experiment_5_v0,2023.2.2,Win32,84.74576271,,,,,,,,,,,,,,,,760.3262,761.62,761.62,763.2365,return,0.3428,,47.78645833,,,,,,FBP-YG-19.png,0.37,1.2,27,0.5,,,,,,,,,,,,,0,22,22,26,1,,,,,,,,,,,,,,,,,,,,,,,,,,,,
,,,,,SRP24_023,26,female,2024-04-09_16h35.30.276,jersey_experiment_5_v0,2023.2.2,Win32,84.74576271,,,,,,,,,,,,,,,,763.2366,764.2788,764.2789,766.1881,return,0.9283,,36.58854167,,,,,,FBP-RB-19.png,0.35,1.2,41,0.25,,,,,,,,,,,,,0,23,23,40,1,,,,,,,,,,,,,,,,,,,,,,,,,,,,
,,,,,SRP24_023,26,female,2024-04-09_16h35.30.276,jersey_experiment_5_v0,2023.2.2,Win32,84.74576271,,,,,,,,,,,,,,,,766.1882,767.4822,767.4823,768.9071,return,0.5074,,32.03125,,,,,,FBP-PT-19.png,0.37,1.2,57,0.5,,,,,,,,,,,,,0,24,24,56,1,,,,,,,,,,,,,,,,,,,,,,,,,,,,
,,,,,SRP24_023,26,female,2024-04-09_16h35.30.276,jersey_experiment_5_v0,2023.2.2,Win32,84.74576271,,,,,,,,,,,,,,,,768.9072,770.2012,770.2012,772.7532,return,1.0358,,60.41666667,,,,,,FBP-PT-19.png,0.43,1.2,59,0.5,,,,,,,,,,,,,0,25,25,58,1,,,,,,,,,,,,,,,,,,,,,,,,,,,,
,,,,,SRP24_023,26,female,2024-04-09_16h35.30.276,jersey_experiment_5_v0,2023.2.2,Win32,84.74576271,,,,,,,,,,,,,,,,772.7533,774.0602,774.0602,776.4206,return,1.2431,,46.484375,,,,,,FBP-YG-17.png,0.35,1.2,16,0.5,,,,,,,,,,,,,0,26,26,15,1,,,,,,,,,,,,,,,,,,,,,,,,,,,,
,,,,,SRP24_023,26,female,2024-04-09_16h35.30.276,jersey_experiment_5_v0,2023.2.2,Win32,84.74576271,,,,,,,,,,,,,,,,776.4208,777.4676,777.4676,780.0841,return,1.8829,,45.96354167,,,,,,FBP-RB-17.png,0.37,1.2,32,0.25,,,,,,,,,,,,,0,27,27,31,1,,,,,,,,,,,,,,,,,,,,,,,,,,,,
,,,,,SRP24_023,26,female,2024-04-09_16h35.30.276,jersey_experiment_5_v0,2023.2.2,Win32,84.74576271,,,,,,,,,,,,,,,,780.0842,781.1266,781.1266,782.0005,return,0.3401,,38.41145833,,,,,,FBP-OG-91.png,0.35,1.2,11,0.25,,,,,,,,,,,,,0,28,28,10,1,,,,,,,,,,,,,,,,,,,,,,,,,,,,
,,,,,SRP24_023,26,female,2024-04-09_16h35.30.276,jersey_experiment_5_v0,2023.2.2,Win32,84.74576271,,,,,,,,,,,,,,,,782.0006,783.2945,783.2945,785.8126,return,1.6712,,28.25520833,,,,,,FBP-YG-18.png,0.35,1.2,21,0.5,,,,,,,,,,,,,0,29,29,20,1,,,,,,,,,,,,,,,,,,,,,,,,,,,,
,,,,,SRP24_023,26,female,2024-04-09_16h35.30.276,jersey_experiment_5_v0,2023.2.2,Win32,84.74576271,,,,,,,,,,,,,,,,785.8128,787.115,787.115,788.33,return,0.3296,,31.51041667,,,,,,FBP-PT-17.png,0.35,1.2,46,0.5,,,,,,,,,,,,,0,30,30,45,1,,,,,,,,,,,,,,,,,,,,,,,,,,,,
,,,,,SRP24_023,26,female,2024-04-09_16h35.30.276,jersey_experiment_5_v0,2023.2.2,Win32,84.74576271,,,,,,,,,,,,,,,,788.3302,789.3739,789.3739,792.0846,return,1.271,,76.43229167,,,,,,FBP-OG-91.png,0.45,1.2,15,0.25,,,,,,,,,,,,,0,31,31,14,1,,,,,,,,,,,,,,,,,,,,,,,,,,,,
,,,,,SRP24_023,26,female,2024-04-09_16h35.30.276,jersey_experiment_5_v0,2023.2.2,Win32,84.74576271,,,,,,,,,,,,,,,,792.0848,793.3892,793.3892,795.1443,return,0.3072,,50,,,,,,FBP-YG-17.png,0.37,1.2,17,0.5,,,,,,,,,,,,,0,32,32,16,1,,,,,,,,,,,,,,,,,,,,,,,,,,,,
,,,,,SRP24_023,26,female,2024-04-09_16h35.30.276,jersey_experiment_5_v0,2023.2.2,Win32,84.74576271,,,,,,,,,,,,,,,,795.1444,796.1859,796.1859,797.6245,return,0.4812,,49.34895833,,,,,,FBP-OG-81.png,0.37,1.2,7,0.25,,,,,,,,,,,,,0,33,33,6,1,,,,,,,,,,,,,,,,,,,,,,,,,,,,
,,,,,SRP24_023,26,female,2024-04-09_16h35.30.276,jersey_experiment_5_v0,2023.2.2,Win32,84.74576271,,,,,,,,,,,,,,,,797.6247,798.6685,798.6685,800.1425,return,0.2933,,54.296875,,,,,,FBP-OG-81.png,0.43,1.2,9,0.25,,,,,,,,,,,,,0,34,34,8,1,,,,,,,,,,,,,,,,,,,,,,,,,,,,
,,,,,SRP24_023,26,female,2024-04-09_16h35.30.276,jersey_experiment_5_v0,2023.2.2,Win32,84.74576271,,,,,,,,,,,,,,,,800.1426,801.4492,801.4492,803.366,return,0.3298,,56.90104167,,,,,,FBP-YG-18.png,0.43,1.2,24,0.5,,,,,,,,,,,,,0,35,35,23,1,,,,,,,,,,,,,,,,,,,,,,,,,,,,
,,,,,SRP24_023,26,female,2024-04-09_16h35.30.276,jersey_experiment_5_v0,2023.2.2,Win32,84.74576271,,,,,,,,,,,,,,,,803.3662,804.4138,804.4138,808.0689,return,0.3359,,49.73958333,,,,,,FBP-RB-18.png,0.37,1.2,37,0.25,,,,,,,,,,,,,0,36,36,36,1,,,,,,,,,,,,,,,,,,,,,,,,,,,,
,,,,,SRP24_023,26,female,2024-04-09_16h35.30.276,jersey_experiment_5_v0,2023.2.2,Win32,84.74576271,,,,,,,,,,,,,,,,808.069,809.363,809.363,810.9086,return,0.3662,,49.609375,,,,,,FBP-YG-17.png,0.4,1.2,18,0.5,,,,,,,,,,,,,0,37,37,17,1,,,,,,,,,,,,,,,,,,,,,,,,,,,,
,,,,,SRP24_023,26,female,2024-04-09_16h35.30.276,jersey_experiment_5_v0,2023.2.2,Win32,84.74576271,,,,,,,,,,,,,,,,810.9088,811.9513,811.9513,813.7558,return,0.2487,,35.80729167,,,,,,FBP-RB-18.png,0.35,1.2,36,0.25,,,,,,,,,,,,,0,38,38,35,1,,,,,,,,,,,,,,,,,,,,,,,,,,,,
,,,,,SRP24_023,26,female,2024-04-09_16h35.30.276,jersey_experiment_5_v0,2023.2.2,Win32,84.74576271,,,,,,,,,,,,,,,,813.756,814.7984,814.7984,817.1916,return,1.496,,56.77083333,,,,,,FBP-RB-18.png,0.43,1.2,39,0.25,,,,,,,,,,,,,0,39,39,38,1,,,,,,,,,,,,,,,,,,,,,,,,,,,,
,,,,,SRP24_023,26,female,2024-04-09_16h35.30.276,jersey_experiment_5_v0,2023.2.2,Win32,84.74576271,,,,,,,,,,,,,,,,817.1917,818.2338,818.2339,820.9046,return,0.2496,,54.296875,,,,,,FBP-OG-91.png,0.37,1.2,12,0.25,,,,,,,,,,,,,0,40,40,11,1,,,,,,,,,,,,,,,,,,,,,,,,,,,,
,,,,,SRP24_023,26,female,2024-04-09_16h35.30.276,jersey_experiment_5_v0,2023.2.2,Win32,84.74576271,,,,,,,,,,,,,,,,820.9048,822.2034,822.2034,824.4256,return,0.293,,46.09375,,,,,,FBP-YG-19.png,0.35,1.2,26,0.5,,,,,,,,,,,,,0,41,41,25,1,,,,,,,,,,,,,,,,,,,,,,,,,,,,
,,,,,SRP24_023,26,female,2024-04-09_16h35.30.276,jersey_experiment_5_v0,2023.2.2,Win32,84.74576271,,,,,,,,,,,,,,,,824.4258,825.7195,825.7195,826.9093,return,0.2813,,49.86979167,,,,,,FBP-PT-17.png,0.37,1.2,47,0.5,,,,,,,,,,,,,0,42,42,46,1,,,,,,,,,,,,,,,,,,,,,,,,,,,,
,,,,,SRP24_023,26,female,2024-04-09_16h35.30.276,jersey_experiment_5_v0,2023.2.2,Win32,84.74576271,,,,,,,,,,,,,,,,826.9094,827.9519,827.9519,829.545,return,0.3428,,60.41666667,,,,,,FBP-OG-91.png,0.43,1.2,14,0.25,,,,,,,,,,,,,0,43,43,13,1,,,,,,,,,,,,,,,,,,,,,,,,,,,,
,,,,,SRP24_023,26,female,2024-04-09_16h35.30.276,jersey_experiment_5_v0,2023.2.2,Win32,84.74576271,,,,,,,,,,,,,,,,829.5452,830.8496,830.8496,832.873,return,0.9415,,76.04166667,,,,,,FBP-PT-17.png,0.45,1.2,50,0.5,,,,,,,,,,,,,0,44,44,49,1,,,,,,,,,,,,,,,,,,,,,,,,,,,,
,,,,,SRP24_023,26,female,2024-04-09_16h35.30.276,jersey_experiment_5_v0,2023.2.2,Win32,84.74576271,,,,,,,,,,,,,,,,832.8731,834.1668,834.1669,836.2815,return,1.1308,,72.78645833,,,,,,FBP-YG-17.png,0.43,1.2,19,0.5,,,,,,,,,,,,,0,45,45,18,1,,,,,,,,,,,,,,,,,,,,,,,,,,,,
,,,,,SRP24_023,26,female,2024-04-09_16h35.30.276,jersey_experiment_5_v0,2023.2.2,Win32,84.74576271,,,,,,,,,,,,,,,,836.2819,837.5757,837.5757,838.9639,return,0.3491,,66.40625,,,,,,FBP-PT-17.png,0.4,1.2,48,0.5,,,,,,,,,,,,,0,46,46,47,1,,,,,,,,,,,,,,,,,,,,,,,,,,,,
,,,,,SRP24_023,26,female,2024-04-09_16h35.30.276,jersey_experiment_5_v0,2023.2.2,Win32,84.74576271,,,,,,,,,,,,,,,,838.9642,840.0111,840.0112,841.3911,return,0.4477,,68.61979167,,,,,,FBP-RB-19.png,0.43,1.2,44,0.25,,,,,,,,,,,,,0,47,47,43,1,,,,,,,,,,,,,,,,,,,,,,,,,,,,
,,,,,SRP24_023,26,female,2024-04-09_16h35.30.276,jersey_experiment_5_v0,2023.2.2,Win32,84.74576271,,,,,,,,,,,,,,,,841.3912,842.4347,842.4347,844.5336,return,1.3076,,64.453125,,,,,,FBP-RB-17.png,0.43,1.2,34,0.25,,,,,,,,,,,,,0,48,48,33,1,,,,,,,,,,,,,,,,,,,,,,,,,,,,
,,,,,SRP24_023,26,female,2024-04-09_16h35.30.276,jersey_experiment_5_v0,2023.2.2,Win32,84.74576271,,,,,,,,,,,,,,,,844.5337,845.576,845.576,847.1559,return,0.8709,,69.921875,,,,,,FBP-OG-71.png,0.45,1.2,5,0.25,,,,,,,,,,,,,0,49,49,4,1,,,,,,,,,,,,,,,,,,,,,,,,,,,,
,,,,,SRP24_023,26,female,2024-04-09_16h35.30.276,jersey_experiment_5_v0,2023.2.2,Win32,84.74576271,,,,,,,,,,,,,,,,847.156,848.4585,848.4585,850.3457,return,0.3901,,55.98958333,,,,,,FBP-PT-19.png,0.4,1.2,58,0.5,,,,,,,,,,,,,0,50,50,57,1,,,,,,,,,,,,,,,,,,,,,,,,,,,,
,,,,,SRP24_023,26,female,2024-04-09_16h35.30.276,jersey_experiment_5_v0,2023.2.2,Win32,84.74576271,,,,,,,,,,,,,,,,850.3459,851.6501,851.6501,853.2398,return,0.2829,,44.66145833,,,,,,FBP-PT-18.png,0.37,1.2,52,0.5,,,,,,,,,,,,,0,51,51,51,1,,,,,,,,,,,,,,,,,,,,,,,,,,,,
,,,,,SRP24_023,26,female,2024-04-09_16h35.30.276,jersey_experiment_5_v0,2023.2.2,Win32,84.74576271,,,,,,,,,,,,,,,,853.24,854.2821,854.2822,856.581,return,0.3767,,73.95833333,,,,,,FBP-RB-18.png,0.45,1.2,40,0.25,,,,,,,,,,,,,0,52,52,39,1,,,,,,,,,,,,,,,,,,,,,,,,,,,,
,,,,,SRP24_023,26,female,2024-04-09_16h35.30.276,jersey_experiment_5_v0,2023.2.2,Win32,84.74576271,,,,,,,,,,,,,,,,856.5812,857.6266,857.6266,859.5798,return,0.6592,,57.16145833,,,,,,FBP-OG-71.png,0.4,1.2,3,0.25,,,,,,,,,,,,,0,53,53,2,1,,,,,,,,,,,,,,,,,,,,,,,,,,,,
,,,,,SRP24_023,26,female,2024-04-09_16h35.30.276,jersey_experiment_5_v0,2023.2.2,Win32,84.74576271,,,,,,,,,,,,,,,,859.58,860.6283,860.6284,862.106,return,0.3549,,37.63020833,,,,,,FBP-RB-17.png,0.35,1.2,31,0.25,,,,,,,,,,,,,0,54,54,30,1,,,,,,,,,,,,,,,,,,,,,,,,,,,,
,,,,,SRP24_023,26,female,2024-04-09_16h35.30.276,jersey_experiment_5_v0,2023.2.2,Win32,84.74576271,,,,,,,,,,,,,,,,862.1063,863.4002,863.4003,865.0286,return,0.4002,,51.171875,,,,,,FBP-YG-18.png,0.4,1.2,23,0.5,,,,,,,,,,,,,0,55,55,22,1,,,,,,,,,,,,,,,,,,,,,,,,,,,,
,,,,,SRP24_023,26,female,2024-04-09_16h35.30.276,jersey_experiment_5_v0,2023.2.2,Win32,84.74576271,,,,,,,,,,,,,,,,865.0288,866.3297,866.3298,867.9935,return,0.7429,,71.61458333,,,,,,FBP-PT-19.png,0.45,1.2,60,0.5,,,,,,,,,,,,,0,56,56,59,1,,,,,,,,,,,,,,,,,,,,,,,,,,,,
,,,,,SRP24_023,26,female,2024-04-09_16h35.30.276,jersey_experiment_5_v0,2023.2.2,Win32,84.74576271,,,,,,,,,,,,,,,,867.9937,869.0357,869.0357,872.1065,return,0.2472,,48.30729167,,,,,,FBP-OG-71.png,0.37,1.2,2,0.25,,,,,,,,,,,,,0,57,57,1,1,,,,,,,,,,,,,,,,,,,,,,,,,,,,
,,,,,SRP24_023,26,female,2024-04-09_16h35.30.276,jersey_experiment_5_v0,2023.2.2,Win32,84.74576271,,,,,,,,,,,,,,,,872.1066,873.1536,873.1536,874.6627,return,0.3533,,55.33854167,,,,,,FBP-RB-19.png,0.4,1.2,43,0.25,,,,,,,,,,,,,0,58,58,42,1,,,,,,,,,,,,,,,,,,,,,,,,,,,,
,,,,,SRP24_023,26,female,2024-04-09_16h35.30.276,jersey_experiment_5_v0,2023.2.2,Win32,84.74576271,,,,,,,,,,,,,,,,874.6628,875.7065,875.7066,877.5773,return,0.4386,,78.125,,,,,,FBP-RB-17.png,0.45,1.2,35,0.25,,,,,,,,,,,,,0,59,59,34,1,,,,,,,,,,,,,,,,,,,,,,,,,,,,
,,,,,SRP24_023,26,female,2024-04-09_16h35.30.276,jersey_experiment_5_v0,2023.2.2,Win32,84.74576271,,,,,,,,,,,,,,,,877.5793,878.6287,878.6287,881.8054,return,0.2592,,52.47395833,,,,,,FBP-RB-91.png,0.4,1.2,43,0.25,,,,,,,,,,,,,,,,,,0,0,0,42,1,,,,,,,,,,,,,,,,,,,,,,,
,,,,,SRP24_023,26,female,2024-04-09_16h35.30.276,jersey_experiment_5_v0,2023.2.2,Win32,84.74576271,,,,,,,,,,,,,,,,881.8057,883.1067,883.1068,886.4514,return,2.0344,,59.50520833,,,,,,FBP-YG-71.png,0.43,1.2,19,0.5,,,,,,,,,,,,,,,,,,0,1,1,18,1,,,,,,,,,,,,,,,,,,,,,,,
,,,,,SRP24_023,26,female,2024-04-09_16h35.30.276,jersey_experiment_5_v0,2023.2.2,Win32,84.74576271,,,,,,,,,,,,,,,,886.4516,887.4952,887.4953,889.3351,return,1.0956,,63.93229167,,,,,,FBP-RB-71.png,0.43,1.2,34,0.25,,,,,,,,,,,,,,,,,,0,2,2,33,1,,,,,,,,,,,,,,,,,,,,,,,
,,,,,SRP24_023,26,female,2024-04-09_16h35.30.276,jersey_experiment_5_v0,2023.2.2,Win32,84.74576271,,,,,,,,,,,,,,,,889.3352,890.6398,890.6398,892.5071,return,0.6002,,64.97395833,,,,,,FBP-YG-81.png,0.43,1.2,24,0.5,,,,,,,,,,,,,,,,,,0,3,3,23,1,,,,,,,,,,,,,,,,,,,,,,,
,,,,,SRP24_023,26,female,2024-04-09_16h35.30.276,jersey_experiment_5_v0,2023.2.2,Win32,84.74576271,,,,,,,,,,,,,,,,892.5073,893.5544,893.5544,895.3662,return,0.7577,,60.80729167,,,,,,FBP-RB-81.png,0.4,1.2,38,0.25,,,,,,,,,,,,,,,,,,0,4,4,37,1,,,,,,,,,,,,,,,,,,,,,,,
,,,,,SRP24_023,26,female,2024-04-09_16h35.30.276,jersey_experiment_5_v0,2023.2.2,Win32,84.74576271,,,,,,,,,,,,,,,,895.3664,896.6603,896.6603,901.7698,return,3.7285,,50.65104167,,,,,,FBP-YG-71.png,0.4,1.2,18,0.5,,,,,,,,,,,,,,,,,,0,5,5,17,1,,,,,,,,,,,,,,,,,,,,,,,
,,,,,SRP24_023,26,female,2024-04-09_16h35.30.276,jersey_experiment_5_v0,2023.2.2,Win32,84.74576271,,,,,,,,,,,,,,,,901.7699,903.0723,903.0723,904.4522,return,0.3769,,35.9375,,,,,,FBP-PT-91.png,0.35,1.2,56,0.5,,,,,,,,,,,,,,,,,,0,6,6,55,1,,,,,,,,,,,,,,,,,,,,,,,
,,,,,SRP24_023,26,female,2024-04-09_16h35.30.276,jersey_experiment_5_v0,2023.2.2,Win32,84.74576271,,,,,,,,,,,,,,,,904.4524,905.7587,905.7588,906.8418,return,0.2122,,49.609375,,,,,,FBP-PT-91.png,0.4,1.2,58,0.5,,,,,,,,,,,,,,,,,,0,7,7,57,1,,,,,,,,,,,,,,,,,,,,,,,
,,,,,SRP24_023,26,female,2024-04-09_16h35.30.276,jersey_experiment_5_v0,2023.2.2,Win32,84.74576271,,,,,,,,,,,,,,,,906.842,908.1356,908.1356,909.6181,return,0.3531,,50.13020833,,,,,,FBP-YG-91.png,0.4,1.2,28,0.5,,,,,,,,,,,,,,,,,,0,8,8,27,1,,,,,,,,,,,,,,,,,,,,,,,
,,,,,SRP24_023,26,female,2024-04-09_16h35.30.276,jersey_experiment_5_v0,2023.2.2,Win32,84.74576271,,,,,,,,,,,,,,,,909.6183,910.6608,910.6609,912.4658,return,0.3196,,65.88541667,,,,,,FBP-RB-91.png,0.43,1.2,44,0.25,,,,,,,,,,,,,,,,,,0,9,9,43,1,,,,,,,,,,,,,,,,,,,,,,,
,,,,,SRP24_023,26,female,2024-04-09_16h35.30.276,jersey_experiment_5_v0,2023.2.2,Win32,84.74576271,,,,,,,,,,,,,,,,912.4659,913.7595,913.7595,915.0847,return,0.2246,,33.46354167,,,,,,FBP-PT-71.png,0.35,1.2,46,0.5,,,,,,,,,,,,,,,,,,0,10,10,45,1,,,,,,,,,,,,,,,,,,,,,,,
,,,,,SRP24_023,26,female,2024-04-09_16h35.30.276,jersey_experiment_5_v0,2023.2.2,Win32,84.74576271,,,,,,,,,,,,,,,,915.0849,916.3786,916.3786,918.9836,return,1.3077,,34.89583333,,,,,,FBP-PT-91.png,0.37,1.2,57,0.5,,,,,,,,,,,,,,,,,,0,11,11,56,1,,,,,,,,,,,,,,,,,,,,,,,
,,,,,SRP24_023,26,female,2024-04-09_16h35.30.276,jersey_experiment_5_v0,2023.2.2,Win32,84.74576271,,,,,,,,,,,,,,,,918.9837,920.0288,920.0288,922.5605,return,1.3079,,27.99479167,,,,,,FBP-RB-91.png,0.35,1.2,41,0.25,,,,,,,,,,,,,,,,,,0,12,12,40,1,,,,,,,,,,,,,,,,,,,,,,,
,,,,,SRP24_023,26,female,2024-04-09_16h35.30.276,jersey_experiment_5_v0,2023.2.2,Win32,84.74576271,,,,,,,,,,,,,,,,922.5608,923.8537,923.8537,926.8144,return,0.4574,,50.13020833,,,,,,FBP-YG-81.png,0.4,1.2,23,0.5,,,,,,,,,,,,,,,,,,0,13,13,22,1,,,,,,,,,,,,,,,,,,,,,,,
,,,,,SRP24_023,26,female,2024-04-09_16h35.30.276,jersey_experiment_5_v0,2023.2.2,Win32,84.74576271,,,,,,,,,,,,,,,,926.8146,928.1085,928.1085,929.4073,return,0.306,,34.89583333,,,,,,FBP-YG-81.png,0.35,1.2,21,0.5,,,,,,,,,,,,,,,,,,0,14,14,20,1,,,,,,,,,,,,,,,,,,,,,,,
,,,,,SRP24_023,26,female,2024-04-09_16h35.30.276,jersey_experiment_5_v0,2023.2.2,Win32,84.74576271,,,,,,,,,,,,,,,,929.4074,930.4498,930.4498,932.6782,return,0.2822,,72.78645833,,,,,,FBP-RB-71.png,0.45,1.2,35,0.25,,,,,,,,,,,,,,,,,,0,15,15,34,1,,,,,,,,,,,,,,,,,,,,,,,
,,,,,SRP24_023,26,female,2024-04-09_16h35.30.276,jersey_experiment_5_v0,2023.2.2,Win32,84.74576271,,,,,,,,,,,,,,,,932.6784,933.7206,933.7207,935.7708,return,0.7532,,67.96875,,,,,,FBP-OG-18.png,0.4,1.2,8,0.25,,,,,,,,,,,,,,,,,,0,16,16,7,1,,,,,,,,,,,,,,,,,,,,,,,
,,,,,SRP24_023,26,female,2024-04-09_16h35.30.276,jersey_experiment_5_v0,2023.2.2,Win32,84.74576271,,,,,,,,,,,,,,,,935.771,936.8149,936.8149,939.1091,return,0.9003,,43.61979167,,,,,,FBP-RB-71.png,0.37,1.2,32,0.25,,,,,,,,,,,,,,,,,,0,17,17,31,1,,,,,,,,,,,,,,,,,,,,,,,
,,,,,SRP24_023,26,female,2024-04-09_16h35.30.276,jersey_experiment_5_v0,2023.2.2,Win32,84.74576271,,,,,,,,,,,,,,,,939.1094,940.1599,940.1599,941.3477,return,0.3533,,42.96875,,,,,,FBP-RB-81.png,0.37,1.2,37,0.25,,,,,,,,,,,,,,,,,,0,18,18,36,1,,,,,,,,,,,,,,,,,,,,,,,
,,,,,SRP24_023,26,female,2024-04-09_16h35.30.276,jersey_experiment_5_v0,2023.2.2,Win32,84.74576271,,,,,,,,,,,,,,,,941.3479,942.6416,942.6416,943.7841,return,0.353,,32.421875,,,,,,FBP-PT-81.png,0.35,1.2,51,0.5,,,,,,,,,,,,,,,,,,0,19,19,50,1,,,,,,,,,,,,,,,,,,,,,,,
,,,,,SRP24_023,26,female,2024-04-09_16h35.30.276,jersey_experiment_5_v0,2023.2.2,Win32,84.74576271,,,,,,,,,,,,,,,,943.7843,945.0783,945.0783,946.749,return,0.8231,,53.125,,,,,,FBP-PT-71.png,0.4,1.2,48,0.5,,,,,,,,,,,,,,,,,,0,20,20,47,1,,,,,,,,,,,,,,,,,,,,,,,
,,,,,SRP24_023,26,female,2024-04-09_16h35.30.276,jersey_experiment_5_v0,2023.2.2,Win32,84.74576271,,,,,,,,,,,,,,,,946.7492,947.7916,947.7917,949.3845,return,0.3298,,74.21875,,,,,,FBP-RB-91.png,0.45,1.2,45,0.25,,,,,,,,,,,,,,,,,,0,21,21,44,1,,,,,,,,,,,,,,,,,,,,,,,
,,,,,SRP24_023,26,female,2024-04-09_16h35.30.276,jersey_experiment_5_v0,2023.2.2,Win32,84.74576271,,,,,,,,,,,,,,,,949.3847,950.4302,950.4302,952.1141,return,0.3193,,70.57291667,,,,,,FBP-OG-17.png,0.45,1.2,5,0.25,,,,,,,,,,,,,,,,,,0,22,22,4,1,,,,,,,,,,,,,,,,,,,,,,,
,,,,,SRP24_023,26,female,2024-04-09_16h35.30.276,jersey_experiment_5_v0,2023.2.2,Win32,84.74576271,,,,,,,,,,,,,,,,952.1143,953.409,953.409,954.5954,return,0.3064,,73.30729167,,,,,,FBP-YG-91.png,0.43,1.2,29,0.5,,,,,,,,,,,,,,,,,,0,23,23,28,1,,,,,,,,,,,,,,,,,,,,,,,
,,,,,SRP24_023,26,female,2024-04-09_16h35.30.276,jersey_experiment_5_v0,2023.2.2,Win32,84.74576271,,,,,,,,,,,,,,,,954.5956,955.6435,955.6435,959.2909,return,1.4956,,47.13541667,,,,,,FBP-RB-91.png,0.37,1.2,42,0.25,,,,,,,,,,,,,,,,,,0,24,24,41,1,,,,,,,,,,,,,,,,,,,,,,,
,,,,,SRP24_023,26,female,2024-04-09_16h35.30.276,jersey_experiment_5_v0,2023.2.2,Win32,84.74576271,,,,,,,,,,,,,,,,959.2912,960.3332,960.3333,962.0039,return,0.6891,,73.56770833,,,,,,FBP-OG-19.png,0.45,1.2,15,0.25,,,,,,,,,,,,,,,,,,0,25,25,14,1,,,,,,,,,,,,,,,,,,,,,,,
,,,,,SRP24_023,26,female,2024-04-09_16h35.30.276,jersey_experiment_5_v0,2023.2.2,Win32,84.74576271,,,,,,,,,,,,,,,,962.0041,963.051,963.051,965.5732,return,0.2825,,61.58854167,,,,,,FBP-OG-19.png,0.37,1.2,12,0.25,,,,,,,,,,,,,,,,,,0,26,26,11,1,,,,,,,,,,,,,,,,,,,,,,,
,,,,,SRP24_023,26,female,2024-04-09_16h35.30.276,jersey_experiment_5_v0,2023.2.2,Win32,84.74576271,,,,,,,,,,,,,,,,965.5734,966.6159,966.6159,968.6087,return,0.9543,,46.35416667,,,,,,FBP-OG-19.png,0.35,1.2,11,0.25,,,,,,,,,,,,,,,,,,0,27,27,10,1,,,,,,,,,,,,,,,,,,,,,,,
,,,,,SRP24_023,26,female,2024-04-09_16h35.30.276,jersey_experiment_5_v0,2023.2.2,Win32,84.74576271,,,,,,,,,,,,,,,,968.6089,969.9026,969.9028,973.3251,return,2.1883,,48.30729167,,,,,,FBP-YG-81.png,0.37,1.2,22,0.5,,,,,,,,,,,,,,,,,,0,28,28,21,1,,,,,,,,,,,,,,,,,,,,,,,
,,,,,SRP24_023,26,female,2024-04-09_16h35.30.276,jersey_experiment_5_v0,2023.2.2,Win32,84.74576271,,,,,,,,,,,,,,,,973.3253,974.6322,974.6322,976.7977,return,0.978,,65.75520833,,,,,,FBP-PT-81.png,0.45,1.2,55,0.5,,,,,,,,,,,,,,,,,,0,29,29,54,1,,,,,,,,,,,,,,,,,,,,,,,
,,,,,SRP24_023,26,female,2024-04-09_16h35.30.276,jersey_experiment_5_v0,2023.2.2,Win32,84.74576271,,,,,,,,,,,,,,,,976.7979,978.0987,978.0987,979.887,return,0.7899,,68.22916667,,,,,,FBP-YG-91.png,0.45,1.2,30,0.5,,,,,,,,,,,,,,,,,,0,30,30,29,1,,,,,,,,,,,,,,,,,,,,,,,
,,,,,SRP24_023,26,female,2024-04-09_16h35.30.276,jersey_experiment_5_v0,2023.2.2,Win32,84.74576271,,,,,,,,,,,,,,,,979.8872,981.181,981.1811,983.6213,return,0.5783,,50.91145833,,,,,,FBP-YG-71.png,0.35,1.2,16,0.5,,,,,,,,,,,,,,,,,,0,31,31,15,1,,,,,,,,,,,,,,,,,,,,,,,
,,,,,SRP24_023,26,female,2024-04-09_16h35.30.276,jersey_experiment_5_v0,2023.2.2,Win32,84.74576271,,,,,,,,,,,,,,,,983.6215,984.9257,984.9257,986.9155,return,1.0019,,63.93229167,,,,,,FBP-PT-91.png,0.43,1.2,59,0.5,,,,,,,,,,,,,,,,,,0,32,32,58,1,,,,,,,,,,,,,,,,,,,,,,,
,,,,,SRP24_023,26,female,2024-04-09_16h35.30.276,jersey_experiment_5_v0,2023.2.2,Win32,84.74576271,,,,,,,,,,,,,,,,986.9157,988.2199,988.22,989.9143,return,0.5049,,50.91145833,,,,,,FBP-YG-71.png,0.37,1.2,17,0.5,,,,,,,,,,,,,,,,,,0,33,33,16,1,,,,,,,,,,,,,,,,,,,,,,,
,,,,,SRP24_023,26,female,2024-04-09_16h35.30.276,jersey_experiment_5_v0,2023.2.2,Win32,84.74576271,,,,,,,,,,,,,,,,989.9144,991.2212,991.2213,993.1583,return,0.5593,,51.04166667,,,,,,FBP-PT-81.png,0.37,1.2,52,0.5,,,,,,,,,,,,,,,,,,0,34,34,51,1,,,,,,,,,,,,,,,,,,,,,,,
,,,,,SRP24_023,26,female,2024-04-09_16h35.30.276,jersey_experiment_5_v0,2023.2.2,Win32,84.74576271,,,,,,,,,,,,,,,,993.1584,994.2051,994.2052,997.4335,return,1.4249,,55.33854167,,,,,,FBP-RB-71.png,0.4,1.2,33,0.25,,,,,,,,,,,,,,,,,,0,35,35,32,1,,,,,,,,,,,,,,,,,,,,,,,
,,,,,SRP24_023,26,female,2024-04-09_16h35.30.276,jersey_experiment_5_v0,2023.2.2,Win32,84.74576271,,,,,,,,,,,,,,,,997.4337,998.4759,998.4759,1000.6334,return,0.5643,,50.52083333,,,,,,FBP-OG-17.png,0.35,1.2,1,0.25,,,,,,,,,,,,,,,,,,0,36,36,0,1,,,,,,,,,,,,,,,,,,,,,,,
,,,,,SRP24_023,26,female,2024-04-09_16h35.30.276,jersey_experiment_5_v0,2023.2.2,Win32,84.74576271,,,,,,,,,,,,,,,,1000.6336,1001.6759,1001.676,1003.7349,return,0.5231,,53.515625,,,,,,FBP-OG-18.png,0.37,1.2,7,0.25,,,,,,,,,,,,,,,,,,0,37,37,6,1,,,,,,,,,,,,,,,,,,,,,,,
,,,,,SRP24_023,26,female,2024-04-09_16h35.30.276,jersey_experiment_5_v0,2023.2.2,Win32,84.74576271,,,,,,,,,,,,,,,,1003.7351,1005.0336,1005.0336,1007.1757,return,0.6965,,64.71354167,,,,,,FBP-PT-91.png,0.45,1.2,60,0.5,,,,,,,,,,,,,,,,,,0,38,38,59,1,,,,,,,,,,,,,,,,,,,,,,,
,,,,,SRP24_023,26,female,2024-04-09_16h35.30.276,jersey_experiment_5_v0,2023.2.2,Win32,84.74576271,,,,,,,,,,,,,,,,1007.1758,1008.4795,1008.4795,1011.0812,return,0.8474,,49.609375,,,,,,FBP-PT-71.png,0.37,1.2,47,0.5,,,,,,,,,,,,,,,,,,0,39,39,46,1,,,,,,,,,,,,,,,,,,,,,,,
,,,,,SRP24_023,26,female,2024-04-09_16h35.30.276,jersey_experiment_5_v0,2023.2.2,Win32,84.74576271,,,,,,,,,,,,,,,,1011.0814,1012.1235,1012.1236,1013.2059,return,0.3241,,66.53645833,,,,,,FBP-OG-18.png,0.45,1.2,10,0.25,,,,,,,,,,,,,,,,,,0,40,40,9,1,,,,,,,,,,,,,,,,,,,,,,,
,,,,,SRP24_023,26,female,2024-04-09_16h35.30.276,jersey_experiment_5_v0,2023.2.2,Win32,84.74576271,,,,,,,,,,,,,,,,1013.2061,1014.2572,1014.2573,1016.1353,return,0.2508,,54.6875,,,,,,FBP-OG-17.png,0.4,1.2,3,0.25,,,,,,,,,,,,,,,,,,0,41,41,2,1,,,,,,,,,,,,,,,,,,,,,,,
,,,,,SRP24_023,26,female,2024-04-09_16h35.30.276,jersey_experiment_5_v0,2023.2.2,Win32,84.74576271,,,,,,,,,,,,,,,,1016.1356,1017.4347,1017.4348,1018.9976,return,0.6827,,66.27604167,,,,,,FBP-YG-71.png,0.45,1.2,20,0.5,,,,,,,,,,,,,,,,,,0,42,42,19,1,,,,,,,,,,,,,,,,,,,,,,,
,,,,,SRP24_023,26,female,2024-04-09_16h35.30.276,jersey_experiment_5_v0,2023.2.2,Win32,84.74576271,,,,,,,,,,,,,,,,1018.9977,1020.3002,1020.3004,1021.3356,return,0.4624,,65.10416667,,,,,,FBP-PT-71.png,0.43,1.2,49,0.5,,,,,,,,,,,,,,,,,,0,43,43,48,1,,,,,,,,,,,,,,,,,,,,,,,
,,,,,SRP24_023,26,female,2024-04-09_16h35.30.276,jersey_experiment_5_v0,2023.2.2,Win32,84.74576271,,,,,,,,,,,,,,,,1021.3357,1022.3827,1022.3827,1023.6801,return,0.5754,,65.75520833,,,,,,FBP-OG-19.png,0.43,1.2,14,0.25,,,,,,,,,,,,,,,,,,0,44,44,13,1,,,,,,,,,,,,,,,,,,,,,,,
,,,,,SRP24_023,26,female,2024-04-09_16h35.30.276,jersey_experiment_5_v0,2023.2.2,Win32,84.74576271,,,,,,,,,,,,,,,,1023.6803,1024.9869,1024.9869,1026.9005,return,0.3824,,47.78645833,,,,,,FBP-YG-91.png,0.35,1.2,26,0.5,,,,,,,,,,,,,,,,,,0,45,45,25,1,,,,,,,,,,,,,,,,,,,,,,,
,,,,,SRP24_023,26,female,2024-04-09_16h35.30.276,jersey_experiment_5_v0,2023.2.2,Win32,84.74576271,,,,,,,,,,,,,,,,1026.9007,1027.9477,1027.9478,1029.3358,return,0.4614,,39.32291667,,,,,,FBP-RB-71.png,0.35,1.2,31,0.25,,,,,,,,,,,,,,,,,,0,46,46,30,1,,,,,,,,,,,,,,,,,,,,,,,
,,,,,SRP24_023,26,female,2024-04-09_16h35.30.276,jersey_experiment_5_v0,2023.2.2,Win32,84.74576271,,,,,,,,,,,,,,,,1029.3359,1030.6347,1030.6347,1032.6922,return,0.9651,,50.390625,,,,,,FBP-PT-81.png,0.43,1.2,54,0.5,,,,,,,,,,,,,,,,,,0,47,47,53,1,,,,,,,,,,,,,,,,,,,,,,,
,,,,,SRP24_023,26,female,2024-04-09_16h35.30.276,jersey_experiment_5_v0,2023.2.2,Win32,84.74576271,,,,,,,,,,,,,,,,1032.6924,1033.7359,1033.736,1035.1995,return,0.3428,,47.00520833,,,,,,FBP-OG-18.png,0.35,1.2,6,0.25,,,,,,,,,,,,,,,,,,0,48,48,5,1,,,,,,,,,,,,,,,,,,,,,,,
,,,,,SRP24_023,26,female,2024-04-09_16h35.30.276,jersey_experiment_5_v0,2023.2.2,Win32,84.74576271,,,,,,,,,,,,,,,,1035.1997,1036.5009,1036.5009,1039.0585,return,0.39,,63.93229167,,,,,,FBP-PT-71.png,0.45,1.2,50,0.5,,,,,,,,,,,,,,,,,,0,49,49,49,1,,,,,,,,,,,,,,,,,,,,,,,
,,,,,SRP24_023,26,female,2024-04-09_16h35.30.276,jersey_experiment_5_v0,2023.2.2,Win32,84.74576271,,,,,,,,,,,,,,,,1039.0586,1040.101,1040.1011,1041.224,return,0.2259,,61.19791667,,,,,,FBP-OG-19.png,0.4,1.2,13,0.25,,,,,,,,,,,,,,,,,,0,50,50,12,1,,,,,,,,,,,,,,,,,,,,,,,
,,,,,SRP24_023,26,female,2024-04-09_16h35.30.276,jersey_experiment_5_v0,2023.2.2,Win32,84.74576271,,,,,,,,,,,,,,,,1041.2242,1042.2658,1042.2659,1045.7881,return,2.3297,,47.39583333,,,,,,FBP-RB-81.png,0.35,1.2,36,0.25,,,,,,,,,,,,,,,,,,0,51,51,35,1,,,,,,,,,,,,,,,,,,,,,,,
,,,,,SRP24_023,26,female,2024-04-09_16h35.30.276,jersey_experiment_5_v0,2023.2.2,Win32,84.74576271,,,,,,,,,,,,,,,,1045.7882,1047.0895,1047.0895,1048.6819,return,0.3656,,49.34895833,,,,,,FBP-PT-81.png,0.4,1.2,53,0.5,,,,,,,,,,,,,,,,,,0,52,52,52,1,,,,,,,,,,,,,,,,,,,,,,,
,,,,,SRP24_023,26,female,2024-04-09_16h35.30.276,jersey_experiment_5_v0,2023.2.2,Win32,84.74576271,,,,,,,,,,,,,,,,1048.682,1049.9867,1049.9867,1052.2929,return,1.3416,,48.56770833,,,,,,FBP-YG-91.png,0.37,1.2,27,0.5,,,,,,,,,,,,,,,,,,0,53,53,26,1,,,,,,,,,,,,,,,,,,,,,,,
,,,,,SRP24_023,26,female,2024-04-09_16h35.30.276,jersey_experiment_5_v0,2023.2.2,Win32,84.74576271,,,,,,,,,,,,,,,,1052.2931,1053.3412,1053.3412,1055.8462,return,0.6934,,72.78645833,,,,,,FBP-RB-81.png,0.45,1.2,40,0.25,,,,,,,,,,,,,,,,,,0,54,54,39,1,,,,,,,,,,,,,,,,,,,,,,,
,,,,,SRP24_023,26,female,2024-04-09_16h35.30.276,jersey_experiment_5_v0,2023.2.2,Win32,84.74576271,,,,,,,,,,,,,,,,1055.8463,1056.8945,1056.8945,1059.8194,return,0.9309,,72.91666667,,,,,,FBP-OG-17.png,0.43,1.2,4,0.25,,,,,,,,,,,,,,,,,,0,55,55,3,1,,,,,,,,,,,,,,,,,,,,,,,
,,,,,SRP24_023,26,female,2024-04-09_16h35.30.276,jersey_experiment_5_v0,2023.2.2,Win32,84.74576271,,,,,,,,,,,,,,,,1059.8195,1060.8707,1060.8707,1064.408,return,2.521,,55.20833333,,,,,,FBP-OG-17.png,0.37,1.2,2,0.25,,,,,,,,,,,,,,,,,,0,56,56,1,1,,,,,,,,,,,,,,,,,,,,,,,
,,,,,SRP24_023,26,female,2024-04-09_16h35.30.276,jersey_experiment_5_v0,2023.2.2,Win32,84.74576271,,,,,,,,,,,,,,,,1064.4081,1065.4549,1065.4549,1067.3524,return,1.0454,,66.27604167,,,,,,FBP-RB-81.png,0.43,1.2,39,0.25,,,,,,,,,,,,,,,,,,0,57,57,38,1,,,,,,,,,,,,,,,,,,,,,,,
,,,,,SRP24_023,26,female,2024-04-09_16h35.30.276,jersey_experiment_5_v0,2023.2.2,Win32,84.74576271,,,,,,,,,,,,,,,,1067.3525,1068.6593,1068.6593,1070.055,return,0.4511,,68.22916667,,,,,,FBP-YG-81.png,0.45,1.2,25,0.5,,,,,,,,,,,,,,,,,,0,58,58,24,1,,,,,,,,,,,,,,,,,,,,,,,
,,,,,SRP24_023,26,female,2024-04-09_16h35.30.276,jersey_experiment_5_v0,2023.2.2,Win32,84.74576271,,,,,,,,,,,,,,,,1070.0552,1071.1021,1071.1021,1072.6362,return,0.6251,,66.796875,,,,,,FBP-OG-18.png,0.43,1.2,9,0.25,,,,,,,,,,,,,,,,,,0,59,59,8,1,,,,,,,,,,,,,,,,,,,,,,,
,,,,,SRP24_023,26,female,2024-04-09_16h35.30.276,jersey_experiment_5_v0,2023.2.2,Win32,84.74576271,,,,,,,,,,,,,,,,,,,,,,,,,,,,,,,,,,,,,,,,,,,,,,,,,,,,,,,,1072.6365,1074.4198,return,1.7729,,,,,,,,,,,,,,,,,,,
,,,,,SRP24_023,26,female,2024-04-09_16h35.30.276,jersey_experiment_5_v0,2023.2.2,Win32,84.74576271,,,,,,,,,,,,,,,,,,,,,,,,,,,,,,,,,,,,,,,,,,,,,,,,,,,,,,,,,,,,,1074.4201,1084.5852,1,8.6313,return,1.509,,,,,,,,,,,,
,,,,,SRP24_023,26,female,2024-04-09_16h35.30.276,jersey_experiment_5_v0,2023.2.2,Win32,84.74576271,,,,,,,,,,,,,,,,,,,,,,,,,,,,,,,,,,,,,,,,,,,,,,,,,,,,,,,,,,,,,,,,,,,,1084.5854,1140.8792,"I have no idea. Maybe depending on color, people tend to choose ",right,45.9911,,,,,,
,,,,,SRP24_023,26,female,2024-04-09_16h35.30.276,jersey_experiment_5_v0,2023.2.2,Win32,84.74576271,,,,,,,,,,,,,,,,,,,,,,,,,,,,,,,,,,,,,,,,,,,,,,,,,,,,,,,,,,,,,,,,,,,,,,,,,,1140.8792,1155.2234,return,14.3348,