requirements.started,requirements.stopped,key_resp_3.keys,key_resp_3.rt,key_resp_3.duration,Subject ID,Age,Gender,date,expName,psychopyVersion,OS,frameRate,instructions1.started,instructions1.stopped,key_resp.keys,key_resp.rt,key_resp.duration,example.started,example.stopped,enter_2.keys,enter_2.rt,enter_2.duration,instructions2.started,instructions2.stopped,enter_3.keys,enter_3.rt,enter_3.duration,image.started,image.stopped,slider_2.started,slider_2.stopped,next.keys,next.rt,next.duration,slider.response,trial_block_1.thisRepN,trial_block_1.thisTrialN,trial_block_1.thisN,trial_block_1.thisIndex,trial_block_1.ran,Path,Width,Height,Index,Duration,trial_block_2.thisRepN,trial_block_2.thisTrialN,trial_block_2.thisN,trial_block_2.thisIndex,trial_block_2.ran,rest_break.started,rest_break.stopped,end_break.started,end_break.stopped,key_resp_5.keys,key_resp_5.rt,key_resp_5.duration,trial_block_3.thisRepN,trial_block_3.thisTrialN,trial_block_3.thisN,trial_block_3.thisIndex,trial_block_3.ran,trial_block_4.thisRepN,trial_block_4.thisTrialN,trial_block_4.thisN,trial_block_4.thisIndex,trial_block_4.ran,questions_intro.started,questions_intro.stopped,enter_12.keys,enter_12.rt,enter_12.duration,question2.started,question2.stopped,question_doingbest.response,question_doingbest.rt,enter_15.keys,enter_15.rt,enter_15.duration,pattern.started,pattern.stopped,pattern_2.text,enter_17.keys,enter_17.rt,enter_17.duration,thankyou.started,thankyou.stopped,enter_14.keys,enter_14.rt,enter_14.duration
0.0001,7.0199,return,7.0135,,SRP24_034,20,Male,2024-04-10_16h58.05.044,jersey_experiment_5_v0,2023.2.2,Win32,84.74576271,,,,,,,,,,,,,,,,,,,,,,,,,,,,,,,,,,,,,,,,,,,,,,,,,,,,,,,,,,,,,,,,,,,,,,,,,,,,,,
,,,,,SRP24_034,20,Male,2024-04-10_16h58.05.044,jersey_experiment_5_v0,2023.2.2,Win32,84.74576271,7.02,11.5846,return,4.5414,,,,,,,,,,,,,,,,,,,,,,,,,,,,,,,,,,,,,,,,,,,,,,,,,,,,,,,,,,,,,,,,,,,,,,,,,,
,,,,,SRP24_034,20,Male,2024-04-10_16h58.05.044,jersey_experiment_5_v0,2023.2.2,Win32,84.74576271,,,,,,11.5847,15.4084,return,3.7883,,,,,,,,,,,,,,,,,,,,,,,,,,,,,,,,,,,,,,,,,,,,,,,,,,,,,,,,,,,,,,,,,,,,,
,,,,,SRP24_034,20,Male,2024-04-10_16h58.05.044,jersey_experiment_5_v0,2023.2.2,Win32,84.74576271,,,,,,,,,,,15.4085,44.6095,return,29.1902,,,,,,,,,,,,,,,,,,,,,,,,,,,,,,,,,,,,,,,,,,,,,,,,,,,,,,,,,,,,,,,,
,,,,,SRP24_034,20,Male,2024-04-10_16h58.05.044,jersey_experiment_5_v0,2023.2.2,Win32,84.74576271,,,,,,,,,,,,,,,,44.6165,45.9149,45.9149,53.8211,return,2.177,,63.671875,0,0,0,0,1,FBP-OG-71.png,0.35,1.2,1,0.5,,,,,,,,,,,,,,,,,,,,,,,,,,,,,,,,,,,,,,,,,,,,,
,,,,,SRP24_034,20,Male,2024-04-10_16h58.05.044,jersey_experiment_5_v0,2023.2.2,Win32,84.74576271,,,,,,,,,,,,,,,,53.8215,54.8683,54.8683,63.5038,return,6.2828,,74.34895833,0,1,1,25,1,FBP-YG-19.png,0.35,1.2,26,0.25,,,,,,,,,,,,,,,,,,,,,,,,,,,,,,,,,,,,,,,,,,,,,
,,,,,SRP24_034,20,Male,2024-04-10_16h58.05.044,jersey_experiment_5_v0,2023.2.2,Win32,84.74576271,,,,,,,,,,,,,,,,63.5042,64.551,64.5512,70.3981,return,4.5313,,83.59375,0,2,2,19,1,FBP-YG-17.png,0.45,1.2,20,0.25,,,,,,,,,,,,,,,,,,,,,,,,,,,,,,,,,,,,,,,,,,,,,
,,,,,SRP24_034,20,Male,2024-04-10_16h58.05.044,jersey_experiment_5_v0,2023.2.2,Win32,84.74576271,,,,,,,,,,,,,,,,70.4023,71.4453,71.4453,74.3513,return,1.0029,,91.53645833,0,3,3,59,1,FBP-PT-19.png,0.45,1.2,60,0.25,,,,,,,,,,,,,,,,,,,,,,,,,,,,,,,,,,,,,,,,,,,,,
,,,,,SRP24_034,20,Male,2024-04-10_16h58.05.044,jersey_experiment_5_v0,2023.2.2,Win32,84.74576271,,,,,,,,,,,,,,,,74.3516,75.6454,75.6455,78.6808,return,0.8983,,70.3125,0,4,4,40,1,FBP-RB-19.png,0.35,1.2,41,0.5,,,,,,,,,,,,,,,,,,,,,,,,,,,,,,,,,,,,,,,,,,,,,
,,,,,SRP24_034,20,Male,2024-04-10_16h58.05.044,jersey_experiment_5_v0,2023.2.2,Win32,84.74576271,,,,,,,,,,,,,,,,78.6811,79.975,79.9751,82.5517,return,0.9114,,83.46354167,0,5,5,38,1,FBP-RB-18.png,0.43,1.2,39,0.5,,,,,,,,,,,,,,,,,,,,,,,,,,,,,,,,,,,,,,,,,,,,,
,,,,,SRP24_034,20,Male,2024-04-10_16h58.05.044,jersey_experiment_5_v0,2023.2.2,Win32,84.74576271,,,,,,,,,,,,,,,,82.5519,83.5986,83.5986,85.1047,return,0.7437,,83.33333333,0,6,6,52,1,FBP-PT-18.png,0.4,1.2,53,0.25,,,,,,,,,,,,,,,,,,,,,,,,,,,,,,,,,,,,,,,,,,,,,
,,,,,SRP24_034,20,Male,2024-04-10_16h58.05.044,jersey_experiment_5_v0,2023.2.2,Win32,84.74576271,,,,,,,,,,,,,,,,85.1049,86.3988,86.3989,88.1754,return,0.739,,89.84375,0,7,7,33,1,FBP-RB-17.png,0.43,1.2,34,0.5,,,,,,,,,,,,,,,,,,,,,,,,,,,,,,,,,,,,,,,,,,,,,
,,,,,SRP24_034,20,Male,2024-04-10_16h58.05.044,jersey_experiment_5_v0,2023.2.2,Win32,84.74576271,,,,,,,,,,,,,,,,88.1756,89.2224,89.2225,91.3755,return,0.7397,,88.80208333,0,8,8,57,1,FBP-PT-19.png,0.4,1.2,58,0.25,,,,,,,,,,,,,,,,,,,,,,,,,,,,,,,,,,,,,,,,,,,,,
,,,,,SRP24_034,20,Male,2024-04-10_16h58.05.044,jersey_experiment_5_v0,2023.2.2,Win32,84.74576271,,,,,,,,,,,,,,,,91.3757,92.4226,92.4226,96.1521,return,0.7127,,79.94791667,0,9,9,15,1,FBP-YG-17.png,0.35,1.2,16,0.25,,,,,,,,,,,,,,,,,,,,,,,,,,,,,,,,,,,,,,,,,,,,,
,,,,,SRP24_034,20,Male,2024-04-10_16h58.05.044,jersey_experiment_5_v0,2023.2.2,Win32,84.74576271,,,,,,,,,,,,,,,,96.1523,97.1994,97.1994,99.1288,return,0.6771,,80.078125,0,10,10,56,1,FBP-PT-19.png,0.37,1.2,57,0.25,,,,,,,,,,,,,,,,,,,,,,,,,,,,,,,,,,,,,,,,,,,,,
,,,,,SRP24_034,20,Male,2024-04-10_16h58.05.044,jersey_experiment_5_v0,2023.2.2,Win32,84.74576271,,,,,,,,,,,,,,,,99.1289,100.1757,100.1757,102.2228,return,0.8003,,83.203125,0,11,11,18,1,FBP-YG-17.png,0.43,1.2,19,0.25,,,,,,,,,,,,,,,,,,,,,,,,,,,,,,,,,,,,,,,,,,,,,
,,,,,SRP24_034,20,Male,2024-04-10_16h58.05.044,jersey_experiment_5_v0,2023.2.2,Win32,84.74576271,,,,,,,,,,,,,,,,102.223,103.517,103.517,105.5526,return,0.7674,,83.984375,0,12,12,36,1,FBP-RB-18.png,0.37,1.2,37,0.5,,,,,,,,,,,,,,,,,,,,,,,,,,,,,,,,,,,,,,,,,,,,,
,,,,,SRP24_034,20,Male,2024-04-10_16h58.05.044,jersey_experiment_5_v0,2023.2.2,Win32,84.74576271,,,,,,,,,,,,,,,,105.5528,106.5995,106.5995,108.4468,return,0.7897,,88.15104167,0,13,13,24,1,FBP-YG-18.png,0.45,1.2,25,0.25,,,,,,,,,,,,,,,,,,,,,,,,,,,,,,,,,,,,,,,,,,,,,
,,,,,SRP24_034,20,Male,2024-04-10_16h58.05.044,jersey_experiment_5_v0,2023.2.2,Win32,84.74576271,,,,,,,,,,,,,,,,108.4469,109.4936,109.4936,111.6115,return,0.6627,,89.0625,0,14,14,58,1,FBP-PT-19.png,0.43,1.2,59,0.25,,,,,,,,,,,,,,,,,,,,,,,,,,,,,,,,,,,,,,,,,,,,,
,,,,,SRP24_034,20,Male,2024-04-10_16h58.05.044,jersey_experiment_5_v0,2023.2.2,Win32,84.74576271,,,,,,,,,,,,,,,,111.6118,112.6586,112.6586,115.1763,return,0.7809,,89.58333333,0,15,15,23,1,FBP-YG-18.png,0.43,1.2,24,0.25,,,,,,,,,,,,,,,,,,,,,,,,,,,,,,,,,,,,,,,,,,,,,
,,,,,SRP24_034,20,Male,2024-04-10_16h58.05.044,jersey_experiment_5_v0,2023.2.2,Win32,84.74576271,,,,,,,,,,,,,,,,115.1765,116.4705,116.4705,118.7177,return,0.8111,,69.01041667,0,16,16,35,1,FBP-RB-18.png,0.35,1.2,36,0.5,,,,,,,,,,,,,,,,,,,,,,,,,,,,,,,,,,,,,,,,,,,,,
,,,,,SRP24_034,20,Male,2024-04-10_16h58.05.044,jersey_experiment_5_v0,2023.2.2,Win32,84.74576271,,,,,,,,,,,,,,,,118.7179,120.0118,120.0118,121.9294,return,0.6629,,93.09895833,0,17,17,9,1,FBP-OG-81.png,0.45,1.2,10,0.5,,,,,,,,,,,,,,,,,,,,,,,,,,,,,,,,,,,,,,,,,,,,,
,,,,,SRP24_034,20,Male,2024-04-10_16h58.05.044,jersey_experiment_5_v0,2023.2.2,Win32,84.74576271,,,,,,,,,,,,,,,,121.9297,122.9764,122.9766,124.7767,return,0.63,,92.70833333,0,18,18,53,1,FBP-PT-18.png,0.43,1.2,54,0.25,,,,,,,,,,,,,,,,,,,,,,,,,,,,,,,,,,,,,,,,,,,,,
,,,,,SRP24_034,20,Male,2024-04-10_16h58.05.044,jersey_experiment_5_v0,2023.2.2,Win32,84.74576271,,,,,,,,,,,,,,,,124.7769,125.8236,125.8236,130.4474,return,3.7551,,92.1875,0,19,19,48,1,FBP-PT-17.png,0.43,1.2,49,0.25,,,,,,,,,,,,,,,,,,,,,,,,,,,,,,,,,,,,,,,,,,,,,
,,,,,SRP24_034,20,Male,2024-04-10_16h58.05.044,jersey_experiment_5_v0,2023.2.2,Win32,84.74576271,,,,,,,,,,,,,,,,130.4476,131.7416,131.7417,133.7769,return,0.6353,,95.18229167,0,20,20,14,1,FBP-OG-91.png,0.45,1.2,15,0.5,,,,,,,,,,,,,,,,,,,,,,,,,,,,,,,,,,,,,,,,,,,,,
,,,,,SRP24_034,20,Male,2024-04-10_16h58.05.044,jersey_experiment_5_v0,2023.2.2,Win32,84.74576271,,,,,,,,,,,,,,,,133.7771,135.071,135.0711,136.3182,return,0.7064,,95.18229167,0,21,21,34,1,FBP-RB-17.png,0.45,1.2,35,0.5,,,,,,,,,,,,,,,,,,,,,,,,,,,,,,,,,,,,,,,,,,,,,
,,,,,SRP24_034,20,Male,2024-04-10_16h58.05.044,jersey_experiment_5_v0,2023.2.2,Win32,84.74576271,,,,,,,,,,,,,,,,136.3184,137.6124,137.6124,141.4361,return,2.7061,,87.109375,0,22,22,11,1,FBP-OG-91.png,0.37,1.2,12,0.5,,,,,,,,,,,,,,,,,,,,,,,,,,,,,,,,,,,,,,,,,,,,,
,,,,,SRP24_034,20,Male,2024-04-10_16h58.05.044,jersey_experiment_5_v0,2023.2.2,Win32,84.74576271,,,,,,,,,,,,,,,,141.4364,142.7303,142.7303,143.8479,return,0.7469,,86.97916667,0,23,23,7,1,FBP-OG-81.png,0.4,1.2,8,0.5,,,,,,,,,,,,,,,,,,,,,,,,,,,,,,,,,,,,,,,,,,,,,
,,,,,SRP24_034,20,Male,2024-04-10_16h58.05.044,jersey_experiment_5_v0,2023.2.2,Win32,84.74576271,,,,,,,,,,,,,,,,143.8481,145.142,145.1421,147.248,return,1.0119,,91.015625,0,24,24,39,1,FBP-RB-18.png,0.45,1.2,40,0.5,,,,,,,,,,,,,,,,,,,,,,,,,,,,,,,,,,,,,,,,,,,,,
,,,,,SRP24_034,20,Male,2024-04-10_16h58.05.044,jersey_experiment_5_v0,2023.2.2,Win32,84.74576271,,,,,,,,,,,,,,,,147.2482,148.295,148.2951,149.9186,return,0.6351,,93.48958333,0,25,25,49,1,FBP-PT-17.png,0.45,1.2,50,0.25,,,,,,,,,,,,,,,,,,,,,,,,,,,,,,,,,,,,,,,,,,,,,
,,,,,SRP24_034,20,Male,2024-04-10_16h58.05.044,jersey_experiment_5_v0,2023.2.2,Win32,84.74576271,,,,,,,,,,,,,,,,149.9188,151.2128,151.2129,152.4599,return,0.695,,93.48958333,0,26,26,8,1,FBP-OG-81.png,0.43,1.2,9,0.5,,,,,,,,,,,,,,,,,,,,,,,,,,,,,,,,,,,,,,,,,,,,,
,,,,,SRP24_034,20,Male,2024-04-10_16h58.05.044,jersey_experiment_5_v0,2023.2.2,Win32,84.74576271,,,,,,,,,,,,,,,,152.4601,153.5071,153.5072,155.0248,return,0.7295,,93.48958333,0,27,27,54,1,FBP-PT-18.png,0.45,1.2,55,0.25,,,,,,,,,,,,,,,,,,,,,,,,,,,,,,,,,,,,,,,,,,,,,
,,,,,SRP24_034,20,Male,2024-04-10_16h58.05.044,jersey_experiment_5_v0,2023.2.2,Win32,84.74576271,,,,,,,,,,,,,,,,155.025,156.0718,156.0719,158.3191,return,0.5649,,82.94270833,0,28,28,20,1,FBP-YG-18.png,0.35,1.2,21,0.25,,,,,,,,,,,,,,,,,,,,,,,,,,,,,,,,,,,,,,,,,,,,,
,,,,,SRP24_034,20,Male,2024-04-10_16h58.05.044,jersey_experiment_5_v0,2023.2.2,Win32,84.74576271,,,,,,,,,,,,,,,,158.3193,159.6132,159.6132,161.7426,return,0.6356,,81.77083333,0,29,29,10,1,FBP-OG-91.png,0.35,1.2,11,0.5,,,,,,,,,,,,,,,,,,,,,,,,,,,,,,,,,,,,,,,,,,,,,
,,,,,SRP24_034,20,Male,2024-04-10_16h58.05.044,jersey_experiment_5_v0,2023.2.2,Win32,84.74576271,,,,,,,,,,,,,,,,161.7428,163.0368,163.0369,164.5074,return,0.6152,,89.97395833,0,30,30,43,1,FBP-RB-19.png,0.43,1.2,44,0.5,,,,,,,,,,,,,,,,,,,,,,,,,,,,,,,,,,,,,,,,,,,,,
,,,,,SRP24_034,20,Male,2024-04-10_16h58.05.044,jersey_experiment_5_v0,2023.2.2,Win32,84.74576271,,,,,,,,,,,,,,,,164.5076,165.8015,165.8016,167.3546,return,0.5686,,88.41145833,0,31,31,12,1,FBP-OG-91.png,0.4,1.2,13,0.5,,,,,,,,,,,,,,,,,,,,,,,,,,,,,,,,,,,,,,,,,,,,,
,,,,,SRP24_034,20,Male,2024-04-10_16h58.05.044,jersey_experiment_5_v0,2023.2.2,Win32,84.74576271,,,,,,,,,,,,,,,,167.3548,168.6488,168.6488,172.3784,return,2.6048,,77.47395833,0,32,32,30,1,FBP-RB-17.png,0.35,1.2,31,0.5,,,,,,,,,,,,,,,,,,,,,,,,,,,,,,,,,,,,,,,,,,,,,
,,,,,SRP24_034,20,Male,2024-04-10_16h58.05.044,jersey_experiment_5_v0,2023.2.2,Win32,84.74576271,,,,,,,,,,,,,,,,172.3786,173.6727,173.6727,181.1786,return,6.7553,,96.61458333,0,33,33,44,1,FBP-RB-19.png,0.45,1.2,45,0.5,,,,,,,,,,,,,,,,,,,,,,,,,,,,,,,,,,,,,,,,,,,,,
,,,,,SRP24_034,20,Male,2024-04-10_16h58.05.044,jersey_experiment_5_v0,2023.2.2,Win32,84.74576271,,,,,,,,,,,,,,,,181.1789,182.2257,182.2257,184.1905,return,0.612,,97.52604167,0,34,34,28,1,FBP-YG-19.png,0.43,1.2,29,0.25,,,,,,,,,,,,,,,,,,,,,,,,,,,,,,,,,,,,,,,,,,,,,
,,,,,SRP24_034,20,Male,2024-04-10_16h58.05.044,jersey_experiment_5_v0,2023.2.2,Win32,84.74576271,,,,,,,,,,,,,,,,184.1907,185.2375,185.2375,187.3202,return,0.7012,,99.86979167,0,35,35,29,1,FBP-YG-19.png,0.45,1.2,30,0.25,,,,,,,,,,,,,,,,,,,,,,,,,,,,,,,,,,,,,,,,,,,,,
,,,,,SRP24_034,20,Male,2024-04-10_16h58.05.044,jersey_experiment_5_v0,2023.2.2,Win32,84.74576271,,,,,,,,,,,,,,,,187.3203,188.6143,188.6143,192.2967,return,1.5688,,81.640625,0,36,36,6,1,FBP-OG-81.png,0.37,1.2,7,0.5,,,,,,,,,,,,,,,,,,,,,,,,,,,,,,,,,,,,,,,,,,,,,
,,,,,SRP24_034,20,Male,2024-04-10_16h58.05.044,jersey_experiment_5_v0,2023.2.2,Win32,84.74576271,,,,,,,,,,,,,,,,192.2969,193.5907,193.5907,196.4146,return,1.6101,,81.77083333,0,37,37,3,1,FBP-OG-71.png,0.43,1.2,4,0.5,,,,,,,,,,,,,,,,,,,,,,,,,,,,,,,,,,,,,,,,,,,,,
,,,,,SRP24_034,20,Male,2024-04-10_16h58.05.044,jersey_experiment_5_v0,2023.2.2,Win32,84.74576271,,,,,,,,,,,,,,,,196.4149,197.4615,197.4616,201.1322,return,2.532,,75,0,38,38,55,1,FBP-PT-19.png,0.35,1.2,56,0.25,,,,,,,,,,,,,,,,,,,,,,,,,,,,,,,,,,,,,,,,,,,,,
,,,,,SRP24_034,20,Male,2024-04-10_16h58.05.044,jersey_experiment_5_v0,2023.2.2,Win32,84.74576271,,,,,,,,,,,,,,,,201.1325,202.1793,202.1793,205.4973,return,0.7688,,76.43229167,0,39,39,22,1,FBP-YG-18.png,0.4,1.2,23,0.25,,,,,,,,,,,,,,,,,,,,,,,,,,,,,,,,,,,,,,,,,,,,,
,,,,,SRP24_034,20,Male,2024-04-10_16h58.05.044,jersey_experiment_5_v0,2023.2.2,Win32,84.74576271,,,,,,,,,,,,,,,,205.4975,206.7913,206.7913,208.2854,return,0.6818,,80.46875,0,40,40,4,1,FBP-OG-71.png,0.45,1.2,5,0.5,,,,,,,,,,,,,,,,,,,,,,,,,,,,,,,,,,,,,,,,,,,,,
,,,,,SRP24_034,20,Male,2024-04-10_16h58.05.044,jersey_experiment_5_v0,2023.2.2,Win32,84.74576271,,,,,,,,,,,,,,,,208.2856,209.5797,209.5797,212.5445,return,0.8941,,74.08854167,0,41,41,41,1,FBP-RB-19.png,0.37,1.2,42,0.5,,,,,,,,,,,,,,,,,,,,,,,,,,,,,,,,,,,,,,,,,,,,,
,,,,,SRP24_034,20,Male,2024-04-10_16h58.05.044,jersey_experiment_5_v0,2023.2.2,Win32,84.74576271,,,,,,,,,,,,,,,,212.5447,213.5915,213.5915,215.227,return,0.9191,,74.08854167,0,42,42,45,1,FBP-PT-17.png,0.35,1.2,46,0.25,,,,,,,,,,,,,,,,,,,,,,,,,,,,,,,,,,,,,,,,,,,,,
,,,,,SRP24_034,20,Male,2024-04-10_16h58.05.044,jersey_experiment_5_v0,2023.2.2,Win32,84.74576271,,,,,,,,,,,,,,,,215.2272,216.2738,216.2739,219.3212,return,2.1821,,72.65625,0,43,43,50,1,FBP-PT-18.png,0.35,1.2,51,0.25,,,,,,,,,,,,,,,,,,,,,,,,,,,,,,,,,,,,,,,,,,,,,
,,,,,SRP24_034,20,Male,2024-04-10_16h58.05.044,jersey_experiment_5_v0,2023.2.2,Win32,84.74576271,,,,,,,,,,,,,,,,219.3214,220.6153,220.6154,222.5448,return,1.0124,,74.73958333,0,44,44,13,1,FBP-OG-91.png,0.43,1.2,14,0.5,,,,,,,,,,,,,,,,,,,,,,,,,,,,,,,,,,,,,,,,,,,,,
,,,,,SRP24_034,20,Male,2024-04-10_16h58.05.044,jersey_experiment_5_v0,2023.2.2,Win32,84.74576271,,,,,,,,,,,,,,,,222.5451,223.839,223.8391,226.4626,return,0.7299,,74.609375,0,45,45,37,1,FBP-RB-18.png,0.4,1.2,38,0.5,,,,,,,,,,,,,,,,,,,,,,,,,,,,,,,,,,,,,,,,,,,,,
,,,,,SRP24_034,20,Male,2024-04-10_16h58.05.044,jersey_experiment_5_v0,2023.2.2,Win32,84.74576271,,,,,,,,,,,,,,,,226.4628,227.7567,227.7568,228.9567,return,0.7548,,74.609375,0,46,46,42,1,FBP-RB-19.png,0.4,1.2,43,0.5,,,,,,,,,,,,,,,,,,,,,,,,,,,,,,,,,,,,,,,,,,,,,
,,,,,SRP24_034,20,Male,2024-04-10_16h58.05.044,jersey_experiment_5_v0,2023.2.2,Win32,84.74576271,,,,,,,,,,,,,,,,228.9569,230.004,230.004,231.3451,return,0.7205,,74.609375,0,47,47,47,1,FBP-PT-17.png,0.4,1.2,48,0.25,,,,,,,,,,,,,,,,,,,,,,,,,,,,,,,,,,,,,,,,,,,,,
,,,,,SRP24_034,20,Male,2024-04-10_16h58.05.044,jersey_experiment_5_v0,2023.2.2,Win32,84.74576271,,,,,,,,,,,,,,,,231.3453,232.3921,232.3921,234.1454,return,0.6814,,79.16666667,0,48,48,27,1,FBP-YG-19.png,0.4,1.2,28,0.25,,,,,,,,,,,,,,,,,,,,,,,,,,,,,,,,,,,,,,,,,,,,,
,,,,,SRP24_034,20,Male,2024-04-10_16h58.05.044,jersey_experiment_5_v0,2023.2.2,Win32,84.74576271,,,,,,,,,,,,,,,,234.1456,235.4394,235.4394,238.51,return,0.905,,70.3125,0,49,49,5,1,FBP-OG-81.png,0.35,1.2,6,0.5,,,,,,,,,,,,,,,,,,,,,,,,,,,,,,,,,,,,,,,,,,,,,
,,,,,SRP24_034,20,Male,2024-04-10_16h58.05.044,jersey_experiment_5_v0,2023.2.2,Win32,84.74576271,,,,,,,,,,,,,,,,238.5102,239.5572,239.5572,240.875,return,0.7557,,70.3125,0,50,50,17,1,FBP-YG-17.png,0.4,1.2,18,0.25,,,,,,,,,,,,,,,,,,,,,,,,,,,,,,,,,,,,,,,,,,,,,
,,,,,SRP24_034,20,Male,2024-04-10_16h58.05.044,jersey_experiment_5_v0,2023.2.2,Win32,84.74576271,,,,,,,,,,,,,,,,240.8752,242.169,242.1692,243.6161,return,0.6593,,73.4375,0,51,51,32,1,FBP-RB-17.png,0.4,1.2,33,0.5,,,,,,,,,,,,,,,,,,,,,,,,,,,,,,,,,,,,,,,,,,,,,
,,,,,SRP24_034,20,Male,2024-04-10_16h58.05.044,jersey_experiment_5_v0,2023.2.2,Win32,84.74576271,,,,,,,,,,,,,,,,243.6164,244.6633,244.6633,245.9458,return,0.6745,,73.4375,0,52,52,16,1,FBP-YG-17.png,0.37,1.2,17,0.25,,,,,,,,,,,,,,,,,,,,,,,,,,,,,,,,,,,,,,,,,,,,,
,,,,,SRP24_034,20,Male,2024-04-10_16h58.05.044,jersey_experiment_5_v0,2023.2.2,Win32,84.74576271,,,,,,,,,,,,,,,,245.946,247.2397,247.2398,249.1811,return,0.9084,,71.22395833,0,53,53,1,1,FBP-OG-71.png,0.37,1.2,2,0.5,,,,,,,,,,,,,,,,,,,,,,,,,,,,,,,,,,,,,,,,,,,,,
,,,,,SRP24_034,20,Male,2024-04-10_16h58.05.044,jersey_experiment_5_v0,2023.2.2,Win32,84.74576271,,,,,,,,,,,,,,,,249.1814,250.2281,250.2281,252.0283,return,0.7532,,78.515625,0,54,54,21,1,FBP-YG-18.png,0.37,1.2,22,0.25,,,,,,,,,,,,,,,,,,,,,,,,,,,,,,,,,,,,,,,,,,,,,
,,,,,SRP24_034,20,Male,2024-04-10_16h58.05.044,jersey_experiment_5_v0,2023.2.2,Win32,84.74576271,,,,,,,,,,,,,,,,252.0286,253.0753,253.0753,254.5578,return,0.6464,,90.49479167,0,55,55,26,1,FBP-YG-19.png,0.37,1.2,27,0.25,,,,,,,,,,,,,,,,,,,,,,,,,,,,,,,,,,,,,,,,,,,,,
,,,,,SRP24_034,20,Male,2024-04-10_16h58.05.044,jersey_experiment_5_v0,2023.2.2,Win32,84.74576271,,,,,,,,,,,,,,,,254.558,255.6049,255.6049,262.9109,return,3.4692,,85.546875,0,56,56,46,1,FBP-PT-17.png,0.37,1.2,47,0.25,,,,,,,,,,,,,,,,,,,,,,,,,,,,,,,,,,,,,,,,,,,,,
,,,,,SRP24_034,20,Male,2024-04-10_16h58.05.044,jersey_experiment_5_v0,2023.2.2,Win32,84.74576271,,,,,,,,,,,,,,,,262.9153,263.958,263.9581,266.464,return,0.8476,,81.51041667,0,57,57,51,1,FBP-PT-18.png,0.37,1.2,52,0.25,,,,,,,,,,,,,,,,,,,,,,,,,,,,,,,,,,,,,,,,,,,,,
,,,,,SRP24_034,20,Male,2024-04-10_16h58.05.044,jersey_experiment_5_v0,2023.2.2,Win32,84.74576271,,,,,,,,,,,,,,,,266.4642,267.7581,267.7582,269.2759,return,0.8617,,81.51041667,0,58,58,2,1,FBP-OG-71.png,0.4,1.2,3,0.5,,,,,,,,,,,,,,,,,,,,,,,,,,,,,,,,,,,,,,,,,,,,,
,,,,,SRP24_034,20,Male,2024-04-10_16h58.05.044,jersey_experiment_5_v0,2023.2.2,Win32,84.74576271,,,,,,,,,,,,,,,,269.2761,270.5701,270.5701,272.2995,return,0.6724,,79.94791667,0,59,59,31,1,FBP-RB-17.png,0.37,1.2,32,0.5,,,,,,,,,,,,,,,,,,,,,,,,,,,,,,,,,,,,,,,,,,,,,
,,,,,SRP24_034,20,Male,2024-04-10_16h58.05.044,jersey_experiment_5_v0,2023.2.2,Win32,84.74576271,,,,,,,,,,,,,,,,272.3013,273.5937,273.5938,277.6291,return,0.979,,68.61979167,,,,,,FBP-OG-18.png,0.35,1.2,6,0.5,0,0,0,5,1,,,,,,,,,,,,,,,,,,,,,,,,,,,,,,,,,,,,,,,,
,,,,,SRP24_034,20,Male,2024-04-10_16h58.05.044,jersey_experiment_5_v0,2023.2.2,Win32,84.74576271,,,,,,,,,,,,,,,,277.6294,278.6762,278.6762,280.3585,return,0.6892,,72.78645833,,,,,,FBP-YG-81.png,0.37,1.2,22,0.25,0,1,1,21,1,,,,,,,,,,,,,,,,,,,,,,,,,,,,,,,,,,,,,,,,
,,,,,SRP24_034,20,Male,2024-04-10_16h58.05.044,jersey_experiment_5_v0,2023.2.2,Win32,84.74576271,,,,,,,,,,,,,,,,280.3589,281.6528,281.6529,283.9825,return,0.6367,,74.73958333,,,,,,FBP-RB-81.png,0.35,1.2,36,0.5,0,2,2,35,1,,,,,,,,,,,,,,,,,,,,,,,,,,,,,,,,,,,,,,,,
,,,,,SRP24_034,20,Male,2024-04-10_16h58.05.044,jersey_experiment_5_v0,2023.2.2,Win32,84.74576271,,,,,,,,,,,,,,,,283.9826,285.0294,285.0294,286.7589,return,0.7257,,70.18229167,,,,,,FBP-PT-81.png,0.35,1.2,51,0.25,0,3,3,50,1,,,,,,,,,,,,,,,,,,,,,,,,,,,,,,,,,,,,,,,,
,,,,,SRP24_034,20,Male,2024-04-10_16h58.05.044,jersey_experiment_5_v0,2023.2.2,Win32,84.74576271,,,,,,,,,,,,,,,,286.7591,287.8059,287.8059,289.6766,return,0.6959,,76.5625,,,,,,FBP-YG-91.png,0.35,1.2,26,0.25,0,4,4,25,1,,,,,,,,,,,,,,,,,,,,,,,,,,,,,,,,,,,,,,,,
,,,,,SRP24_034,20,Male,2024-04-10_16h58.05.044,jersey_experiment_5_v0,2023.2.2,Win32,84.74576271,,,,,,,,,,,,,,,,289.6769,290.7235,290.7235,293.7239,return,0.6031,,92.96875,,,,,,FBP-YG-81.png,0.45,1.2,25,0.25,0,5,5,24,1,,,,,,,,,,,,,,,,,,,,,,,,,,,,,,,,,,,,,,,,
,,,,,SRP24_034,20,Male,2024-04-10_16h58.05.044,jersey_experiment_5_v0,2023.2.2,Win32,84.74576271,,,,,,,,,,,,,,,,293.7242,295.0182,295.0182,296.2298,return,0.5366,,96.875,,,,,,FBP-RB-91.png,0.43,1.2,44,0.5,0,6,6,43,1,,,,,,,,,,,,,,,,,,,,,,,,,,,,,,,,,,,,,,,,
,,,,,SRP24_034,20,Male,2024-04-10_16h58.05.044,jersey_experiment_5_v0,2023.2.2,Win32,84.74576271,,,,,,,,,,,,,,,,296.23,297.2769,297.2769,299.1359,return,0.6031,,95.05208333,,,,,,FBP-PT-81.png,0.43,1.2,54,0.25,0,7,7,53,1,,,,,,,,,,,,,,,,,,,,,,,,,,,,,,,,,,,,,,,,
,,,,,SRP24_034,20,Male,2024-04-10_16h58.05.044,jersey_experiment_5_v0,2023.2.2,Win32,84.74576271,,,,,,,,,,,,,,,,299.1361,300.4299,300.4299,301.9948,return,0.6243,,80.59895833,,,,,,FBP-RB-71.png,0.35,1.2,31,0.5,0,8,8,30,1,,,,,,,,,,,,,,,,,,,,,,,,,,,,,,,,,,,,,,,,
,,,,,SRP24_034,20,Male,2024-04-10_16h58.05.044,jersey_experiment_5_v0,2023.2.2,Win32,84.74576271,,,,,,,,,,,,,,,,301.9949,303.289,303.289,305.3243,return,1.1777,,86.328125,,,,,,FBP-OG-18.png,0.43,1.2,9,0.5,0,9,9,8,1,,,,,,,,,,,,,,,,,,,,,,,,,,,,,,,,,,,,,,,,
,,,,,SRP24_034,20,Male,2024-04-10_16h58.05.044,jersey_experiment_5_v0,2023.2.2,Win32,84.74576271,,,,,,,,,,,,,,,,305.3244,306.6184,306.6185,308.3832,return,0.6263,,79.42708333,,,,,,FBP-OG-17.png,0.4,1.2,3,0.5,0,10,10,2,1,,,,,,,,,,,,,,,,,,,,,,,,,,,,,,,,,,,,,,,,
,,,,,SRP24_034,20,Male,2024-04-10_16h58.05.044,jersey_experiment_5_v0,2023.2.2,Win32,84.74576271,,,,,,,,,,,,,,,,308.3835,309.6773,309.6774,311.5128,return,0.6392,,88.54166667,,,,,,FBP-RB-91.png,0.45,1.2,45,0.5,0,11,11,44,1,,,,,,,,,,,,,,,,,,,,,,,,,,,,,,,,,,,,,,,,
,,,,,SRP24_034,20,Male,2024-04-10_16h58.05.044,jersey_experiment_5_v0,2023.2.2,Win32,84.74576271,,,,,,,,,,,,,,,,311.513,312.5598,312.5599,314.454,return,0.6653,,76.953125,,,,,,FBP-PT-71.png,0.35,1.2,46,0.25,0,12,12,45,1,,,,,,,,,,,,,,,,,,,,,,,,,,,,,,,,,,,,,,,,
,,,,,SRP24_034,20,Male,2024-04-10_16h58.05.044,jersey_experiment_5_v0,2023.2.2,Win32,84.74576271,,,,,,,,,,,,,,,,314.4542,315.5011,315.5011,316.6188,return,0.5899,,76.953125,,,,,,FBP-PT-71.png,0.37,1.2,47,0.25,0,13,13,46,1,,,,,,,,,,,,,,,,,,,,,,,,,,,,,,,,,,,,,,,,
,,,,,SRP24_034,20,Male,2024-04-10_16h58.05.044,jersey_experiment_5_v0,2023.2.2,Win32,84.74576271,,,,,,,,,,,,,,,,316.619,317.9129,317.9129,319.5602,return,0.7008,,80.98958333,,,,,,FBP-OG-19.png,0.43,1.2,14,0.5,0,14,14,13,1,,,,,,,,,,,,,,,,,,,,,,,,,,,,,,,,,,,,,,,,
,,,,,SRP24_034,20,Male,2024-04-10_16h58.05.044,jersey_experiment_5_v0,2023.2.2,Win32,84.74576271,,,,,,,,,,,,,,,,319.5604,320.6071,320.6072,323.9367,return,2.7306,,84.89583333,,,,,,FBP-PT-71.png,0.45,1.2,50,0.25,0,15,15,49,1,,,,,,,,,,,,,,,,,,,,,,,,,,,,,,,,,,,,,,,,
,,,,,SRP24_034,20,Male,2024-04-10_16h58.05.044,jersey_experiment_5_v0,2023.2.2,Win32,84.74576271,,,,,,,,,,,,,,,,323.937,324.9837,324.9837,326.3133,return,0.7098,,84.89583333,,,,,,FBP-PT-91.png,0.43,1.2,59,0.25,0,16,16,58,1,,,,,,,,,,,,,,,,,,,,,,,,,,,,,,,,,,,,,,,,
,,,,,SRP24_034,20,Male,2024-04-10_16h58.05.044,jersey_experiment_5_v0,2023.2.2,Win32,84.74576271,,,,,,,,,,,,,,,,326.3135,327.3602,327.3602,329.3722,return,0.7296,,83.33333333,,,,,,FBP-YG-71.png,0.4,1.2,18,0.25,0,17,17,17,1,,,,,,,,,,,,,,,,,,,,,,,,,,,,,,,,,,,,,,,,
,,,,,SRP24_034,20,Male,2024-04-10_16h58.05.044,jersey_experiment_5_v0,2023.2.2,Win32,84.74576271,,,,,,,,,,,,,,,,329.3723,330.4192,330.4193,332.1841,return,0.6525,,81.25,,,,,,FBP-YG-91.png,0.37,1.2,27,0.25,0,18,18,26,1,,,,,,,,,,,,,,,,,,,,,,,,,,,,,,,,,,,,,,,,
,,,,,SRP24_034,20,Male,2024-04-10_16h58.05.044,jersey_experiment_5_v0,2023.2.2,Win32,84.74576271,,,,,,,,,,,,,,,,332.1843,333.4781,333.4781,335.69,return,0.6254,,73.30729167,,,,,,FBP-OG-17.png,0.37,1.2,2,0.5,0,19,19,1,1,,,,,,,,,,,,,,,,,,,,,,,,,,,,,,,,,,,,,,,,
,,,,,SRP24_034,20,Male,2024-04-10_16h58.05.044,jersey_experiment_5_v0,2023.2.2,Win32,84.74576271,,,,,,,,,,,,,,,,335.6902,336.9844,336.9844,339.8077,return,1.5396,,94.79166667,,,,,,FBP-OG-19.png,0.45,1.2,15,0.5,0,20,20,14,1,,,,,,,,,,,,,,,,,,,,,,,,,,,,,,,,,,,,,,,,
,,,,,SRP24_034,20,Male,2024-04-10_16h58.05.044,jersey_experiment_5_v0,2023.2.2,Win32,84.74576271,,,,,,,,,,,,,,,,339.808,340.8548,340.8549,342.4786,return,0.588,,90.75520833,,,,,,FBP-PT-71.png,0.4,1.2,48,0.25,0,21,21,47,1,,,,,,,,,,,,,,,,,,,,,,,,,,,,,,,,,,,,,,,,
,,,,,SRP24_034,20,Male,2024-04-10_16h58.05.044,jersey_experiment_5_v0,2023.2.2,Win32,84.74576271,,,,,,,,,,,,,,,,342.4789,343.7728,343.7728,344.9728,return,0.6725,,91.40625,,,,,,FBP-RB-81.png,0.4,1.2,38,0.5,0,22,22,37,1,,,,,,,,,,,,,,,,,,,,,,,,,,,,,,,,,,,,,,,,
,,,,,SRP24_034,20,Male,2024-04-10_16h58.05.044,jersey_experiment_5_v0,2023.2.2,Win32,84.74576271,,,,,,,,,,,,,,,,344.973,346.0197,346.0198,347.9023,return,0.6217,,93.09895833,,,,,,FBP-YG-71.png,0.45,1.2,20,0.25,0,23,23,19,1,,,,,,,,,,,,,,,,,,,,,,,,,,,,,,,,,,,,,,,,
,,,,,SRP24_034,20,Male,2024-04-10_16h58.05.044,jersey_experiment_5_v0,2023.2.2,Win32,84.74576271,,,,,,,,,,,,,,,,347.9026,349.1963,349.1964,350.3612,return,0.6157,,93.48958333,,,,,,FBP-RB-81.png,0.43,1.2,39,0.5,0,24,24,38,1,,,,,,,,,,,,,,,,,,,,,,,,,,,,,,,,,,,,,,,,
,,,,,SRP24_034,20,Male,2024-04-10_16h58.05.044,jersey_experiment_5_v0,2023.2.2,Win32,84.74576271,,,,,,,,,,,,,,,,350.3616,351.4082,351.4082,354.5378,return,2.5796,,96.484375,,,,,,FBP-YG-81.png,0.43,1.2,24,0.25,0,25,25,23,1,,,,,,,,,,,,,,,,,,,,,,,,,,,,,,,,,,,,,,,,
,,,,,SRP24_034,20,Male,2024-04-10_16h58.05.044,jersey_experiment_5_v0,2023.2.2,Win32,84.74576271,,,,,,,,,,,,,,,,354.538,355.5849,355.5849,357.1261,return,1.0301,,96.484375,,,,,,FBP-YG-91.png,0.45,1.2,30,0.25,0,26,26,29,1,,,,,,,,,,,,,,,,,,,,,,,,,,,,,,,,,,,,,,,,
,,,,,SRP24_034,20,Male,2024-04-10_16h58.05.044,jersey_experiment_5_v0,2023.2.2,Win32,84.74576271,,,,,,,,,,,,,,,,357.1262,358.1731,358.1731,361.1851,return,2.4141,,85.546875,,,,,,FBP-YG-81.png,0.4,1.2,23,0.25,0,27,27,22,1,,,,,,,,,,,,,,,,,,,,,,,,,,,,,,,,,,,,,,,,
,,,,,SRP24_034,20,Male,2024-04-10_16h58.05.044,jersey_experiment_5_v0,2023.2.2,Win32,84.74576271,,,,,,,,,,,,,,,,361.1854,362.232,362.2321,363.8086,return,0.6458,,88.28125,,,,,,FBP-PT-81.png,0.45,1.2,55,0.25,0,28,28,54,1,,,,,,,,,,,,,,,,,,,,,,,,,,,,,,,,,,,,,,,,
,,,,,SRP24_034,20,Male,2024-04-10_16h58.05.044,jersey_experiment_5_v0,2023.2.2,Win32,84.74576271,,,,,,,,,,,,,,,,363.8089,364.8558,364.8558,369.5618,return,2.8027,,88.54166667,,,,,,FBP-YG-91.png,0.43,1.2,29,0.25,0,29,29,28,1,,,,,,,,,,,,,,,,,,,,,,,,,,,,,,,,,,,,,,,,
,,,,,SRP24_034,20,Male,2024-04-10_16h58.05.044,jersey_experiment_5_v0,2023.2.2,Win32,84.74576271,,,,,,,,,,,,,,,,369.562,370.8561,370.8561,382.6329,return,1.2998,,78.64583333,,,,,,FBP-RB-91.png,0.4,1.2,43,0.5,0,30,30,42,1,,,,,,,,,,,,,,,,,,,,,,,,,,,,,,,,,,,,,,,,
,,,,,SRP24_034,20,Male,2024-04-10_16h58.05.044,jersey_experiment_5_v0,2023.2.2,Win32,84.74576271,,,,,,,,,,,,,,,,382.6331,383.9269,383.9269,389.4685,return,0.8849,,74.73958333,,,,,,FBP-RB-71.png,0.43,1.2,34,0.5,0,31,31,33,1,,,,,,,,,,,,,,,,,,,,,,,,,,,,,,,,,,,,,,,,
,,,,,SRP24_034,20,Male,2024-04-10_16h58.05.044,jersey_experiment_5_v0,2023.2.2,Win32,84.74576271,,,,,,,,,,,,,,,,389.4688,390.5153,390.5154,392.5979,return,0.1617,,69.921875,,,,,,FBP-YG-71.png,0.37,1.2,17,0.25,0,32,32,16,1,,,,,,,,,,,,,,,,,,,,,,,,,,,,,,,,,,,,,,,,
,,,,,SRP24_034,20,Male,2024-04-10_16h58.05.044,jersey_experiment_5_v0,2023.2.2,Win32,84.74576271,,,,,,,,,,,,,,,,392.5982,393.6449,393.645,395.0218,return,0.1782,,83.984375,,,,,,FBP-YG-71.png,0.43,1.2,19,0.25,0,33,33,18,1,,,,,,,,,,,,,,,,,,,,,,,,,,,,,,,,,,,,,,,,
,,,,,SRP24_034,20,Male,2024-04-10_16h58.05.044,jersey_experiment_5_v0,2023.2.2,Win32,84.74576271,,,,,,,,,,,,,,,,395.022,396.3157,396.3158,398.351,return,0.7294,,72.65625,,,,,,FBP-RB-91.png,0.37,1.2,42,0.5,0,34,34,41,1,,,,,,,,,,,,,,,,,,,,,,,,,,,,,,,,,,,,,,,,
,,,,,SRP24_034,20,Male,2024-04-10_16h58.05.044,jersey_experiment_5_v0,2023.2.2,Win32,84.74576271,,,,,,,,,,,,,,,,398.3513,399.3982,399.3982,400.904,return,0.2163,,71.875,,,,,,FBP-PT-91.png,0.37,1.2,57,0.25,0,35,35,56,1,,,,,,,,,,,,,,,,,,,,,,,,,,,,,,,,,,,,,,,,
,,,,,SRP24_034,20,Male,2024-04-10_16h58.05.044,jersey_experiment_5_v0,2023.2.2,Win32,84.74576271,,,,,,,,,,,,,,,,400.9043,402.1983,402.1984,404.881,return,1.8122,,71.22395833,,,,,,FBP-OG-19.png,0.35,1.2,11,0.5,0,36,36,10,1,,,,,,,,,,,,,,,,,,,,,,,,,,,,,,,,,,,,,,,,
,,,,,SRP24_034,20,Male,2024-04-10_16h58.05.044,jersey_experiment_5_v0,2023.2.2,Win32,84.74576271,,,,,,,,,,,,,,,,404.8812,406.1749,406.175,408.1984,return,1.5492,,71.74479167,,,,,,FBP-OG-17.png,0.35,1.2,1,0.5,0,37,37,0,1,,,,,,,,,,,,,,,,,,,,,,,,,,,,,,,,,,,,,,,,
,,,,,SRP24_034,20,Male,2024-04-10_16h58.05.044,jersey_experiment_5_v0,2023.2.2,Win32,84.74576271,,,,,,,,,,,,,,,,408.1987,409.4927,409.4927,410.2808,return,0.1571,,78.515625,,,,,,FBP-RB-71.png,0.45,1.2,35,0.5,0,38,38,34,1,,,,,,,,,,,,,,,,,,,,,,,,,,,,,,,,,,,,,,,,
,,,,,SRP24_034,20,Male,2024-04-10_16h58.05.044,jersey_experiment_5_v0,2023.2.2,Win32,84.74576271,,,,,,,,,,,,,,,,410.281,411.5753,411.5753,412.5751,return,0.0603,,71.09375,,,,,,FBP-RB-91.png,0.35,1.2,41,0.5,0,39,39,40,1,,,,,,,,,,,,,,,,,,,,,,,,,,,,,,,,,,,,,,,,
,,,,,SRP24_034,20,Male,2024-04-10_16h58.05.044,jersey_experiment_5_v0,2023.2.2,Win32,84.74576271,,,,,,,,,,,,,,,,412.5753,413.8693,413.8693,414.4813,return,0.2021,,71.09375,,,,,,FBP-RB-81.png,0.37,1.2,37,0.5,0,40,40,36,1,,,,,,,,,,,,,,,,,,,,,,,,,,,,,,,,,,,,,,,,
,,,,,SRP24_034,20,Male,2024-04-10_16h58.05.044,jersey_experiment_5_v0,2023.2.2,Win32,84.74576271,,,,,,,,,,,,,,,,414.4815,415.5281,415.5281,416.4812,return,0.1558,,71.09375,,,,,,FBP-YG-71.png,0.35,1.2,16,0.25,0,41,41,15,1,,,,,,,,,,,,,,,,,,,,,,,,,,,,,,,,,,,,,,,,
,,,,,SRP24_034,20,Male,2024-04-10_16h58.05.044,jersey_experiment_5_v0,2023.2.2,Win32,84.74576271,,,,,,,,,,,,,,,,416.4815,417.7754,417.7755,419.1636,return,0.166,,81.90104167,,,,,,FBP-OG-17.png,0.43,1.2,4,0.5,0,42,42,3,1,,,,,,,,,,,,,,,,,,,,,,,,,,,,,,,,,,,,,,,,
,,,,,SRP24_034,20,Male,2024-04-10_16h58.05.044,jersey_experiment_5_v0,2023.2.2,Win32,84.74576271,,,,,,,,,,,,,,,,419.1638,420.4579,420.4579,421.599,return,0.1988,,89.84375,,,,,,FBP-RB-81.png,0.45,1.2,40,0.5,0,43,43,39,1,,,,,,,,,,,,,,,,,,,,,,,,,,,,,,,,,,,,,,,,
,,,,,SRP24_034,20,Male,2024-04-10_16h58.05.044,jersey_experiment_5_v0,2023.2.2,Win32,84.74576271,,,,,,,,,,,,,,,,421.5992,422.8933,422.8933,423.8225,return,0.1419,,91.27604167,,,,,,FBP-OG-19.png,0.4,1.2,13,0.5,0,44,44,12,1,,,,,,,,,,,,,,,,,,,,,,,,,,,,,,,,,,,,,,,,
,,,,,SRP24_034,20,Male,2024-04-10_16h58.05.044,jersey_experiment_5_v0,2023.2.2,Win32,84.74576271,,,,,,,,,,,,,,,,423.8228,424.8696,424.8697,425.9169,return,0.3544,,91.015625,,,,,,FBP-PT-71.png,0.43,1.2,49,0.25,0,45,45,48,1,,,,,,,,,,,,,,,,,,,,,,,,,,,,,,,,,,,,,,,,
,,,,,SRP24_034,20,Male,2024-04-10_16h58.05.044,jersey_experiment_5_v0,2023.2.2,Win32,84.74576271,,,,,,,,,,,,,,,,425.9172,427.2111,427.2112,428.3639,return,0.1658,,70.96354167,,,,,,FBP-OG-19.png,0.37,1.2,12,0.5,0,46,46,11,1,,,,,,,,,,,,,,,,,,,,,,,,,,,,,,,,,,,,,,,,
,,,,,SRP24_034,20,Male,2024-04-10_16h58.05.044,jersey_experiment_5_v0,2023.2.2,Win32,84.74576271,,,,,,,,,,,,,,,,428.3641,429.658,429.658,430.9052,return,0.1202,,91.14583333,,,,,,FBP-OG-17.png,0.45,1.2,5,0.5,0,47,47,4,1,,,,,,,,,,,,,,,,,,,,,,,,,,,,,,,,,,,,,,,,
,,,,,SRP24_034,20,Male,2024-04-10_16h58.05.044,jersey_experiment_5_v0,2023.2.2,Win32,84.74576271,,,,,,,,,,,,,,,,430.9055,431.9522,431.9522,433.6935,return,0.5185,,69.27083333,,,,,,FBP-PT-91.png,0.35,1.2,56,0.25,0,48,48,55,1,,,,,,,,,,,,,,,,,,,,,,,,,,,,,,,,,,,,,,,,
,,,,,SRP24_034,20,Male,2024-04-10_16h58.05.044,jersey_experiment_5_v0,2023.2.2,Win32,84.74576271,,,,,,,,,,,,,,,,433.6938,434.7406,434.7407,435.6936,return,0.2127,,67.70833333,,,,,,FBP-PT-91.png,0.45,1.2,60,0.25,0,49,49,59,1,,,,,,,,,,,,,,,,,,,,,,,,,,,,,,,,,,,,,,,,
,,,,,SRP24_034,20,Male,2024-04-10_16h58.05.044,jersey_experiment_5_v0,2023.2.2,Win32,84.74576271,,,,,,,,,,,,,,,,435.6937,436.9877,436.9877,439.576,return,1.8987,,67.578125,,,,,,FBP-RB-71.png,0.4,1.2,33,0.5,0,50,50,32,1,,,,,,,,,,,,,,,,,,,,,,,,,,,,,,,,,,,,,,,,
,,,,,SRP24_034,20,Male,2024-04-10_16h58.05.044,jersey_experiment_5_v0,2023.2.2,Win32,84.74576271,,,,,,,,,,,,,,,,439.5762,440.6232,440.6232,441.4468,return,0.2172,,70.05208333,,,,,,FBP-YG-91.png,0.4,1.2,28,0.25,0,51,51,27,1,,,,,,,,,,,,,,,,,,,,,,,,,,,,,,,,,,,,,,,,
,,,,,SRP24_034,20,Male,2024-04-10_16h58.05.044,jersey_experiment_5_v0,2023.2.2,Win32,84.74576271,,,,,,,,,,,,,,,,441.447,442.741,442.741,444.2468,return,0.1466,,65.10416667,,,,,,FBP-RB-71.png,0.37,1.2,32,0.5,0,52,52,31,1,,,,,,,,,,,,,,,,,,,,,,,,,,,,,,,,,,,,,,,,
,,,,,SRP24_034,20,Male,2024-04-10_16h58.05.044,jersey_experiment_5_v0,2023.2.2,Win32,84.74576271,,,,,,,,,,,,,,,,444.2471,445.5409,445.5411,448.094,return,1.8824,,69.921875,,,,,,FBP-OG-18.png,0.37,1.2,7,0.5,0,53,53,6,1,,,,,,,,,,,,,,,,,,,,,,,,,,,,,,,,,,,,,,,,
,,,,,SRP24_034,20,Male,2024-04-10_16h58.05.044,jersey_experiment_5_v0,2023.2.2,Win32,84.74576271,,,,,,,,,,,,,,,,448.0942,449.3881,449.3881,450.9529,return,0.3231,,67.31770833,,,,,,FBP-OG-18.png,0.4,1.2,8,0.5,0,54,54,7,1,,,,,,,,,,,,,,,,,,,,,,,,,,,,,,,,,,,,,,,,
,,,,,SRP24_034,20,Male,2024-04-10_16h58.05.044,jersey_experiment_5_v0,2023.2.2,Win32,84.74576271,,,,,,,,,,,,,,,,450.9532,451.9998,451.9999,453.3061,return,0.1572,,77.60416667,,,,,,FBP-PT-81.png,0.4,1.2,53,0.25,0,55,55,52,1,,,,,,,,,,,,,,,,,,,,,,,,,,,,,,,,,,,,,,,,
,,,,,SRP24_034,20,Male,2024-04-10_16h58.05.044,jersey_experiment_5_v0,2023.2.2,Win32,84.74576271,,,,,,,,,,,,,,,,453.3063,454.353,454.353,456.0473,return,0.1756,,78.25520833,,,,,,FBP-PT-81.png,0.37,1.2,52,0.25,0,56,56,51,1,,,,,,,,,,,,,,,,,,,,,,,,,,,,,,,,,,,,,,,,
,,,,,SRP24_034,20,Male,2024-04-10_16h58.05.044,jersey_experiment_5_v0,2023.2.2,Win32,84.74576271,,,,,,,,,,,,,,,,456.0475,457.0943,457.0944,458.1768,return,0.1661,,78.64583333,,,,,,FBP-PT-91.png,0.4,1.2,58,0.25,0,57,57,57,1,,,,,,,,,,,,,,,,,,,,,,,,,,,,,,,,,,,,,,,,
,,,,,SRP24_034,20,Male,2024-04-10_16h58.05.044,jersey_experiment_5_v0,2023.2.2,Win32,84.74576271,,,,,,,,,,,,,,,,458.1771,459.4709,459.4709,460.3297,return,0.2497,,78.64583333,,,,,,FBP-OG-18.png,0.45,1.2,10,0.5,0,58,58,9,1,,,,,,,,,,,,,,,,,,,,,,,,,,,,,,,,,,,,,,,,
,,,,,SRP24_034,20,Male,2024-04-10_16h58.05.044,jersey_experiment_5_v0,2023.2.2,Win32,84.74576271,,,,,,,,,,,,,,,,460.33,461.3768,461.3768,462.471,return,0.1489,,81.640625,,,,,,FBP-YG-81.png,0.35,1.2,21,0.25,0,59,59,20,1,,,,,,,,,,,,,,,,,,,,,,,,,,,,,,,,,,,,,,,,
,,,,,SRP24_034,20,Male,2024-04-10_16h58.05.044,jersey_experiment_5_v0,2023.2.2,Win32,84.74576271,,,,,,,,,,,,,,,,,,,,,,,,,,,,,,,,,,,,,,,462.4715,582.4639,,,,,,,,,,,,,,,,,,,,,,,,,,,,,,,,,,,,,,
,,,,,SRP24_034,20,Male,2024-04-10_16h58.05.044,jersey_experiment_5_v0,2023.2.2,Win32,84.74576271,,,,,,,,,,,,,,,,,,,,,,,,,,,,,,,,,,,,,,,,,582.464,597.0643,return,14.5947,,,,,,,,,,,,,,,,,,,,,,,,,,,,,,,,,,
,,,,,SRP24_034,20,Male,2024-04-10_16h58.05.044,jersey_experiment_5_v0,2023.2.2,Win32,84.74576271,,,,,,,,,,,,,,,,597.0708,598.37,598.3701,602.2407,return,0.8242,,71.22395833,,,,,,FBP-PT-18.png,0.4,1.2,53,0.5,,,,,,,,,,,,,0,0,0,52,1,,,,,,,,,,,,,,,,,,,,,,,,,,,,
,,,,,SRP24_034,20,Male,2024-04-10_16h58.05.044,jersey_experiment_5_v0,2023.2.2,Win32,84.74576271,,,,,,,,,,,,,,,,602.2409,603.5348,603.5348,605.8997,return,0.9658,,71.61458333,,,,,,FBP-YG-18.png,0.37,1.2,22,0.5,,,,,,,,,,,,,0,1,1,21,1,,,,,,,,,,,,,,,,,,,,,,,,,,,,
,,,,,SRP24_034,20,Male,2024-04-10_16h58.05.044,jersey_experiment_5_v0,2023.2.2,Win32,84.74576271,,,,,,,,,,,,,,,,605.8999,607.1937,607.1937,610.2645,return,1.6999,,74.86979167,,,,,,FBP-YG-17.png,0.4,1.2,18,0.5,,,,,,,,,,,,,0,2,2,17,1,,,,,,,,,,,,,,,,,,,,,,,,,,,,
,,,,,SRP24_034,20,Male,2024-04-10_16h58.05.044,jersey_experiment_5_v0,2023.2.2,Win32,84.74576271,,,,,,,,,,,,,,,,610.2648,611.3115,611.3115,613.3703,return,0.4847,,72.91666667,,,,,,FBP-RB-19.png,0.37,1.2,42,0.25,,,,,,,,,,,,,0,3,3,41,1,,,,,,,,,,,,,,,,,,,,,,,,,,,,
,,,,,SRP24_034,20,Male,2024-04-10_16h58.05.044,jersey_experiment_5_v0,2023.2.2,Win32,84.74576271,,,,,,,,,,,,,,,,613.3705,614.4176,614.4176,617.1589,return,1.3721,,85.546875,,,,,,FBP-RB-17.png,0.45,1.2,35,0.25,,,,,,,,,,,,,0,4,4,34,1,,,,,,,,,,,,,,,,,,,,,,,,,,,,
,,,,,SRP24_034,20,Male,2024-04-10_16h58.05.044,jersey_experiment_5_v0,2023.2.2,Win32,84.74576271,,,,,,,,,,,,,,,,617.1591,618.2058,618.2059,619.6413,return,0.3932,,78.515625,,,,,,FBP-RB-19.png,0.4,1.2,43,0.25,,,,,,,,,,,,,0,5,5,42,1,,,,,,,,,,,,,,,,,,,,,,,,,,,,
,,,,,SRP24_034,20,Male,2024-04-10_16h58.05.044,jersey_experiment_5_v0,2023.2.2,Win32,84.74576271,,,,,,,,,,,,,,,,619.6415,620.9354,620.9355,621.7355,return,0.2302,,78.515625,,,,,,FBP-YG-18.png,0.4,1.2,23,0.5,,,,,,,,,,,,,0,6,6,22,1,,,,,,,,,,,,,,,,,,,,,,,,,,,,
,,,,,SRP24_034,20,Male,2024-04-10_16h58.05.044,jersey_experiment_5_v0,2023.2.2,Win32,84.74576271,,,,,,,,,,,,,,,,621.7357,622.7826,622.7827,624.2295,return,0.2885,,84.89583333,,,,,,FBP-RB-19.png,0.45,1.2,45,0.25,,,,,,,,,,,,,0,7,7,44,1,,,,,,,,,,,,,,,,,,,,,,,,,,,,
,,,,,SRP24_034,20,Male,2024-04-10_16h58.05.044,jersey_experiment_5_v0,2023.2.2,Win32,84.74576271,,,,,,,,,,,,,,,,624.2298,625.5239,625.5239,629.1122,return,2.3216,,82.8125,,,,,,FBP-YG-18.png,0.43,1.2,24,0.5,,,,,,,,,,,,,0,8,8,23,1,,,,,,,,,,,,,,,,,,,,,,,,,,,,
,,,,,SRP24_034,20,Male,2024-04-10_16h58.05.044,jersey_experiment_5_v0,2023.2.2,Win32,84.74576271,,,,,,,,,,,,,,,,629.1125,630.1593,630.1594,631.8536,return,0.2355,,72.00520833,,,,,,FBP-OG-71.png,0.37,1.2,2,0.25,,,,,,,,,,,,,0,9,9,1,1,,,,,,,,,,,,,,,,,,,,,,,,,,,,
,,,,,SRP24_034,20,Male,2024-04-10_16h58.05.044,jersey_experiment_5_v0,2023.2.2,Win32,84.74576271,,,,,,,,,,,,,,,,631.8539,632.9006,632.9006,635.6066,return,1.4521,,75.26041667,,,,,,FBP-RB-17.png,0.37,1.2,32,0.25,,,,,,,,,,,,,0,10,10,31,1,,,,,,,,,,,,,,,,,,,,,,,,,,,,
,,,,,SRP24_034,20,Male,2024-04-10_16h58.05.044,jersey_experiment_5_v0,2023.2.2,Win32,84.74576271,,,,,,,,,,,,,,,,635.6068,636.6536,636.6537,638.1596,return,0.376,,80.59895833,,,,,,FBP-OG-81.png,0.4,1.2,8,0.25,,,,,,,,,,,,,0,11,11,7,1,,,,,,,,,,,,,,,,,,,,,,,,,,,,
,,,,,SRP24_034,20,Male,2024-04-10_16h58.05.044,jersey_experiment_5_v0,2023.2.2,Win32,84.74576271,,,,,,,,,,,,,,,,638.1597,639.2066,639.2066,639.9597,return,0.1946,,80.46875,,,,,,FBP-OG-71.png,0.43,1.2,4,0.25,,,,,,,,,,,,,0,12,12,3,1,,,,,,,,,,,,,,,,,,,,,,,,,,,,
,,,,,SRP24_034,20,Male,2024-04-10_16h58.05.044,jersey_experiment_5_v0,2023.2.2,Win32,84.74576271,,,,,,,,,,,,,,,,639.9599,641.2538,641.2538,642.2773,return,0.1144,,83.203125,,,,,,FBP-YG-17.png,0.45,1.2,20,0.5,,,,,,,,,,,,,0,13,13,19,1,,,,,,,,,,,,,,,,,,,,,,,,,,,,
,,,,,SRP24_034,20,Male,2024-04-10_16h58.05.044,jersey_experiment_5_v0,2023.2.2,Win32,84.74576271,,,,,,,,,,,,,,,,642.2776,643.5716,643.5716,649.5365,return,0.3636,,71.875,,,,,,FBP-YG-19.png,0.37,1.2,27,0.5,,,,,,,,,,,,,0,14,14,26,1,,,,,,,,,,,,,,,,,,,,,,,,,,,,
,,,,,SRP24_034,20,Male,2024-04-10_16h58.05.044,jersey_experiment_5_v0,2023.2.2,Win32,84.74576271,,,,,,,,,,,,,,,,649.5368,650.5836,650.5836,651.5014,return,0.2121,,75,,,,,,FBP-OG-91.png,0.43,1.2,14,0.25,,,,,,,,,,,,,0,15,15,13,1,,,,,,,,,,,,,,,,,,,,,,,,,,,,
,,,,,SRP24_034,20,Male,2024-04-10_16h58.05.044,jersey_experiment_5_v0,2023.2.2,Win32,84.74576271,,,,,,,,,,,,,,,,651.5016,652.5482,652.5483,653.419,return,0.2017,,75,,,,,,FBP-OG-91.png,0.4,1.2,13,0.25,,,,,,,,,,,,,0,16,16,12,1,,,,,,,,,,,,,,,,,,,,,,,,,,,,
,,,,,SRP24_034,20,Male,2024-04-10_16h58.05.044,jersey_experiment_5_v0,2023.2.2,Win32,84.74576271,,,,,,,,,,,,,,,,653.4191,654.7131,654.7131,655.5837,return,0.4244,,75,,,,,,FBP-YG-19.png,0.4,1.2,28,0.5,,,,,,,,,,,,,0,17,17,27,1,,,,,,,,,,,,,,,,,,,,,,,,,,,,
,,,,,SRP24_034,20,Male,2024-04-10_16h58.05.044,jersey_experiment_5_v0,2023.2.2,Win32,84.74576271,,,,,,,,,,,,,,,,655.5839,656.8778,656.8778,659.3251,return,1.2949,,80.98958333,,,,,,FBP-YG-19.png,0.45,1.2,30,0.5,,,,,,,,,,,,,0,18,18,29,1,,,,,,,,,,,,,,,,,,,,,,,,,,,,
,,,,,SRP24_034,20,Male,2024-04-10_16h58.05.044,jersey_experiment_5_v0,2023.2.2,Win32,84.74576271,,,,,,,,,,,,,,,,659.3253,660.6191,660.6193,661.1604,return,0.1465,,80.72916667,,,,,,FBP-YG-17.png,0.43,1.2,19,0.5,,,,,,,,,,,,,0,19,19,18,1,,,,,,,,,,,,,,,,,,,,,,,,,,,,
,,,,,SRP24_034,20,Male,2024-04-10_16h58.05.044,jersey_experiment_5_v0,2023.2.2,Win32,84.74576271,,,,,,,,,,,,,,,,661.1605,662.4546,662.4546,664.2664,return,0.145,,67.1875,,,,,,FBP-YG-17.png,0.35,1.2,16,0.5,,,,,,,,,,,,,0,20,20,15,1,,,,,,,,,,,,,,,,,,,,,,,,,,,,
,,,,,SRP24_034,20,Male,2024-04-10_16h58.05.044,jersey_experiment_5_v0,2023.2.2,Win32,84.74576271,,,,,,,,,,,,,,,,664.2666,665.5605,665.5605,666.1606,return,0.1778,,67.31770833,,,,,,FBP-PT-19.png,0.35,1.2,56,0.5,,,,,,,,,,,,,0,21,21,55,1,,,,,,,,,,,,,,,,,,,,,,,,,,,,
,,,,,SRP24_034,20,Male,2024-04-10_16h58.05.044,jersey_experiment_5_v0,2023.2.2,Win32,84.74576271,,,,,,,,,,,,,,,,666.1608,667.4548,667.4549,668.0078,return,0.1712,,67.31770833,,,,,,FBP-PT-18.png,0.35,1.2,51,0.5,,,,,,,,,,,,,0,22,22,50,1,,,,,,,,,,,,,,,,,,,,,,,,,,,,
,,,,,SRP24_034,20,Male,2024-04-10_16h58.05.044,jersey_experiment_5_v0,2023.2.2,Win32,84.74576271,,,,,,,,,,,,,,,,668.008,669.3019,669.3019,670.6313,return,0.1601,,71.35416667,,,,,,FBP-PT-17.png,0.43,1.2,49,0.5,,,,,,,,,,,,,0,23,23,48,1,,,,,,,,,,,,,,,,,,,,,,,,,,,,
,,,,,SRP24_034,20,Male,2024-04-10_16h58.05.044,jersey_experiment_5_v0,2023.2.2,Win32,84.74576271,,,,,,,,,,,,,,,,670.6315,671.6784,671.6785,672.4079,return,0.1947,,71.22395833,,,,,,FBP-OG-81.png,0.37,1.2,7,0.25,,,,,,,,,,,,,0,24,24,6,1,,,,,,,,,,,,,,,,,,,,,,,,,,,,
,,,,,SRP24_034,20,Male,2024-04-10_16h58.05.044,jersey_experiment_5_v0,2023.2.2,Win32,84.74576271,,,,,,,,,,,,,,,,672.4082,673.4549,673.455,674.7963,return,0.1317,,82.29166667,,,,,,FBP-RB-19.png,0.43,1.2,44,0.25,,,,,,,,,,,,,0,25,25,43,1,,,,,,,,,,,,,,,,,,,,,,,,,,,,
,,,,,SRP24_034,20,Male,2024-04-10_16h58.05.044,jersey_experiment_5_v0,2023.2.2,Win32,84.74576271,,,,,,,,,,,,,,,,674.7965,676.0904,676.0905,680.0317,return,2.2225,,69.140625,,,,,,FBP-YG-17.png,0.37,1.2,17,0.5,,,,,,,,,,,,,0,26,26,16,1,,,,,,,,,,,,,,,,,,,,,,,,,,,,
,,,,,SRP24_034,20,Male,2024-04-10_16h58.05.044,jersey_experiment_5_v0,2023.2.2,Win32,84.74576271,,,,,,,,,,,,,,,,680.032,681.326,681.3261,682.5847,return,0.2051,,83.72395833,,,,,,FBP-PT-19.png,0.45,1.2,60,0.5,,,,,,,,,,,,,0,27,27,59,1,,,,,,,,,,,,,,,,,,,,,,,,,,,,
,,,,,SRP24_034,20,Male,2024-04-10_16h58.05.044,jersey_experiment_5_v0,2023.2.2,Win32,84.74576271,,,,,,,,,,,,,,,,682.585,683.879,683.8791,684.7612,return,0.0858,,71.484375,,,,,,FBP-PT-17.png,0.37,1.2,47,0.5,,,,,,,,,,,,,0,28,28,46,1,,,,,,,,,,,,,,,,,,,,,,,,,,,,
,,,,,SRP24_034,20,Male,2024-04-10_16h58.05.044,jersey_experiment_5_v0,2023.2.2,Win32,84.74576271,,,,,,,,,,,,,,,,684.7614,685.8084,685.8084,687.1614,return,0.1695,,90.49479167,,,,,,FBP-RB-18.png,0.45,1.2,40,0.25,,,,,,,,,,,,,0,29,29,39,1,,,,,,,,,,,,,,,,,,,,,,,,,,,,
,,,,,SRP24_034,20,Male,2024-04-10_16h58.05.044,jersey_experiment_5_v0,2023.2.2,Win32,84.74576271,,,,,,,,,,,,,,,,687.1616,688.2084,688.2085,690.6556,return,0.9417,,84.765625,,,,,,FBP-OG-81.png,0.43,1.2,9,0.25,,,,,,,,,,,,,0,30,30,8,1,,,,,,,,,,,,,,,,,,,,,,,,,,,,
,,,,,SRP24_034,20,Male,2024-04-10_16h58.05.044,jersey_experiment_5_v0,2023.2.2,Win32,84.74576271,,,,,,,,,,,,,,,,690.6558,691.7026,691.7026,692.8792,return,0.1279,,80.98958333,,,,,,FBP-OG-71.png,0.4,1.2,3,0.25,,,,,,,,,,,,,0,31,31,2,1,,,,,,,,,,,,,,,,,,,,,,,,,,,,
,,,,,SRP24_034,20,Male,2024-04-10_16h58.05.044,jersey_experiment_5_v0,2023.2.2,Win32,84.74576271,,,,,,,,,,,,,,,,692.8795,693.9262,693.9264,695.2441,return,0.001,,85.546875,,,,,,FBP-RB-17.png,0.43,1.2,34,0.25,,,,,,,,,,,,,0,32,32,33,1,,,,,,,,,,,,,,,,,,,,,,,,,,,,
,,,,,SRP24_034,20,Male,2024-04-10_16h58.05.044,jersey_experiment_5_v0,2023.2.2,Win32,84.74576271,,,,,,,,,,,,,,,,695.2443,696.2911,696.2911,697.3852,return,0.1447,,81.51041667,,,,,,FBP-OG-91.png,0.45,1.2,15,0.25,,,,,,,,,,,,,0,33,33,14,1,,,,,,,,,,,,,,,,,,,,,,,,,,,,
,,,,,SRP24_034,20,Male,2024-04-10_16h58.05.044,jersey_experiment_5_v0,2023.2.2,Win32,84.74576271,,,,,,,,,,,,,,,,697.3855,698.4323,698.4324,700.8794,return,0.1981,,76.43229167,,,,,,FBP-RB-18.png,0.35,1.2,36,0.25,,,,,,,,,,,,,0,34,34,35,1,,,,,,,,,,,,,,,,,,,,,,,,,,,,
,,,,,SRP24_034,20,Male,2024-04-10_16h58.05.044,jersey_experiment_5_v0,2023.2.2,Win32,84.74576271,,,,,,,,,,,,,,,,700.8796,701.9264,701.9265,709.0564,return,0.2597,,83.984375,,,,,,FBP-RB-18.png,0.43,1.2,39,0.25,,,,,,,,,,,,,0,35,35,38,1,,,,,,,,,,,,,,,,,,,,,,,,,,,,
,,,,,SRP24_034,20,Male,2024-04-10_16h58.05.044,jersey_experiment_5_v0,2023.2.2,Win32,84.74576271,,,,,,,,,,,,,,,,709.0566,710.1033,710.1033,711.327,return,0.1182,,74.21875,,,,,,FBP-RB-19.png,0.35,1.2,41,0.25,,,,,,,,,,,,,0,36,36,40,1,,,,,,,,,,,,,,,,,,,,,,,,,,,,
,,,,,SRP24_034,20,Male,2024-04-10_16h58.05.044,jersey_experiment_5_v0,2023.2.2,Win32,84.74576271,,,,,,,,,,,,,,,,711.3272,712.374,712.374,714.9388,return,0.4721,,69.79166667,,,,,,FBP-OG-91.png,0.37,1.2,12,0.25,,,,,,,,,,,,,0,37,37,11,1,,,,,,,,,,,,,,,,,,,,,,,,,,,,
,,,,,SRP24_034,20,Male,2024-04-10_16h58.05.044,jersey_experiment_5_v0,2023.2.2,Win32,84.74576271,,,,,,,,,,,,,,,,714.9392,715.9859,715.9859,717.1153,return,0.1543,,72.91666667,,,,,,FBP-OG-71.png,0.45,1.2,5,0.25,,,,,,,,,,,,,0,38,38,4,1,,,,,,,,,,,,,,,,,,,,,,,,,,,,
,,,,,SRP24_034,20,Male,2024-04-10_16h58.05.044,jersey_experiment_5_v0,2023.2.2,Win32,84.74576271,,,,,,,,,,,,,,,,717.1155,718.4094,718.4094,719.433,return,0.1817,,79.16666667,,,,,,FBP-PT-19.png,0.43,1.2,59,0.5,,,,,,,,,,,,,0,39,39,58,1,,,,,,,,,,,,,,,,,,,,,,,,,,,,
,,,,,SRP24_034,20,Male,2024-04-10_16h58.05.044,jersey_experiment_5_v0,2023.2.2,Win32,84.74576271,,,,,,,,,,,,,,,,719.4333,720.7275,720.7276,721.7508,return,0.1719,,83.85416667,,,,,,FBP-PT-19.png,0.4,1.2,58,0.5,,,,,,,,,,,,,0,40,40,57,1,,,,,,,,,,,,,,,,,,,,,,,,,,,,
,,,,,SRP24_034,20,Male,2024-04-10_16h58.05.044,jersey_experiment_5_v0,2023.2.2,Win32,84.74576271,,,,,,,,,,,,,,,,721.751,723.0449,723.045,725.2568,return,0.2504,,83.33333333,,,,,,FBP-PT-17.png,0.45,1.2,50,0.5,,,,,,,,,,,,,0,41,41,49,1,,,,,,,,,,,,,,,,,,,,,,,,,,,,
,,,,,SRP24_034,20,Male,2024-04-10_16h58.05.044,jersey_experiment_5_v0,2023.2.2,Win32,84.74576271,,,,,,,,,,,,,,,,725.257,726.3038,726.3039,732.5276,return,1.0821,,78.25520833,,,,,,FBP-RB-18.png,0.37,1.2,37,0.25,,,,,,,,,,,,,0,42,42,36,1,,,,,,,,,,,,,,,,,,,,,,,,,,,,
,,,,,SRP24_034,20,Male,2024-04-10_16h58.05.044,jersey_experiment_5_v0,2023.2.2,Win32,84.74576271,,,,,,,,,,,,,,,,732.5279,733.8221,733.8221,734.8925,return,0.1552,,66.40625,,,,,,FBP-YG-19.png,0.35,1.2,26,0.5,,,,,,,,,,,,,0,43,43,25,1,,,,,,,,,,,,,,,,,,,,,,,,,,,,
,,,,,SRP24_034,20,Male,2024-04-10_16h58.05.044,jersey_experiment_5_v0,2023.2.2,Win32,84.74576271,,,,,,,,,,,,,,,,734.8928,735.9395,735.9395,736.7279,return,0.1223,,68.359375,,,,,,FBP-OG-71.png,0.35,1.2,1,0.25,,,,,,,,,,,,,0,44,44,0,1,,,,,,,,,,,,,,,,,,,,,,,,,,,,
,,,,,SRP24_034,20,Male,2024-04-10_16h58.05.044,jersey_experiment_5_v0,2023.2.2,Win32,84.74576271,,,,,,,,,,,,,,,,736.7281,738.0219,738.022,739.481,return,0.968,,69.53125,,,,,,FBP-YG-18.png,0.35,1.2,21,0.5,,,,,,,,,,,,,0,45,45,20,1,,,,,,,,,,,,,,,,,,,,,,,,,,,,
,,,,,SRP24_034,20,Male,2024-04-10_16h58.05.044,jersey_experiment_5_v0,2023.2.2,Win32,84.74576271,,,,,,,,,,,,,,,,739.4812,740.7751,740.7751,741.8455,return,0.16,,70.83333333,,,,,,FBP-PT-17.png,0.4,1.2,48,0.5,,,,,,,,,,,,,0,46,46,47,1,,,,,,,,,,,,,,,,,,,,,,,,,,,,
,,,,,SRP24_034,20,Male,2024-04-10_16h58.05.044,jersey_experiment_5_v0,2023.2.2,Win32,84.74576271,,,,,,,,,,,,,,,,741.8459,742.8926,742.8928,744.4458,return,0.9316,,66.015625,,,,,,FBP-RB-17.png,0.35,1.2,31,0.25,,,,,,,,,,,,,0,47,47,30,1,,,,,,,,,,,,,,,,,,,,,,,,,,,,
,,,,,SRP24_034,20,Male,2024-04-10_16h58.05.044,jersey_experiment_5_v0,2023.2.2,Win32,84.74576271,,,,,,,,,,,,,,,,744.446,745.4928,745.4928,747.1165,return,0.1192,,79.42708333,,,,,,FBP-OG-81.png,0.45,1.2,10,0.25,,,,,,,,,,,,,0,48,48,9,1,,,,,,,,,,,,,,,,,,,,,,,,,,,,
,,,,,SRP24_034,20,Male,2024-04-10_16h58.05.044,jersey_experiment_5_v0,2023.2.2,Win32,84.74576271,,,,,,,,,,,,,,,,747.1167,748.1636,748.1636,749.0223,return,0.1652,,80.078125,,,,,,FBP-RB-18.png,0.4,1.2,38,0.25,,,,,,,,,,,,,0,49,49,37,1,,,,,,,,,,,,,,,,,,,,,,,,,,,,
,,,,,SRP24_034,20,Male,2024-04-10_16h58.05.044,jersey_experiment_5_v0,2023.2.2,Win32,84.74576271,,,,,,,,,,,,,,,,749.0226,750.3164,750.3165,751.2459,return,0.188,,72.39583333,,,,,,FBP-PT-17.png,0.35,1.2,46,0.5,,,,,,,,,,,,,0,50,50,45,1,,,,,,,,,,,,,,,,,,,,,,,,,,,,
,,,,,SRP24_034,20,Male,2024-04-10_16h58.05.044,jersey_experiment_5_v0,2023.2.2,Win32,84.74576271,,,,,,,,,,,,,,,,751.2461,752.5402,752.5402,753.3755,return,0.118,,78.77604167,,,,,,FBP-PT-18.png,0.37,1.2,52,0.5,,,,,,,,,,,,,0,51,51,51,1,,,,,,,,,,,,,,,,,,,,,,,,,,,,
,,,,,SRP24_034,20,Male,2024-04-10_16h58.05.044,jersey_experiment_5_v0,2023.2.2,Win32,84.74576271,,,,,,,,,,,,,,,,753.3756,754.4228,754.4228,755.2226,return,0.1932,,70.703125,,,,,,FBP-OG-91.png,0.35,1.2,11,0.25,,,,,,,,,,,,,0,52,52,10,1,,,,,,,,,,,,,,,,,,,,,,,,,,,,
,,,,,SRP24_034,20,Male,2024-04-10_16h58.05.044,jersey_experiment_5_v0,2023.2.2,Win32,84.74576271,,,,,,,,,,,,,,,,755.2228,756.2696,756.2696,758.4109,return,1.6034,,74.86979167,,,,,,FBP-RB-17.png,0.4,1.2,33,0.25,,,,,,,,,,,,,0,53,53,32,1,,,,,,,,,,,,,,,,,,,,,,,,,,,,
,,,,,SRP24_034,20,Male,2024-04-10_16h58.05.044,jersey_experiment_5_v0,2023.2.2,Win32,84.74576271,,,,,,,,,,,,,,,,758.4112,759.7051,759.7051,761.4463,return,0.3943,,72.39583333,,,,,,FBP-PT-18.png,0.43,1.2,54,0.5,,,,,,,,,,,,,0,54,54,53,1,,,,,,,,,,,,,,,,,,,,,,,,,,,,
,,,,,SRP24_034,20,Male,2024-04-10_16h58.05.044,jersey_experiment_5_v0,2023.2.2,Win32,84.74576271,,,,,,,,,,,,,,,,761.4465,762.7405,762.7405,766.1877,return,0.2022,,72.00520833,,,,,,FBP-PT-19.png,0.37,1.2,57,0.5,,,,,,,,,,,,,0,55,55,56,1,,,,,,,,,,,,,,,,,,,,,,,,,,,,
,,,,,SRP24_034,20,Male,2024-04-10_16h58.05.044,jersey_experiment_5_v0,2023.2.2,Win32,84.74576271,,,,,,,,,,,,,,,,766.1879,767.4819,767.4819,768.3524,return,0.1788,,84.11458333,,,,,,FBP-YG-18.png,0.45,1.2,25,0.5,,,,,,,,,,,,,0,56,56,24,1,,,,,,,,,,,,,,,,,,,,,,,,,,,,
,,,,,SRP24_034,20,Male,2024-04-10_16h58.05.044,jersey_experiment_5_v0,2023.2.2,Win32,84.74576271,,,,,,,,,,,,,,,,768.3527,769.6466,769.6466,770.8937,return,0.1319,,83.07291667,,,,,,FBP-PT-18.png,0.45,1.2,55,0.5,,,,,,,,,,,,,0,57,57,54,1,,,,,,,,,,,,,,,,,,,,,,,,,,,,
,,,,,SRP24_034,20,Male,2024-04-10_16h58.05.044,jersey_experiment_5_v0,2023.2.2,Win32,84.74576271,,,,,,,,,,,,,,,,770.8938,771.9407,771.9407,772.8938,return,0.1321,,69.40104167,,,,,,FBP-OG-81.png,0.35,1.2,6,0.25,,,,,,,,,,,,,0,58,58,5,1,,,,,,,,,,,,,,,,,,,,,,,,,,,,
,,,,,SRP24_034,20,Male,2024-04-10_16h58.05.044,jersey_experiment_5_v0,2023.2.2,Win32,84.74576271,,,,,,,,,,,,,,,,772.894,774.1881,774.1881,775.035,return,0.109,,83.07291667,,,,,,FBP-YG-19.png,0.43,1.2,29,0.5,,,,,,,,,,,,,0,59,59,28,1,,,,,,,,,,,,,,,,,,,,,,,,,,,,
,,,,,SRP24_034,20,Male,2024-04-10_16h58.05.044,jersey_experiment_5_v0,2023.2.2,Win32,84.74576271,,,,,,,,,,,,,,,,775.0363,776.0821,776.0821,782.9765,return,0.2118,,71.22395833,,,,,,FBP-RB-71.png,0.4,1.2,33,0.25,,,,,,,,,,,,,,,,,,0,0,0,32,1,,,,,,,,,,,,,,,,,,,,,,,
,,,,,SRP24_034,20,Male,2024-04-10_16h58.05.044,jersey_experiment_5_v0,2023.2.2,Win32,84.74576271,,,,,,,,,,,,,,,,782.9767,784.0236,784.0236,784.906,return,0.1217,,77.734375,,,,,,FBP-RB-71.png,0.37,1.2,32,0.25,,,,,,,,,,,,,,,,,,0,1,1,31,1,,,,,,,,,,,,,,,,,,,,,,,
,,,,,SRP24_034,20,Male,2024-04-10_16h58.05.044,jersey_experiment_5_v0,2023.2.2,Win32,84.74576271,,,,,,,,,,,,,,,,784.9062,786.2001,786.2001,786.859,return,0.1674,,76.953125,,,,,,FBP-PT-81.png,0.35,1.2,51,0.5,,,,,,,,,,,,,,,,,,0,2,2,50,1,,,,,,,,,,,,,,,,,,,,,,,
,,,,,SRP24_034,20,Male,2024-04-10_16h58.05.044,jersey_experiment_5_v0,2023.2.2,Win32,84.74576271,,,,,,,,,,,,,,,,786.8592,788.1531,788.1532,790.4238,return,1.8403,,75.26041667,,,,,,FBP-YG-91.png,0.43,1.2,29,0.5,,,,,,,,,,,,,,,,,,0,3,3,28,1,,,,,,,,,,,,,,,,,,,,,,,
,,,,,SRP24_034,20,Male,2024-04-10_16h58.05.044,jersey_experiment_5_v0,2023.2.2,Win32,84.74576271,,,,,,,,,,,,,,,,790.424,791.7179,791.718,793.071,return,0.1977,,75,,,,,,FBP-YG-81.png,0.37,1.2,22,0.5,,,,,,,,,,,,,,,,,,0,4,4,21,1,,,,,,,,,,,,,,,,,,,,,,,
,,,,,SRP24_034,20,Male,2024-04-10_16h58.05.044,jersey_experiment_5_v0,2023.2.2,Win32,84.74576271,,,,,,,,,,,,,,,,793.0712,794.365,794.3651,795.0829,return,0.2132,,74.73958333,,,,,,FBP-PT-91.png,0.37,1.2,57,0.5,,,,,,,,,,,,,,,,,,0,5,5,56,1,,,,,,,,,,,,,,,,,,,,,,,
,,,,,SRP24_034,20,Male,2024-04-10_16h58.05.044,jersey_experiment_5_v0,2023.2.2,Win32,84.74576271,,,,,,,,,,,,,,,,795.0831,796.1298,796.1298,797.0475,return,0.3591,,74.73958333,,,,,,FBP-OG-19.png,0.37,1.2,12,0.25,,,,,,,,,,,,,,,,,,0,6,6,11,1,,,,,,,,,,,,,,,,,,,,,,,
,,,,,SRP24_034,20,Male,2024-04-10_16h58.05.044,jersey_experiment_5_v0,2023.2.2,Win32,84.74576271,,,,,,,,,,,,,,,,797.0477,798.0948,798.0948,799.4477,return,0.3592,,77.99479167,,,,,,FBP-RB-81.png,0.35,1.2,36,0.25,,,,,,,,,,,,,,,,,,0,7,7,35,1,,,,,,,,,,,,,,,,,,,,,,,
,,,,,SRP24_034,20,Male,2024-04-10_16h58.05.044,jersey_experiment_5_v0,2023.2.2,Win32,84.74576271,,,,,,,,,,,,,,,,799.4479,800.495,800.4951,801.7537,return,0.1795,,83.85416667,,,,,,FBP-OG-18.png,0.45,1.2,10,0.25,,,,,,,,,,,,,,,,,,0,8,8,9,1,,,,,,,,,,,,,,,,,,,,,,,
,,,,,SRP24_034,20,Male,2024-04-10_16h58.05.044,jersey_experiment_5_v0,2023.2.2,Win32,84.74576271,,,,,,,,,,,,,,,,801.7538,802.8007,802.8007,803.5183,return,0.1506,,83.33333333,,,,,,FBP-RB-91.png,0.43,1.2,44,0.25,,,,,,,,,,,,,,,,,,0,9,9,43,1,,,,,,,,,,,,,,,,,,,,,,,
,,,,,SRP24_034,20,Male,2024-04-10_16h58.05.044,jersey_experiment_5_v0,2023.2.2,Win32,84.74576271,,,,,,,,,,,,,,,,803.5186,804.8128,804.8128,805.6244,return,0.1212,,85.9375,,,,,,FBP-YG-71.png,0.45,1.2,20,0.5,,,,,,,,,,,,,,,,,,0,10,10,19,1,,,,,,,,,,,,,,,,,,,,,,,
,,,,,SRP24_034,20,Male,2024-04-10_16h58.05.044,jersey_experiment_5_v0,2023.2.2,Win32,84.74576271,,,,,,,,,,,,,,,,805.6246,806.6714,806.6715,807.3892,return,0.132,,85.9375,,,,,,FBP-OG-18.png,0.4,1.2,8,0.25,,,,,,,,,,,,,,,,,,0,11,11,7,1,,,,,,,,,,,,,,,,,,,,,,,
,,,,,SRP24_034,20,Male,2024-04-10_16h58.05.044,jersey_experiment_5_v0,2023.2.2,Win32,84.74576271,,,,,,,,,,,,,,,,807.3894,808.6831,808.6832,810.9893,return,1.459,,90.234375,,,,,,FBP-PT-81.png,0.45,1.2,55,0.5,,,,,,,,,,,,,,,,,,0,12,12,54,1,,,,,,,,,,,,,,,,,,,,,,,
,,,,,SRP24_034,20,Male,2024-04-10_16h58.05.044,jersey_experiment_5_v0,2023.2.2,Win32,84.74576271,,,,,,,,,,,,,,,,810.9895,812.2835,812.2835,812.7892,return,0.1604,,90.234375,,,,,,FBP-PT-71.png,0.43,1.2,49,0.5,,,,,,,,,,,,,,,,,,0,13,13,48,1,,,,,,,,,,,,,,,,,,,,,,,
,,,,,SRP24_034,20,Male,2024-04-10_16h58.05.044,jersey_experiment_5_v0,2023.2.2,Win32,84.74576271,,,,,,,,,,,,,,,,812.7894,813.8364,813.8365,815.2718,return,0.1696,,93.09895833,,,,,,FBP-RB-71.png,0.45,1.2,35,0.25,,,,,,,,,,,,,,,,,,0,14,14,34,1,,,,,,,,,,,,,,,,,,,,,,,
,,,,,SRP24_034,20,Male,2024-04-10_16h58.05.044,jersey_experiment_5_v0,2023.2.2,Win32,84.74576271,,,,,,,,,,,,,,,,815.272,816.3188,816.3189,819.7072,return,0.1911,,76.43229167,,,,,,FBP-RB-81.png,0.37,1.2,37,0.25,,,,,,,,,,,,,,,,,,0,15,15,36,1,,,,,,,,,,,,,,,,,,,,,,,
,,,,,SRP24_034,20,Male,2024-04-10_16h58.05.044,jersey_experiment_5_v0,2023.2.2,Win32,84.74576271,,,,,,,,,,,,,,,,819.7074,821.0013,821.0013,822.0486,return,0.119,,82.421875,,,,,,FBP-YG-71.png,0.43,1.2,19,0.5,,,,,,,,,,,,,,,,,,0,16,16,18,1,,,,,,,,,,,,,,,,,,,,,,,
,,,,,SRP24_034,20,Male,2024-04-10_16h58.05.044,jersey_experiment_5_v0,2023.2.2,Win32,84.74576271,,,,,,,,,,,,,,,,822.0488,823.0956,823.0956,823.7426,return,0.1425,,82.421875,,,,,,FBP-OG-17.png,0.4,1.2,3,0.25,,,,,,,,,,,,,,,,,,0,17,17,2,1,,,,,,,,,,,,,,,,,,,,,,,
,,,,,SRP24_034,20,Male,2024-04-10_16h58.05.044,jersey_experiment_5_v0,2023.2.2,Win32,84.74576271,,,,,,,,,,,,,,,,823.7428,825.0369,825.0369,828.3898,return,0.4414,,74.47916667,,,,,,FBP-YG-91.png,0.37,1.2,27,0.5,,,,,,,,,,,,,,,,,,0,18,18,26,1,,,,,,,,,,,,,,,,,,,,,,,
,,,,,SRP24_034,20,Male,2024-04-10_16h58.05.044,jersey_experiment_5_v0,2023.2.2,Win32,84.74576271,,,,,,,,,,,,,,,,828.39,829.6841,829.6841,830.4724,return,0.0881,,85.02604167,,,,,,FBP-YG-91.png,0.4,1.2,28,0.5,,,,,,,,,,,,,,,,,,0,19,19,27,1,,,,,,,,,,,,,,,,,,,,,,,
,,,,,SRP24_034,20,Male,2024-04-10_16h58.05.044,jersey_experiment_5_v0,2023.2.2,Win32,84.74576271,,,,,,,,,,,,,,,,830.4726,831.7664,831.7664,832.8369,return,0.3619,,79.81770833,,,,,,FBP-PT-81.png,0.4,1.2,53,0.5,,,,,,,,,,,,,,,,,,0,20,20,52,1,,,,,,,,,,,,,,,,,,,,,,,
,,,,,SRP24_034,20,Male,2024-04-10_16h58.05.044,jersey_experiment_5_v0,2023.2.2,Win32,84.74576271,,,,,,,,,,,,,,,,832.8371,834.1311,834.1312,836.5078,return,1.6357,,86.84895833,,,,,,FBP-PT-91.png,0.43,1.2,59,0.5,,,,,,,,,,,,,,,,,,0,21,21,58,1,,,,,,,,,,,,,,,,,,,,,,,
,,,,,SRP24_034,20,Male,2024-04-10_16h58.05.044,jersey_experiment_5_v0,2023.2.2,Win32,84.74576271,,,,,,,,,,,,,,,,836.508,837.555,837.555,842.7316,return,0.2022,,86.328125,,,,,,FBP-OG-19.png,0.4,1.2,13,0.25,,,,,,,,,,,,,,,,,,0,22,22,12,1,,,,,,,,,,,,,,,,,,,,,,,
,,,,,SRP24_034,20,Male,2024-04-10_16h58.05.044,jersey_experiment_5_v0,2023.2.2,Win32,84.74576271,,,,,,,,,,,,,,,,842.7318,843.7785,843.7787,845.0847,return,0.1875,,86.328125,,,,,,FBP-RB-81.png,0.4,1.2,38,0.25,,,,,,,,,,,,,,,,,,0,23,23,37,1,,,,,,,,,,,,,,,,,,,,,,,
,,,,,SRP24_034,20,Male,2024-04-10_16h58.05.044,jersey_experiment_5_v0,2023.2.2,Win32,84.74576271,,,,,,,,,,,,,,,,845.0849,846.1316,846.1317,847.1787,return,0.1327,,89.19270833,,,,,,FBP-RB-81.png,0.45,1.2,40,0.25,,,,,,,,,,,,,,,,,,0,24,24,39,1,,,,,,,,,,,,,,,,,,,,,,,
,,,,,SRP24_034,20,Male,2024-04-10_16h58.05.044,jersey_experiment_5_v0,2023.2.2,Win32,84.74576271,,,,,,,,,,,,,,,,847.1789,848.473,848.473,849.6259,return,0.2143,,84.765625,,,,,,FBP-PT-91.png,0.4,1.2,58,0.5,,,,,,,,,,,,,,,,,,0,25,25,57,1,,,,,,,,,,,,,,,,,,,,,,,
,,,,,SRP24_034,20,Male,2024-04-10_16h58.05.044,jersey_experiment_5_v0,2023.2.2,Win32,84.74576271,,,,,,,,,,,,,,,,849.6262,850.9202,850.9202,851.8612,return,0.1481,,85.02604167,,,,,,FBP-PT-71.png,0.4,1.2,48,0.5,,,,,,,,,,,,,,,,,,0,26,26,47,1,,,,,,,,,,,,,,,,,,,,,,,
,,,,,SRP24_034,20,Male,2024-04-10_16h58.05.044,jersey_experiment_5_v0,2023.2.2,Win32,84.74576271,,,,,,,,,,,,,,,,851.8615,852.9083,852.9083,854.1908,return,0.4608,,80.33854167,,,,,,FBP-OG-18.png,0.35,1.2,6,0.25,,,,,,,,,,,,,,,,,,0,27,27,5,1,,,,,,,,,,,,,,,,,,,,,,,
,,,,,SRP24_034,20,Male,2024-04-10_16h58.05.044,jersey_experiment_5_v0,2023.2.2,Win32,84.74576271,,,,,,,,,,,,,,,,854.191,855.4849,855.4849,856.9557,return,0.4831,,81.11979167,,,,,,FBP-PT-81.png,0.43,1.2,54,0.5,,,,,,,,,,,,,,,,,,0,28,28,53,1,,,,,,,,,,,,,,,,,,,,,,,
,,,,,SRP24_034,20,Male,2024-04-10_16h58.05.044,jersey_experiment_5_v0,2023.2.2,Win32,84.74576271,,,,,,,,,,,,,,,,856.9559,858.2497,858.2497,859.8027,return,0.709,,79.16666667,,,,,,FBP-YG-71.png,0.35,1.2,16,0.5,,,,,,,,,,,,,,,,,,0,29,29,15,1,,,,,,,,,,,,,,,,,,,,,,,
,,,,,SRP24_034,20,Male,2024-04-10_16h58.05.044,jersey_experiment_5_v0,2023.2.2,Win32,84.74576271,,,,,,,,,,,,,,,,859.803,860.85,860.85,861.7557,return,0.1905,,81.640625,,,,,,FBP-RB-91.png,0.4,1.2,43,0.25,,,,,,,,,,,,,,,,,,0,30,30,42,1,,,,,,,,,,,,,,,,,,,,,,,
,,,,,SRP24_034,20,Male,2024-04-10_16h58.05.044,jersey_experiment_5_v0,2023.2.2,Win32,84.74576271,,,,,,,,,,,,,,,,861.7559,862.8028,862.8029,863.8618,return,0.3023,,81.51041667,,,,,,FBP-RB-91.png,0.35,1.2,41,0.25,,,,,,,,,,,,,,,,,,0,31,31,40,1,,,,,,,,,,,,,,,,,,,,,,,
,,,,,SRP24_034,20,Male,2024-04-10_16h58.05.044,jersey_experiment_5_v0,2023.2.2,Win32,84.74576271,,,,,,,,,,,,,,,,863.8621,864.9088,864.9088,866.9559,return,0.1295,,72.00520833,,,,,,FBP-OG-17.png,0.35,1.2,1,0.25,,,,,,,,,,,,,,,,,,0,32,32,0,1,,,,,,,,,,,,,,,,,,,,,,,
,,,,,SRP24_034,20,Male,2024-04-10_16h58.05.044,jersey_experiment_5_v0,2023.2.2,Win32,84.74576271,,,,,,,,,,,,,,,,866.9561,868.0032,868.0032,869.0855,return,0.1649,,74.86979167,,,,,,FBP-OG-19.png,0.43,1.2,14,0.25,,,,,,,,,,,,,,,,,,0,33,33,13,1,,,,,,,,,,,,,,,,,,,,,,,
,,,,,SRP24_034,20,Male,2024-04-10_16h58.05.044,jersey_experiment_5_v0,2023.2.2,Win32,84.74576271,,,,,,,,,,,,,,,,869.0857,870.1326,870.1326,871.0031,return,0.1781,,77.21354167,,,,,,FBP-RB-71.png,0.35,1.2,31,0.25,,,,,,,,,,,,,,,,,,0,34,34,30,1,,,,,,,,,,,,,,,,,,,,,,,
,,,,,SRP24_034,20,Male,2024-04-10_16h58.05.044,jersey_experiment_5_v0,2023.2.2,Win32,84.74576271,,,,,,,,,,,,,,,,871.0033,872.0502,872.0502,874.2622,return,1.4653,,82.8125,,,,,,FBP-OG-17.png,0.45,1.2,5,0.25,,,,,,,,,,,,,,,,,,0,35,35,4,1,,,,,,,,,,,,,,,,,,,,,,,
,,,,,SRP24_034,20,Male,2024-04-10_16h58.05.044,jersey_experiment_5_v0,2023.2.2,Win32,84.74576271,,,,,,,,,,,,,,,,874.2624,875.5567,875.5567,877.3092,return,0.4113,,72.39583333,,,,,,FBP-YG-81.png,0.35,1.2,21,0.5,,,,,,,,,,,,,,,,,,0,36,36,20,1,,,,,,,,,,,,,,,,,,,,,,,
,,,,,SRP24_034,20,Male,2024-04-10_16h58.05.044,jersey_experiment_5_v0,2023.2.2,Win32,84.74576271,,,,,,,,,,,,,,,,877.3094,878.6035,878.6035,879.6152,return,0.1512,,82.29166667,,,,,,FBP-YG-81.png,0.45,1.2,25,0.5,,,,,,,,,,,,,,,,,,0,37,37,24,1,,,,,,,,,,,,,,,,,,,,,,,
,,,,,SRP24_034,20,Male,2024-04-10_16h58.05.044,jersey_experiment_5_v0,2023.2.2,Win32,84.74576271,,,,,,,,,,,,,,,,879.6154,880.9094,880.9094,881.9918,return,0.1812,,70.703125,,,,,,FBP-PT-81.png,0.37,1.2,52,0.5,,,,,,,,,,,,,,,,,,0,38,38,51,1,,,,,,,,,,,,,,,,,,,,,,,
,,,,,SRP24_034,20,Male,2024-04-10_16h58.05.044,jersey_experiment_5_v0,2023.2.2,Win32,84.74576271,,,,,,,,,,,,,,,,881.9921,883.286,883.2861,884.1919,return,0.2019,,86.97916667,,,,,,FBP-PT-91.png,0.45,1.2,60,0.5,,,,,,,,,,,,,,,,,,0,39,39,59,1,,,,,,,,,,,,,,,,,,,,,,,
,,,,,SRP24_034,20,Male,2024-04-10_16h58.05.044,jersey_experiment_5_v0,2023.2.2,Win32,84.74576271,,,,,,,,,,,,,,,,884.192,885.486,885.4861,886.4272,return,0.25,,71.875,,,,,,FBP-PT-91.png,0.35,1.2,56,0.5,,,,,,,,,,,,,,,,,,0,40,40,55,1,,,,,,,,,,,,,,,,,,,,,,,
,,,,,SRP24_034,20,Male,2024-04-10_16h58.05.044,jersey_experiment_5_v0,2023.2.2,Win32,84.74576271,,,,,,,,,,,,,,,,886.4274,887.7214,887.7215,888.5095,return,0.1413,,72.13541667,,,,,,FBP-YG-91.png,0.35,1.2,26,0.5,,,,,,,,,,,,,,,,,,0,41,41,25,1,,,,,,,,,,,,,,,,,,,,,,,
,,,,,SRP24_034,20,Male,2024-04-10_16h58.05.044,jersey_experiment_5_v0,2023.2.2,Win32,84.74576271,,,,,,,,,,,,,,,,888.5098,889.5567,889.5568,890.4862,return,0.1954,,70.3125,,,,,,FBP-OG-19.png,0.35,1.2,11,0.25,,,,,,,,,,,,,,,,,,0,42,42,10,1,,,,,,,,,,,,,,,,,,,,,,,
,,,,,SRP24_034,20,Male,2024-04-10_16h58.05.044,jersey_experiment_5_v0,2023.2.2,Win32,84.74576271,,,,,,,,,,,,,,,,890.4864,891.5333,891.5334,892.5922,return,0.1781,,82.16145833,,,,,,FBP-RB-81.png,0.43,1.2,39,0.25,,,,,,,,,,,,,,,,,,0,43,43,38,1,,,,,,,,,,,,,,,,,,,,,,,
,,,,,SRP24_034,20,Male,2024-04-10_16h58.05.044,jersey_experiment_5_v0,2023.2.2,Win32,84.74576271,,,,,,,,,,,,,,,,892.5925,893.8864,893.8864,894.5219,return,0.1204,,86.45833333,,,,,,FBP-YG-71.png,0.4,1.2,18,0.5,,,,,,,,,,,,,,,,,,0,44,44,17,1,,,,,,,,,,,,,,,,,,,,,,,
,,,,,SRP24_034,20,Male,2024-04-10_16h58.05.044,jersey_experiment_5_v0,2023.2.2,Win32,84.74576271,,,,,,,,,,,,,,,,894.5221,895.8159,895.8159,897.31,return,0.1887,,70.44270833,,,,,,FBP-PT-71.png,0.35,1.2,46,0.5,,,,,,,,,,,,,,,,,,0,45,45,45,1,,,,,,,,,,,,,,,,,,,,,,,
,,,,,SRP24_034,20,Male,2024-04-10_16h58.05.044,jersey_experiment_5_v0,2023.2.2,Win32,84.74576271,,,,,,,,,,,,,,,,897.3103,898.357,898.357,900.8866,return,1.6167,,80.46875,,,,,,FBP-OG-17.png,0.37,1.2,2,0.25,,,,,,,,,,,,,,,,,,0,46,46,1,1,,,,,,,,,,,,,,,,,,,,,,,
,,,,,SRP24_034,20,Male,2024-04-10_16h58.05.044,jersey_experiment_5_v0,2023.2.2,Win32,84.74576271,,,,,,,,,,,,,,,,900.8869,901.934,901.934,902.8632,return,0.1286,,69.921875,,,,,,FBP-OG-18.png,0.37,1.2,7,0.25,,,,,,,,,,,,,,,,,,0,47,47,6,1,,,,,,,,,,,,,,,,,,,,,,,
,,,,,SRP24_034,20,Male,2024-04-10_16h58.05.044,jersey_experiment_5_v0,2023.2.2,Win32,84.74576271,,,,,,,,,,,,,,,,902.8633,904.1574,904.1575,906.1103,return,1.4222,,83.07291667,,,,,,FBP-YG-91.png,0.45,1.2,30,0.5,,,,,,,,,,,,,,,,,,0,48,48,29,1,,,,,,,,,,,,,,,,,,,,,,,
,,,,,SRP24_034,20,Male,2024-04-10_16h58.05.044,jersey_experiment_5_v0,2023.2.2,Win32,84.74576271,,,,,,,,,,,,,,,,906.1105,907.1574,907.1575,911.4988,return,0.3662,,86.328125,,,,,,FBP-OG-18.png,0.43,1.2,9,0.25,,,,,,,,,,,,,,,,,,0,49,49,8,1,,,,,,,,,,,,,,,,,,,,,,,
,,,,,SRP24_034,20,Male,2024-04-10_16h58.05.044,jersey_experiment_5_v0,2023.2.2,Win32,84.74576271,,,,,,,,,,,,,,,,911.499,912.7929,912.7929,913.5459,return,0.1448,,86.328125,,,,,,FBP-YG-81.png,0.43,1.2,24,0.5,,,,,,,,,,,,,,,,,,0,50,50,23,1,,,,,,,,,,,,,,,,,,,,,,,
,,,,,SRP24_034,20,Male,2024-04-10_16h58.05.044,jersey_experiment_5_v0,2023.2.2,Win32,84.74576271,,,,,,,,,,,,,,,,913.5461,914.8399,914.84,916.087,return,0.1946,,83.33333333,,,,,,FBP-PT-71.png,0.45,1.2,50,0.5,,,,,,,,,,,,,,,,,,0,51,51,49,1,,,,,,,,,,,,,,,,,,,,,,,
,,,,,SRP24_034,20,Male,2024-04-10_16h58.05.044,jersey_experiment_5_v0,2023.2.2,Win32,84.74576271,,,,,,,,,,,,,,,,916.0873,917.3813,917.3814,918.3812,return,0.1319,,91.92708333,,,,,,FBP-YG-81.png,0.4,1.2,23,0.5,,,,,,,,,,,,,,,,,,0,52,52,22,1,,,,,,,,,,,,,,,,,,,,,,,
,,,,,SRP24_034,20,Male,2024-04-10_16h58.05.044,jersey_experiment_5_v0,2023.2.2,Win32,84.74576271,,,,,,,,,,,,,,,,918.3814,919.6755,919.6757,921.0048,return,0.2594,,83.85416667,,,,,,FBP-YG-71.png,0.37,1.2,17,0.5,,,,,,,,,,,,,,,,,,0,53,53,16,1,,,,,,,,,,,,,,,,,,,,,,,
,,,,,SRP24_034,20,Male,2024-04-10_16h58.05.044,jersey_experiment_5_v0,2023.2.2,Win32,84.74576271,,,,,,,,,,,,,,,,921.0051,922.0521,922.0521,923.3698,return,0.392,,85.9375,,,,,,FBP-RB-91.png,0.37,1.2,42,0.25,,,,,,,,,,,,,,,,,,0,54,54,41,1,,,,,,,,,,,,,,,,,,,,,,,
,,,,,SRP24_034,20,Male,2024-04-10_16h58.05.044,jersey_experiment_5_v0,2023.2.2,Win32,84.74576271,,,,,,,,,,,,,,,,923.37,924.4168,924.4169,925.6874,return,0.1708,,88.93229167,,,,,,FBP-RB-91.png,0.45,1.2,45,0.25,,,,,,,,,,,,,,,,,,0,55,55,44,1,,,,,,,,,,,,,,,,,,,,,,,
,,,,,SRP24_034,20,Male,2024-04-10_16h58.05.044,jersey_experiment_5_v0,2023.2.2,Win32,84.74576271,,,,,,,,,,,,,,,,925.6876,926.9816,926.9817,927.6875,return,0.0765,,79.94791667,,,,,,FBP-PT-71.png,0.37,1.2,47,0.5,,,,,,,,,,,,,,,,,,0,56,56,46,1,,,,,,,,,,,,,,,,,,,,,,,
,,,,,SRP24_034,20,Male,2024-04-10_16h58.05.044,jersey_experiment_5_v0,2023.2.2,Win32,84.74576271,,,,,,,,,,,,,,,,927.6877,928.7346,928.7346,930.9346,return,0.9719,,91.796875,,,,,,FBP-RB-71.png,0.43,1.2,34,0.25,,,,,,,,,,,,,,,,,,0,57,57,33,1,,,,,,,,,,,,,,,,,,,,,,,
,,,,,SRP24_034,20,Male,2024-04-10_16h58.05.044,jersey_experiment_5_v0,2023.2.2,Win32,84.74576271,,,,,,,,,,,,,,,,930.9349,931.9818,931.9818,934.0406,return,0.1791,,88.54166667,,,,,,FBP-OG-19.png,0.45,1.2,15,0.25,,,,,,,,,,,,,,,,,,0,58,58,14,1,,,,,,,,,,,,,,,,,,,,,,,
,,,,,SRP24_034,20,Male,2024-04-10_16h58.05.044,jersey_experiment_5_v0,2023.2.2,Win32,84.74576271,,,,,,,,,,,,,,,,934.0408,935.0877,935.0878,936.2878,return,0.141,,87.890625,,,,,,FBP-OG-17.png,0.43,1.2,4,0.25,,,,,,,,,,,,,,,,,,0,59,59,3,1,,,,,,,,,,,,,,,,,,,,,,,
,,,,,SRP24_034,20,Male,2024-04-10_16h58.05.044,jersey_experiment_5_v0,2023.2.2,Win32,84.74576271,,,,,,,,,,,,,,,,,,,,,,,,,,,,,,,,,,,,,,,,,,,,,,,,,,,,,,,,936.2882,943.4886,return,7.1894,,,,,,,,,,,,,,,,,,,
,,,,,SRP24_034,20,Male,2024-04-10_16h58.05.044,jersey_experiment_5_v0,2023.2.2,Win32,84.74576271,,,,,,,,,,,,,,,,,,,,,,,,,,,,,,,,,,,,,,,,,,,,,,,,,,,,,,,,,,,,,943.4887,946.2885,1,2.0715,return,0.7043,,,,,,,,,,,,
,,,,,SRP24_034,20,Male,2024-04-10_16h58.05.044,jersey_experiment_5_v0,2023.2.2,Win32,84.74576271,,,,,,,,,,,,,,,,,,,,,,,,,,,,,,,,,,,,,,,,,,,,,,,,,,,,,,,,,,,,,,,,,,,,946.2886,1032.4376,"I think it's about color and size perception because the models looked mainly the same, but with different color palettes depending on the player's skin tone. The sizes also looked a bit different when you looked at it closer to the screen as opposed to sitting upright and at a distance.",right,78.8391,,,,,,
,,,,,SRP24_034,20,Male,2024-04-10_16h58.05.044,jersey_experiment_5_v0,2023.2.2,Win32,84.74576271,,,,,,,,,,,,,,,,,,,,,,,,,,,,,,,,,,,,,,,,,,,,,,,,,,,,,,,,,,,,,,,,,,,,,,,,,,1032.4377,1036.1384,return,3.6908,