requirements.started,requirements.stopped,key_resp_3.keys,key_resp_3.rt,key_resp_3.duration,Subject ID,Age,Gender,date,expName,psychopyVersion,OS,frameRate,instructions1.started,instructions1.stopped,key_resp.keys,key_resp.rt,key_resp.duration,example.started,example.stopped,enter_2.keys,enter_2.rt,enter_2.duration,instructions2.started,instructions2.stopped,enter_3.keys,enter_3.rt,enter_3.duration,image.started,image.stopped,slider_2.started,slider_2.stopped,next.keys,next.rt,next.duration,slider.response,trial_block_1.thisRepN,trial_block_1.thisTrialN,trial_block_1.thisN,trial_block_1.thisIndex,trial_block_1.ran,Path,Width,Height,Index,Duration,trial_block_2.thisRepN,trial_block_2.thisTrialN,trial_block_2.thisN,trial_block_2.thisIndex,trial_block_2.ran,rest_break.started,rest_break.stopped,end_break.started,end_break.stopped,key_resp_5.keys,key_resp_5.rt,key_resp_5.duration,trial_block_3.thisRepN,trial_block_3.thisTrialN,trial_block_3.thisN,trial_block_3.thisIndex,trial_block_3.ran,trial_block_4.thisRepN,trial_block_4.thisTrialN,trial_block_4.thisN,trial_block_4.thisIndex,trial_block_4.ran,questions_intro.started,questions_intro.stopped,enter_12.keys,enter_12.rt,enter_12.duration,question2.started,question2.stopped,question_doingbest.response,question_doingbest.rt,enter_15.keys,enter_15.rt,enter_15.duration,pattern.started,pattern.stopped,pattern_2.text,enter_17.keys,enter_17.rt,enter_17.duration,thankyou.started,thankyou.stopped,enter_14.keys,enter_14.rt,enter_14.duration
0,8.7947,return,8.7887,,V2_014,20,Male,2024-03-04_10h05.09.286,jersey_experiment_5_v2,2023.2.2,Win32,85.47008547,,,,,,,,,,,,,,,,,,,,,,,,,,,,,,,,,,,,,,,,,,,,,,,,,,,,,,,,,,,,,,,,,,,,,,,,,,,,,,
,,,,,V2_014,20,Male,2024-03-04_10h05.09.286,jersey_experiment_5_v2,2023.2.2,Win32,85.47008547,8.7948,12.9243,return,4.1076,,,,,,,,,,,,,,,,,,,,,,,,,,,,,,,,,,,,,,,,,,,,,,,,,,,,,,,,,,,,,,,,,,,,,,,,,,
,,,,,V2_014,20,Male,2024-03-04_10h05.09.286,jersey_experiment_5_v2,2023.2.2,Win32,85.47008547,,,,,,12.9243,17.5008,return,4.5346,,,,,,,,,,,,,,,,,,,,,,,,,,,,,,,,,,,,,,,,,,,,,,,,,,,,,,,,,,,,,,,,,,,,,
,,,,,V2_014,20,Male,2024-03-04_10h05.09.286,jersey_experiment_5_v2,2023.2.2,Win32,85.47008547,,,,,,,,,,,17.501,29.4191,return,11.8974,,,,,,,,,,,,,,,,,,,,,,,,,,,,,,,,,,,,,,,,,,,,,,,,,,,,,,,,,,,,,,,,
,,,,,V2_014,20,Male,2024-03-04_10h05.09.286,jersey_experiment_5_v2,2023.2.2,Win32,85.47008547,,,,,,,,,,,,,,,,29.4262,31.5247,31.5249,46.5254,return,1.3324,,50,0,0,0,42,1,FBP-RB-19.png,0.4,1.2,43,0.5,,,,,,,,,,,,,,,,,,,,,,,,,,,,,,,,,,,,,,,,,,,,,
,,,,,V2_014,20,Male,2024-03-04_10h05.09.286,jersey_experiment_5_v2,2023.2.2,Win32,85.47008547,,,,,,,,,,,,,,,,46.5257,48.6194,48.6194,51.7607,return,0.81,,75.26041667,0,1,1,18,1,FBP-OG-17.png,0.43,1.2,19,0.5,,,,,,,,,,,,,,,,,,,,,,,,,,,,,,,,,,,,,,,,,,,,,
,,,,,V2_014,20,Male,2024-03-04_10h05.09.286,jersey_experiment_5_v2,2023.2.2,Win32,85.47008547,,,,,,,,,,,,,,,,51.7609,53.855,53.855,56.2314,return,0.8875,,62.5,0,2,2,17,1,FBP-OG-17.png,0.4,1.2,18,0.5,,,,,,,,,,,,,,,,,,,,,,,,,,,,,,,,,,,,,,,,,,,,,
,,,,,V2_014,20,Male,2024-03-04_10h05.09.286,jersey_experiment_5_v2,2023.2.2,Win32,85.47008547,,,,,,,,,,,,,,,,56.2317,58.3255,58.3256,59.8786,return,0.6429,,62.5,0,3,3,47,1,FBP-YG-71.png,0.4,1.2,48,0.5,,,,,,,,,,,,,,,,,,,,,,,,,,,,,,,,,,,,,,,,,,,,,
,,,,,V2_014,20,Male,2024-03-04_10h05.09.286,jersey_experiment_5_v2,2023.2.2,Win32,85.47008547,,,,,,,,,,,,,,,,59.8788,61.973,61.973,66.1376,return,0.7665,,29.94791667,0,4,4,55,1,FBP-YG-91.png,0.35,1.2,56,0.5,,,,,,,,,,,,,,,,,,,,,,,,,,,,,,,,,,,,,,,,,,,,,
,,,,,V2_014,20,Male,2024-03-04_10h05.09.286,jersey_experiment_5_v2,2023.2.2,Win32,85.47008547,,,,,,,,,,,,,,,,66.1378,67.985,67.9851,70.4907,return,0.733,,75,0,5,5,8,1,FBP-PT-18.png,0.43,1.2,9,0.25,,,,,,,,,,,,,,,,,,,,,,,,,,,,,,,,,,,,,,,,,,,,,
,,,,,V2_014,20,Male,2024-03-04_10h05.09.286,jersey_experiment_5_v2,2023.2.2,Win32,85.47008547,,,,,,,,,,,,,,,,70.4909,72.5852,72.5852,74.3967,return,0.5991,,24.47916667,0,6,6,30,1,FBP-RB-17.png,0.35,1.2,31,0.5,,,,,,,,,,,,,,,,,,,,,,,,,,,,,,,,,,,,,,,,,,,,,
,,,,,V2_014,20,Male,2024-03-04_10h05.09.286,jersey_experiment_5_v2,2023.2.2,Win32,85.47008547,,,,,,,,,,,,,,,,74.397,76.4908,76.4908,79.2558,return,0.6769,,50.13020833,0,7,7,52,1,FBP-YG-81.png,0.4,1.2,53,0.5,,,,,,,,,,,,,,,,,,,,,,,,,,,,,,,,,,,,,,,,,,,,,
,,,,,V2_014,20,Male,2024-03-04_10h05.09.286,jersey_experiment_5_v2,2023.2.2,Win32,85.47008547,,,,,,,,,,,,,,,,79.256,81.1029,81.103,82.2794,return,0.5952,,74.73958333,0,8,8,13,1,FBP-PT-19.png,0.43,1.2,14,0.25,,,,,,,,,,,,,,,,,,,,,,,,,,,,,,,,,,,,,,,,,,,,,
,,,,,V2_014,20,Male,2024-03-04_10h05.09.286,jersey_experiment_5_v2,2023.2.2,Win32,85.47008547,,,,,,,,,,,,,,,,82.2796,84.1266,84.1266,87.2443,return,1.5179,,26.171875,0,9,9,7,1,FBP-PT-18.png,0.4,1.2,8,0.25,,,,,,,,,,,,,,,,,,,,,,,,,,,,,,,,,,,,,,,,,,,,,
,,,,,V2_014,20,Male,2024-03-04_10h05.09.286,jersey_experiment_5_v2,2023.2.2,Win32,85.47008547,,,,,,,,,,,,,,,,87.2445,89.3384,89.3384,91.4797,return,0.595,,49.73958333,0,10,10,36,1,FBP-RB-18.png,0.37,1.2,37,0.5,,,,,,,,,,,,,,,,,,,,,,,,,,,,,,,,,,,,,,,,,,,,,
,,,,,V2_014,20,Male,2024-03-04_10h05.09.286,jersey_experiment_5_v2,2023.2.2,Win32,85.47008547,,,,,,,,,,,,,,,,91.4798,93.574,93.574,95.2563,return,0.6295,,11.328125,0,11,11,25,1,FBP-OG-19.png,0.35,1.2,26,0.5,,,,,,,,,,,,,,,,,,,,,,,,,,,,,,,,,,,,,,,,,,,,,
,,,,,V2_014,20,Male,2024-03-04_10h05.09.286,jersey_experiment_5_v2,2023.2.2,Win32,85.47008547,,,,,,,,,,,,,,,,95.2566,97.3505,97.3505,99.1271,return,0.5481,,34.63541667,0,12,12,56,1,FBP-YG-91.png,0.37,1.2,57,0.5,,,,,,,,,,,,,,,,,,,,,,,,,,,,,,,,,,,,,,,,,,,,,
,,,,,V2_014,20,Male,2024-03-04_10h05.09.286,jersey_experiment_5_v2,2023.2.2,Win32,85.47008547,,,,,,,,,,,,,,,,99.1272,101.2331,101.2332,103.1743,return,0.7245,,98.17708333,0,13,13,39,1,FBP-RB-18.png,0.45,1.2,40,0.5,,,,,,,,,,,,,,,,,,,,,,,,,,,,,,,,,,,,,,,,,,,,,
,,,,,V2_014,20,Male,2024-03-04_10h05.09.286,jersey_experiment_5_v2,2023.2.2,Win32,85.47008547,,,,,,,,,,,,,,,,103.1744,105.0213,105.0214,106.7038,return,0.669,,76.82291667,0,14,14,4,1,FBP-PT-17.png,0.45,1.2,5,0.25,,,,,,,,,,,,,,,,,,,,,,,,,,,,,,,,,,,,,,,,,,,,,
,,,,,V2_014,20,Male,2024-03-04_10h05.09.286,jersey_experiment_5_v2,2023.2.2,Win32,85.47008547,,,,,,,,,,,,,,,,106.7039,108.7979,108.798,110.2568,return,0.6219,,33.46354167,0,15,15,27,1,FBP-OG-19.png,0.4,1.2,28,0.5,,,,,,,,,,,,,,,,,,,,,,,,,,,,,,,,,,,,,,,,,,,,,
,,,,,V2_014,20,Male,2024-03-04_10h05.09.286,jersey_experiment_5_v2,2023.2.2,Win32,85.47008547,,,,,,,,,,,,,,,,110.2569,112.3512,112.3512,113.9275,return,0.6419,,20.57291667,0,16,16,20,1,FBP-OG-18.png,0.35,1.2,21,0.5,,,,,,,,,,,,,,,,,,,,,,,,,,,,,,,,,,,,,,,,,,,,,
,,,,,V2_014,20,Male,2024-03-04_10h05.09.286,jersey_experiment_5_v2,2023.2.2,Win32,85.47008547,,,,,,,,,,,,,,,,113.9277,115.7746,115.7747,116.8923,return,0.5302,,20.57291667,0,17,17,5,1,FBP-PT-18.png,0.35,1.2,6,0.25,,,,,,,,,,,,,,,,,,,,,,,,,,,,,,,,,,,,,,,,,,,,,
,,,,,V2_014,20,Male,2024-03-04_10h05.09.286,jersey_experiment_5_v2,2023.2.2,Win32,85.47008547,,,,,,,,,,,,,,,,116.8925,118.9983,118.9983,121.0454,return,0.6559,,94.53125,0,18,18,54,1,FBP-YG-81.png,0.45,1.2,55,0.5,,,,,,,,,,,,,,,,,,,,,,,,,,,,,,,,,,,,,,,,,,,,,
,,,,,V2_014,20,Male,2024-03-04_10h05.09.286,jersey_experiment_5_v2,2023.2.2,Win32,85.47008547,,,,,,,,,,,,,,,,121.0456,123.1396,123.1397,124.1515,return,0.5362,,94.53125,0,19,19,48,1,FBP-YG-71.png,0.43,1.2,49,0.5,,,,,,,,,,,,,,,,,,,,,,,,,,,,,,,,,,,,,,,,,,,,,
,,,,,V2_014,20,Male,2024-03-04_10h05.09.286,jersey_experiment_5_v2,2023.2.2,Win32,85.47008547,,,,,,,,,,,,,,,,124.1516,126.2457,126.2457,128.6222,return,2.0846,,82.8125,0,20,20,29,1,FBP-OG-19.png,0.45,1.2,30,0.5,,,,,,,,,,,,,,,,,,,,,,,,,,,,,,,,,,,,,,,,,,,,,
,,,,,V2_014,20,Male,2024-03-04_10h05.09.286,jersey_experiment_5_v2,2023.2.2,Win32,85.47008547,,,,,,,,,,,,,,,,128.6224,130.7165,130.7165,132.6458,return,0.7733,,23.30729167,0,21,21,31,1,FBP-RB-17.png,0.37,1.2,32,0.5,,,,,,,,,,,,,,,,,,,,,,,,,,,,,,,,,,,,,,,,,,,,,
,,,,,V2_014,20,Male,2024-03-04_10h05.09.286,jersey_experiment_5_v2,2023.2.2,Win32,85.47008547,,,,,,,,,,,,,,,,132.646,134.493,134.4931,136.3283,return,0.698,,63.54166667,0,22,22,3,1,FBP-PT-17.png,0.43,1.2,4,0.25,,,,,,,,,,,,,,,,,,,,,,,,,,,,,,,,,,,,,,,,,,,,,
,,,,,V2_014,20,Male,2024-03-04_10h05.09.286,jersey_experiment_5_v2,2023.2.2,Win32,85.47008547,,,,,,,,,,,,,,,,136.3284,138.4343,138.4343,140.9873,return,1.2969,,12.63020833,0,23,23,40,1,FBP-RB-19.png,0.35,1.2,41,0.5,,,,,,,,,,,,,,,,,,,,,,,,,,,,,,,,,,,,,,,,,,,,,
,,,,,V2_014,20,Male,2024-03-04_10h05.09.286,jersey_experiment_5_v2,2023.2.2,Win32,85.47008547,,,,,,,,,,,,,,,,140.9875,142.8463,142.8463,144.3756,return,0.5711,,49.86979167,0,24,24,6,1,FBP-PT-18.png,0.37,1.2,7,0.25,,,,,,,,,,,,,,,,,,,,,,,,,,,,,,,,,,,,,,,,,,,,,
,,,,,V2_014,20,Male,2024-03-04_10h05.09.286,jersey_experiment_5_v2,2023.2.2,Win32,85.47008547,,,,,,,,,,,,,,,,144.3758,146.4699,146.4699,147.9993,return,0.5989,,25.13020833,0,25,25,21,1,FBP-OG-18.png,0.37,1.2,22,0.5,,,,,,,,,,,,,,,,,,,,,,,,,,,,,,,,,,,,,,,,,,,,,
,,,,,V2_014,20,Male,2024-03-04_10h05.09.286,jersey_experiment_5_v2,2023.2.2,Win32,85.47008547,,,,,,,,,,,,,,,,147.9994,150.0935,150.0935,151.9994,return,0.5985,,86.58854167,0,26,26,44,1,FBP-RB-19.png,0.45,1.2,45,0.5,,,,,,,,,,,,,,,,,,,,,,,,,,,,,,,,,,,,,,,,,,,,,
,,,,,V2_014,20,Male,2024-03-04_10h05.09.286,jersey_experiment_5_v2,2023.2.2,Win32,85.47008547,,,,,,,,,,,,,,,,151.9996,154.1054,154.1056,155.8936,return,0.7603,,50.78125,0,27,27,41,1,FBP-RB-19.png,0.37,1.2,42,0.5,,,,,,,,,,,,,,,,,,,,,,,,,,,,,,,,,,,,,,,,,,,,,
,,,,,V2_014,20,Male,2024-03-04_10h05.09.286,jersey_experiment_5_v2,2023.2.2,Win32,85.47008547,,,,,,,,,,,,,,,,155.8938,157.988,157.988,160.3645,return,1.5429,,47.13541667,0,28,28,45,1,FBP-YG-71.png,0.35,1.2,46,0.5,,,,,,,,,,,,,,,,,,,,,,,,,,,,,,,,,,,,,,,,,,,,,
,,,,,V2_014,20,Male,2024-03-04_10h05.09.286,jersey_experiment_5_v2,2023.2.2,Win32,85.47008547,,,,,,,,,,,,,,,,160.3647,162.4587,162.4587,168.0118,return,0.7201,,48.69791667,0,29,29,57,1,FBP-YG-91.png,0.4,1.2,58,0.5,,,,,,,,,,,,,,,,,,,,,,,,,,,,,,,,,,,,,,,,,,,,,
,,,,,V2_014,20,Male,2024-03-04_10h05.09.286,jersey_experiment_5_v2,2023.2.2,Win32,85.47008547,,,,,,,,,,,,,,,,168.012,170.1062,170.1062,171.6942,return,0.5047,,1.041666667,0,30,30,15,1,FBP-OG-17.png,0.35,1.2,16,0.5,,,,,,,,,,,,,,,,,,,,,,,,,,,,,,,,,,,,,,,,,,,,,
,,,,,V2_014,20,Male,2024-03-04_10h05.09.286,jersey_experiment_5_v2,2023.2.2,Win32,85.47008547,,,,,,,,,,,,,,,,171.6944,173.7885,173.7885,175.3062,return,0.2134,,23.046875,0,31,31,51,1,FBP-YG-81.png,0.37,1.2,52,0.5,,,,,,,,,,,,,,,,,,,,,,,,,,,,,,,,,,,,,,,,,,,,,
,,,,,V2_014,20,Male,2024-03-04_10h05.09.286,jersey_experiment_5_v2,2023.2.2,Win32,85.47008547,,,,,,,,,,,,,,,,175.3063,177.4004,177.4005,178.8003,return,0.2695,,84.11458333,0,32,32,53,1,FBP-YG-81.png,0.43,1.2,54,0.5,,,,,,,,,,,,,,,,,,,,,,,,,,,,,,,,,,,,,,,,,,,,,
,,,,,V2_014,20,Male,2024-03-04_10h05.09.286,jersey_experiment_5_v2,2023.2.2,Win32,85.47008547,,,,,,,,,,,,,,,,178.8006,180.8946,180.8946,182.3417,return,0.3262,,23.30729167,0,33,33,35,1,FBP-RB-18.png,0.35,1.2,36,0.5,,,,,,,,,,,,,,,,,,,,,,,,,,,,,,,,,,,,,,,,,,,,,
,,,,,V2_014,20,Male,2024-03-04_10h05.09.286,jersey_experiment_5_v2,2023.2.2,Win32,85.47008547,,,,,,,,,,,,,,,,182.3419,184.4359,184.436,184.9651,return,0.1829,,25.13020833,0,34,34,16,1,FBP-OG-17.png,0.37,1.2,17,0.5,,,,,,,,,,,,,,,,,,,,,,,,,,,,,,,,,,,,,,,,,,,,,
,,,,,V2_014,20,Male,2024-03-04_10h05.09.286,jersey_experiment_5_v2,2023.2.2,Win32,85.47008547,,,,,,,,,,,,,,,,184.9654,187.0595,187.0596,188.5419,return,0.165,,94.921875,0,35,35,49,1,FBP-YG-71.png,0.45,1.2,50,0.5,,,,,,,,,,,,,,,,,,,,,,,,,,,,,,,,,,,,,,,,,,,,,
,,,,,V2_014,20,Male,2024-03-04_10h05.09.286,jersey_experiment_5_v2,2023.2.2,Win32,85.47008547,,,,,,,,,,,,,,,,188.5421,190.6479,190.6479,192.7421,return,0.3964,,74.34895833,0,36,36,26,1,FBP-OG-19.png,0.37,1.2,27,0.5,,,,,,,,,,,,,,,,,,,,,,,,,,,,,,,,,,,,,,,,,,,,,
,,,,,V2_014,20,Male,2024-03-04_10h05.09.286,jersey_experiment_5_v2,2023.2.2,Win32,85.47008547,,,,,,,,,,,,,,,,192.7424,194.8363,194.8363,198.5894,return,0.4579,,75.78125,0,37,37,58,1,FBP-YG-91.png,0.43,1.2,59,0.5,,,,,,,,,,,,,,,,,,,,,,,,,,,,,,,,,,,,,,,,,,,,,
,,,,,V2_014,20,Male,2024-03-04_10h05.09.286,jersey_experiment_5_v2,2023.2.2,Win32,85.47008547,,,,,,,,,,,,,,,,198.5895,200.4366,200.4366,201.613,return,0.1549,,50.390625,0,38,38,12,1,FBP-PT-19.png,0.4,1.2,13,0.25,,,,,,,,,,,,,,,,,,,,,,,,,,,,,,,,,,,,,,,,,,,,,
,,,,,V2_014,20,Male,2024-03-04_10h05.09.286,jersey_experiment_5_v2,2023.2.2,Win32,85.47008547,,,,,,,,,,,,,,,,201.6132,203.7189,203.7189,204.8484,return,0.1282,,34.11458333,0,39,39,46,1,FBP-YG-71.png,0.37,1.2,47,0.5,,,,,,,,,,,,,,,,,,,,,,,,,,,,,,,,,,,,,,,,,,,,,
,,,,,V2_014,20,Male,2024-03-04_10h05.09.286,jersey_experiment_5_v2,2023.2.2,Win32,85.47008547,,,,,,,,,,,,,,,,204.8486,206.6958,206.6958,208.8604,return,0.1549,,74.609375,0,40,40,2,1,FBP-PT-17.png,0.4,1.2,3,0.25,,,,,,,,,,,,,,,,,,,,,,,,,,,,,,,,,,,,,,,,,,,,,
,,,,,V2_014,20,Male,2024-03-04_10h05.09.286,jersey_experiment_5_v2,2023.2.2,Win32,85.47008547,,,,,,,,,,,,,,,,208.8606,210.9546,210.9546,211.3663,return,0.1488,,74.47916667,0,41,41,23,1,FBP-OG-18.png,0.43,1.2,24,0.5,,,,,,,,,,,,,,,,,,,,,,,,,,,,,,,,,,,,,,,,,,,,,
,,,,,V2_014,20,Male,2024-03-04_10h05.09.286,jersey_experiment_5_v2,2023.2.2,Win32,85.47008547,,,,,,,,,,,,,,,,211.3664,213.4605,213.4605,214.2958,return,0.0995,,74.47916667,0,42,42,22,1,FBP-OG-18.png,0.4,1.2,23,0.5,,,,,,,,,,,,,,,,,,,,,,,,,,,,,,,,,,,,,,,,,,,,,
,,,,,V2_014,20,Male,2024-03-04_10h05.09.286,jersey_experiment_5_v2,2023.2.2,Win32,85.47008547,,,,,,,,,,,,,,,,214.296,216.1547,216.1547,216.9194,return,0.1247,,82.8125,0,43,43,9,1,FBP-PT-18.png,0.45,1.2,10,0.25,,,,,,,,,,,,,,,,,,,,,,,,,,,,,,,,,,,,,,,,,,,,,
,,,,,V2_014,20,Male,2024-03-04_10h05.09.286,jersey_experiment_5_v2,2023.2.2,Win32,85.47008547,,,,,,,,,,,,,,,,216.9196,218.7665,218.7665,221.249,return,0.3392,,23.30729167,0,44,44,10,1,FBP-PT-19.png,0.35,1.2,11,0.25,,,,,,,,,,,,,,,,,,,,,,,,,,,,,,,,,,,,,,,,,,,,,
,,,,,V2_014,20,Male,2024-03-04_10h05.09.286,jersey_experiment_5_v2,2023.2.2,Win32,85.47008547,,,,,,,,,,,,,,,,221.2491,223.3549,223.355,224.7903,return,0.114,,75.390625,0,45,45,43,1,FBP-RB-19.png,0.43,1.2,44,0.5,,,,,,,,,,,,,,,,,,,,,,,,,,,,,,,,,,,,,,,,,,,,,
,,,,,V2_014,20,Male,2024-03-04_10h05.09.286,jersey_experiment_5_v2,2023.2.2,Win32,85.47008547,,,,,,,,,,,,,,,,224.7905,226.8963,226.8963,227.7669,return,0.1953,,74.86979167,0,46,46,32,1,FBP-RB-17.png,0.4,1.2,33,0.5,,,,,,,,,,,,,,,,,,,,,,,,,,,,,,,,,,,,,,,,,,,,,
,,,,,V2_014,20,Male,2024-03-04_10h05.09.286,jersey_experiment_5_v2,2023.2.2,Win32,85.47008547,,,,,,,,,,,,,,,,227.767,229.614,229.614,231.1788,return,0.0742,,25.26041667,0,47,47,0,1,FBP-PT-17.png,0.35,1.2,1,0.25,,,,,,,,,,,,,,,,,,,,,,,,,,,,,,,,,,,,,,,,,,,,,
,,,,,V2_014,20,Male,2024-03-04_10h05.09.286,jersey_experiment_5_v2,2023.2.2,Win32,85.47008547,,,,,,,,,,,,,,,,231.1789,233.273,233.2731,234.0729,return,0.0758,,74.86979167,0,48,48,34,1,FBP-RB-17.png,0.45,1.2,35,0.5,,,,,,,,,,,,,,,,,,,,,,,,,,,,,,,,,,,,,,,,,,,,,
,,,,,V2_014,20,Male,2024-03-04_10h05.09.286,jersey_experiment_5_v2,2023.2.2,Win32,85.47008547,,,,,,,,,,,,,,,,234.0731,235.9202,235.9202,237.2612,return,0.132,,25.13020833,0,49,49,11,1,FBP-PT-19.png,0.37,1.2,12,0.25,,,,,,,,,,,,,,,,,,,,,,,,,,,,,,,,,,,,,,,,,,,,,
,,,,,V2_014,20,Male,2024-03-04_10h05.09.286,jersey_experiment_5_v2,2023.2.2,Win32,85.47008547,,,,,,,,,,,,,,,,237.2613,239.3557,239.3557,240.1908,return,0.1649,,73.828125,0,50,50,38,1,FBP-RB-18.png,0.43,1.2,39,0.5,,,,,,,,,,,,,,,,,,,,,,,,,,,,,,,,,,,,,,,,,,,,,
,,,,,V2_014,20,Male,2024-03-04_10h05.09.286,jersey_experiment_5_v2,2023.2.2,Win32,85.47008547,,,,,,,,,,,,,,,,240.191,242.285,242.285,245.5792,return,0.0733,,49.08854167,0,51,51,19,1,FBP-OG-17.png,0.45,1.2,20,0.5,,,,,,,,,,,,,,,,,,,,,,,,,,,,,,,,,,,,,,,,,,,,,
,,,,,V2_014,20,Male,2024-03-04_10h05.09.286,jersey_experiment_5_v2,2023.2.2,Win32,85.47008547,,,,,,,,,,,,,,,,245.5794,247.6853,247.6854,248.9559,return,0.1317,,23.56770833,0,52,52,50,1,FBP-YG-81.png,0.35,1.2,51,0.5,,,,,,,,,,,,,,,,,,,,,,,,,,,,,,,,,,,,,,,,,,,,,
,,,,,V2_014,20,Male,2024-03-04_10h05.09.286,jersey_experiment_5_v2,2023.2.2,Win32,85.47008547,,,,,,,,,,,,,,,,248.9561,251.0502,251.0502,252.1912,return,0.1648,,96.22395833,0,53,53,59,1,FBP-YG-91.png,0.45,1.2,60,0.5,,,,,,,,,,,,,,,,,,,,,,,,,,,,,,,,,,,,,,,,,,,,,
,,,,,V2_014,20,Male,2024-03-04_10h05.09.286,jersey_experiment_5_v2,2023.2.2,Win32,85.47008547,,,,,,,,,,,,,,,,252.1915,254.2973,254.2973,254.8619,return,0.0846,,90.49479167,0,54,54,33,1,FBP-RB-17.png,0.43,1.2,34,0.5,,,,,,,,,,,,,,,,,,,,,,,,,,,,,,,,,,,,,,,,,,,,,
,,,,,V2_014,20,Male,2024-03-04_10h05.09.286,jersey_experiment_5_v2,2023.2.2,Win32,85.47008547,,,,,,,,,,,,,,,,254.8621,256.9679,256.9679,257.4973,return,0.0637,,89.71354167,0,55,55,24,1,FBP-OG-18.png,0.45,1.2,25,0.5,,,,,,,,,,,,,,,,,,,,,,,,,,,,,,,,,,,,,,,,,,,,,
,,,,,V2_014,20,Male,2024-03-04_10h05.09.286,jersey_experiment_5_v2,2023.2.2,Win32,85.47008547,,,,,,,,,,,,,,,,257.4975,259.3444,259.3444,259.8386,return,0.1415,,89.71354167,0,56,56,14,1,FBP-PT-19.png,0.45,1.2,15,0.25,,,,,,,,,,,,,,,,,,,,,,,,,,,,,,,,,,,,,,,,,,,,,
,,,,,V2_014,20,Male,2024-03-04_10h05.09.286,jersey_experiment_5_v2,2023.2.2,Win32,85.47008547,,,,,,,,,,,,,,,,259.8388,261.9328,261.9328,263.0623,return,0.0416,,50.390625,0,57,57,37,1,FBP-RB-18.png,0.4,1.2,38,0.5,,,,,,,,,,,,,,,,,,,,,,,,,,,,,,,,,,,,,,,,,,,,,
,,,,,V2_014,20,Male,2024-03-04_10h05.09.286,jersey_experiment_5_v2,2023.2.2,Win32,85.47008547,,,,,,,,,,,,,,,,263.0624,264.9094,264.9095,265.7094,return,0.1544,,23.95833333,0,58,58,1,1,FBP-PT-17.png,0.37,1.2,2,0.25,,,,,,,,,,,,,,,,,,,,,,,,,,,,,,,,,,,,,,,,,,,,,
,,,,,V2_014,20,Male,2024-03-04_10h05.09.286,jersey_experiment_5_v2,2023.2.2,Win32,85.47008547,,,,,,,,,,,,,,,,265.7096,267.8037,267.8037,269.2625,return,0.1311,,69.01041667,0,59,59,28,1,FBP-OG-19.png,0.43,1.2,29,0.5,,,,,,,,,,,,,,,,,,,,,,,,,,,,,,,,,,,,,,,,,,,,,
,,,,,V2_014,20,Male,2024-03-04_10h05.09.286,jersey_experiment_5_v2,2023.2.2,Win32,85.47008547,,,,,,,,,,,,,,,,269.265,271.3569,271.357,272.3095,return,0.1367,,94.40104167,,,,,,FBP-OG-71.png,0.45,1.2,20,0.5,0,0,0,19,1,,,,,,,,,,,,,,,,,,,,,,,,,,,,,,,,,,,,,,,,
,,,,,V2_014,20,Male,2024-03-04_10h05.09.286,jersey_experiment_5_v2,2023.2.2,Win32,85.47008547,,,,,,,,,,,,,,,,272.3098,274.4158,274.4158,275.2743,return,0.1317,,73.95833333,,,,,,FBP-RB-81.png,0.4,1.2,38,0.5,0,1,1,37,1,,,,,,,,,,,,,,,,,,,,,,,,,,,,,,,,,,,,,,,,
,,,,,V2_014,20,Male,2024-03-04_10h05.09.286,jersey_experiment_5_v2,2023.2.2,Win32,85.47008547,,,,,,,,,,,,,,,,275.2746,277.3804,277.3804,280.9334,return,0.2085,,51.171875,,,,,,FBP-YG-19.png,0.43,1.2,59,0.5,0,2,2,58,1,,,,,,,,,,,,,,,,,,,,,,,,,,,,,,,,,,,,,,,,
,,,,,V2_014,20,Male,2024-03-04_10h05.09.286,jersey_experiment_5_v2,2023.2.2,Win32,85.47008547,,,,,,,,,,,,,,,,280.9336,283.0277,283.0277,283.4394,return,0.0941,,50.390625,,,,,,FBP-OG-81.png,0.4,1.2,23,0.5,0,3,3,22,1,,,,,,,,,,,,,,,,,,,,,,,,,,,,,,,,,,,,,,,,
,,,,,V2_014,20,Male,2024-03-04_10h05.09.286,jersey_experiment_5_v2,2023.2.2,Win32,85.47008547,,,,,,,,,,,,,,,,283.4397,285.5336,285.5336,286.3925,return,0.1213,,73.4375,,,,,,FBP-RB-71.png,0.45,1.2,35,0.5,0,4,4,34,1,,,,,,,,,,,,,,,,,,,,,,,,,,,,,,,,,,,,,,,,
,,,,,V2_014,20,Male,2024-03-04_10h05.09.286,jersey_experiment_5_v2,2023.2.2,Win32,85.47008547,,,,,,,,,,,,,,,,286.3927,288.2513,288.2514,289.6162,return,0.3531,,44.53125,,,,,,FBP-PT-81.png,0.37,1.2,7,0.25,0,5,5,6,1,,,,,,,,,,,,,,,,,,,,,,,,,,,,,,,,,,,,,,,,
,,,,,V2_014,20,Male,2024-03-04_10h05.09.286,jersey_experiment_5_v2,2023.2.2,Win32,85.47008547,,,,,,,,,,,,,,,,289.6164,291.7102,291.7102,292.134,return,0.0905,,44.53125,,,,,,FBP-YG-19.png,0.4,1.2,58,0.5,0,6,6,57,1,,,,,,,,,,,,,,,,,,,,,,,,,,,,,,,,,,,,,,,,
,,,,,V2_014,20,Male,2024-03-04_10h05.09.286,jersey_experiment_5_v2,2023.2.2,Win32,85.47008547,,,,,,,,,,,,,,,,292.1342,294.2281,294.2281,294.8399,return,0.0988,,44.53125,,,,,,FBP-OG-81.png,0.37,1.2,22,0.5,0,7,7,21,1,,,,,,,,,,,,,,,,,,,,,,,,,,,,,,,,,,,,,,,,
,,,,,V2_014,20,Male,2024-03-04_10h05.09.286,jersey_experiment_5_v2,2023.2.2,Win32,85.47008547,,,,,,,,,,,,,,,,294.8402,296.934,296.9341,297.687,return,0.16,,45.44270833,,,,,,FBP-RB-71.png,0.4,1.2,33,0.5,0,8,8,32,1,,,,,,,,,,,,,,,,,,,,,,,,,,,,,,,,,,,,,,,,
,,,,,V2_014,20,Male,2024-03-04_10h05.09.286,jersey_experiment_5_v2,2023.2.2,Win32,85.47008547,,,,,,,,,,,,,,,,297.6872,299.7812,299.7813,300.7342,return,0.0942,,32.29166667,,,,,,FBP-RB-71.png,0.35,1.2,31,0.5,0,9,9,30,1,,,,,,,,,,,,,,,,,,,,,,,,,,,,,,,,,,,,,,,,
,,,,,V2_014,20,Male,2024-03-04_10h05.09.286,jersey_experiment_5_v2,2023.2.2,Win32,85.47008547,,,,,,,,,,,,,,,,300.7343,302.8403,302.8403,303.3107,return,0.1556,,31.38020833,,,,,,FBP-RB-71.png,0.37,1.2,32,0.5,0,10,10,31,1,,,,,,,,,,,,,,,,,,,,,,,,,,,,,,,,,,,,,,,,
,,,,,V2_014,20,Male,2024-03-04_10h05.09.286,jersey_experiment_5_v2,2023.2.2,Win32,85.47008547,,,,,,,,,,,,,,,,303.311,305.4049,305.405,307.1344,return,0.7636,,49.47916667,,,,,,FBP-OG-81.png,0.43,1.2,24,0.5,0,11,11,23,1,,,,,,,,,,,,,,,,,,,,,,,,,,,,,,,,,,,,,,,,
,,,,,V2_014,20,Male,2024-03-04_10h05.09.286,jersey_experiment_5_v2,2023.2.2,Win32,85.47008547,,,,,,,,,,,,,,,,307.1347,309.2404,309.2404,309.6875,return,0.0656,,49.609375,,,,,,FBP-OG-91.png,0.37,1.2,27,0.5,0,12,12,26,1,,,,,,,,,,,,,,,,,,,,,,,,,,,,,,,,,,,,,,,,
,,,,,V2_014,20,Male,2024-03-04_10h05.09.286,jersey_experiment_5_v2,2023.2.2,Win32,85.47008547,,,,,,,,,,,,,,,,309.6876,311.7933,311.7933,312.6404,return,0.165,,49.609375,,,,,,FBP-YG-17.png,0.37,1.2,47,0.5,0,13,13,46,1,,,,,,,,,,,,,,,,,,,,,,,,,,,,,,,,,,,,,,,,
,,,,,V2_014,20,Male,2024-03-04_10h05.09.286,jersey_experiment_5_v2,2023.2.2,Win32,85.47008547,,,,,,,,,,,,,,,,312.6407,314.7347,314.7348,316.17,return,0.1557,,75.390625,,,,,,FBP-RB-91.png,0.43,1.2,44,0.5,0,14,14,43,1,,,,,,,,,,,,,,,,,,,,,,,,,,,,,,,,,,,,,,,,
,,,,,V2_014,20,Male,2024-03-04_10h05.09.286,jersey_experiment_5_v2,2023.2.2,Win32,85.47008547,,,,,,,,,,,,,,,,316.1701,318.0171,318.0171,318.4407,return,0.1348,,75.26041667,,,,,,FBP-PT-71.png,0.45,1.2,5,0.25,0,15,15,4,1,,,,,,,,,,,,,,,,,,,,,,,,,,,,,,,,,,,,,,,,
,,,,,V2_014,20,Male,2024-03-04_10h05.09.286,jersey_experiment_5_v2,2023.2.2,Win32,85.47008547,,,,,,,,,,,,,,,,318.4409,320.5349,320.535,321.0054,return,0.1543,,75,,,,,,FBP-OG-71.png,0.43,1.2,19,0.5,0,16,16,18,1,,,,,,,,,,,,,,,,,,,,,,,,,,,,,,,,,,,,,,,,
,,,,,V2_014,20,Male,2024-03-04_10h05.09.286,jersey_experiment_5_v2,2023.2.2,Win32,85.47008547,,,,,,,,,,,,,,,,321.0057,322.8526,322.8526,325.1349,return,0.353,,12.23958333,,,,,,FBP-PT-71.png,0.37,1.2,2,0.25,0,17,17,1,1,,,,,,,,,,,,,,,,,,,,,,,,,,,,,,,,,,,,,,,,
,,,,,V2_014,20,Male,2024-03-04_10h05.09.286,jersey_experiment_5_v2,2023.2.2,Win32,85.47008547,,,,,,,,,,,,,,,,325.1351,327.2292,327.2292,330.8058,return,1.1242,,60.02604167,,,,,,FBP-RB-91.png,0.45,1.2,45,0.5,0,18,18,44,1,,,,,,,,,,,,,,,,,,,,,,,,,,,,,,,,,,,,,,,,
,,,,,V2_014,20,Male,2024-03-04_10h05.09.286,jersey_experiment_5_v2,2023.2.2,Win32,85.47008547,,,,,,,,,,,,,,,,330.8061,332.9,332.9,333.9472,return,0.166,,74.73958333,,,,,,FBP-RB-91.png,0.4,1.2,43,0.5,0,19,19,42,1,,,,,,,,,,,,,,,,,,,,,,,,,,,,,,,,,,,,,,,,
,,,,,V2_014,20,Male,2024-03-04_10h05.09.286,jersey_experiment_5_v2,2023.2.2,Win32,85.47008547,,,,,,,,,,,,,,,,333.9474,336.053,336.0531,338.1237,return,0.1769,,90.234375,,,,,,FBP-RB-81.png,0.45,1.2,40,0.5,0,20,20,39,1,,,,,,,,,,,,,,,,,,,,,,,,,,,,,,,,,,,,,,,,
,,,,,V2_014,20,Male,2024-03-04_10h05.09.286,jersey_experiment_5_v2,2023.2.2,Win32,85.47008547,,,,,,,,,,,,,,,,338.1239,340.2298,340.2299,341.3238,return,0.2848,,60.546875,,,,,,FBP-OG-71.png,0.35,1.2,16,0.5,0,21,21,15,1,,,,,,,,,,,,,,,,,,,,,,,,,,,,,,,,,,,,,,,,
,,,,,V2_014,20,Male,2024-03-04_10h05.09.286,jersey_experiment_5_v2,2023.2.2,Win32,85.47008547,,,,,,,,,,,,,,,,341.324,343.4181,343.4181,344.7945,return,0.1436,,50.26041667,,,,,,FBP-RB-91.png,0.37,1.2,42,0.5,0,22,22,41,1,,,,,,,,,,,,,,,,,,,,,,,,,,,,,,,,,,,,,,,,
,,,,,V2_014,20,Male,2024-03-04_10h05.09.286,jersey_experiment_5_v2,2023.2.2,Win32,85.47008547,,,,,,,,,,,,,,,,344.7948,346.9005,346.9005,347.5476,return,0.2495,,50.390625,,,,,,FBP-RB-91.png,0.35,1.2,41,0.5,0,23,23,40,1,,,,,,,,,,,,,,,,,,,,,,,,,,,,,,,,,,,,,,,,
,,,,,V2_014,20,Male,2024-03-04_10h05.09.286,jersey_experiment_5_v2,2023.2.2,Win32,85.47008547,,,,,,,,,,,,,,,,347.5478,349.6534,349.6534,350.0887,return,0.1203,,50.390625,,,,,,FBP-OG-71.png,0.37,1.2,17,0.5,0,24,24,16,1,,,,,,,,,,,,,,,,,,,,,,,,,,,,,,,,,,,,,,,,
,,,,,V2_014,20,Male,2024-03-04_10h05.09.286,jersey_experiment_5_v2,2023.2.2,Win32,85.47008547,,,,,,,,,,,,,,,,350.089,352.183,352.183,353.1007,return,0.1413,,29.55729167,,,,,,FBP-YG-18.png,0.35,1.2,51,0.5,0,25,25,50,1,,,,,,,,,,,,,,,,,,,,,,,,,,,,,,,,,,,,,,,,
,,,,,V2_014,20,Male,2024-03-04_10h05.09.286,jersey_experiment_5_v2,2023.2.2,Win32,85.47008547,,,,,,,,,,,,,,,,353.1009,354.948,354.948,356.842,return,1.0041,,97.00520833,,,,,,FBP-PT-91.png,0.45,1.2,15,0.25,0,26,26,14,1,,,,,,,,,,,,,,,,,,,,,,,,,,,,,,,,,,,,,,,,
,,,,,V2_014,20,Male,2024-03-04_10h05.09.286,jersey_experiment_5_v2,2023.2.2,Win32,85.47008547,,,,,,,,,,,,,,,,356.8422,358.9363,358.9364,360.1715,return,0.0967,,19.79166667,,,,,,FBP-OG-81.png,0.35,1.2,21,0.5,0,27,27,20,1,,,,,,,,,,,,,,,,,,,,,,,,,,,,,,,,,,,,,,,,
,,,,,V2_014,20,Male,2024-03-04_10h05.09.286,jersey_experiment_5_v2,2023.2.2,Win32,85.47008547,,,,,,,,,,,,,,,,360.1717,362.2775,362.2776,363.1362,return,0.1285,,22.91666667,,,,,,FBP-YG-19.png,0.37,1.2,57,0.5,0,28,28,56,1,,,,,,,,,,,,,,,,,,,,,,,,,,,,,,,,,,,,,,,,
,,,,,V2_014,20,Male,2024-03-04_10h05.09.286,jersey_experiment_5_v2,2023.2.2,Win32,85.47008547,,,,,,,,,,,,,,,,363.1365,365.2306,365.2306,366.2661,return,0.1211,,1.5625,,,,,,FBP-YG-17.png,0.35,1.2,46,0.5,0,29,29,45,1,,,,,,,,,,,,,,,,,,,,,,,,,,,,,,,,,,,,,,,,
,,,,,V2_014,20,Male,2024-03-04_10h05.09.286,jersey_experiment_5_v2,2023.2.2,Win32,85.47008547,,,,,,,,,,,,,,,,366.2663,368.3601,368.3603,369.2896,return,0.1212,,92.31770833,,,,,,FBP-YG-19.png,0.45,1.2,60,0.5,0,30,30,59,1,,,,,,,,,,,,,,,,,,,,,,,,,,,,,,,,,,,,,,,,
,,,,,V2_014,20,Male,2024-03-04_10h05.09.286,jersey_experiment_5_v2,2023.2.2,Win32,85.47008547,,,,,,,,,,,,,,,,369.2898,371.3836,371.3836,371.6897,return,0.134,,91.40625,,,,,,FBP-YG-17.png,0.45,1.2,50,0.5,0,31,31,49,1,,,,,,,,,,,,,,,,,,,,,,,,,,,,,,,,,,,,,,,,
,,,,,V2_014,20,Male,2024-03-04_10h05.09.286,jersey_experiment_5_v2,2023.2.2,Win32,85.47008547,,,,,,,,,,,,,,,,371.6899,373.784,373.784,374.3605,return,0.0865,,49.86979167,,,,,,FBP-RB-81.png,0.37,1.2,37,0.5,0,32,32,36,1,,,,,,,,,,,,,,,,,,,,,,,,,,,,,,,,,,,,,,,,
,,,,,V2_014,20,Male,2024-03-04_10h05.09.286,jersey_experiment_5_v2,2023.2.2,Win32,85.47008547,,,,,,,,,,,,,,,,374.3606,376.4546,376.4546,377.1134,return,0.0518,,16.015625,,,,,,FBP-YG-19.png,0.35,1.2,56,0.5,0,33,33,55,1,,,,,,,,,,,,,,,,,,,,,,,,,,,,,,,,,,,,,,,,
,,,,,V2_014,20,Male,2024-03-04_10h05.09.286,jersey_experiment_5_v2,2023.2.2,Win32,85.47008547,,,,,,,,,,,,,,,,377.1135,379.2192,379.2193,379.9958,return,0.0469,,39.453125,,,,,,FBP-YG-17.png,0.43,1.2,49,0.5,0,34,34,48,1,,,,,,,,,,,,,,,,,,,,,,,,,,,,,,,,,,,,,,,,
,,,,,V2_014,20,Male,2024-03-04_10h05.09.286,jersey_experiment_5_v2,2023.2.2,Win32,85.47008547,,,,,,,,,,,,,,,,379.996,381.8549,381.855,382.7489,return,0.0245,,52.08333333,,,,,,FBP-PT-91.png,0.43,1.2,14,0.25,0,35,35,13,1,,,,,,,,,,,,,,,,,,,,,,,,,,,,,,,,,,,,,,,,
,,,,,V2_014,20,Male,2024-03-04_10h05.09.286,jersey_experiment_5_v2,2023.2.2,Win32,85.47008547,,,,,,,,,,,,,,,,382.7491,384.843,384.843,385.4548,return,0.2483,,51.69270833,,,,,,FBP-YG-18.png,0.4,1.2,53,0.5,0,36,36,52,1,,,,,,,,,,,,,,,,,,,,,,,,,,,,,,,,,,,,,,,,
,,,,,V2_014,20,Male,2024-03-04_10h05.09.286,jersey_experiment_5_v2,2023.2.2,Win32,85.47008547,,,,,,,,,,,,,,,,385.455,387.549,387.5491,388.5374,return,0.0499,,24.21875,,,,,,FBP-YG-18.png,0.37,1.2,52,0.5,0,37,37,51,1,,,,,,,,,,,,,,,,,,,,,,,,,,,,,,,,,,,,,,,,
,,,,,V2_014,20,Male,2024-03-04_10h05.09.286,jersey_experiment_5_v2,2023.2.2,Win32,85.47008547,,,,,,,,,,,,,,,,388.5376,390.6315,390.6315,391.9138,return,0.1798,,75.78125,,,,,,FBP-OG-91.png,0.43,1.2,29,0.5,0,38,38,28,1,,,,,,,,,,,,,,,,,,,,,,,,,,,,,,,,,,,,,,,,
,,,,,V2_014,20,Male,2024-03-04_10h05.09.286,jersey_experiment_5_v2,2023.2.2,Win32,85.47008547,,,,,,,,,,,,,,,,391.914,393.7728,393.7728,394.0786,return,0.0002,,75.78125,,,,,,FBP-PT-71.png,0.4,1.2,3,0.25,0,39,39,2,1,,,,,,,,,,,,,,,,,,,,,,,,,,,,,,,,,,,,,,,,
,,,,,V2_014,20,Male,2024-03-04_10h05.09.286,jersey_experiment_5_v2,2023.2.2,Win32,85.47008547,,,,,,,,,,,,,,,,394.0787,396.1847,396.1847,396.9492,return,0.0642,,75.78125,,,,,,FBP-OG-91.png,0.4,1.2,28,0.5,0,40,40,27,1,,,,,,,,,,,,,,,,,,,,,,,,,,,,,,,,,,,,,,,,
,,,,,V2_014,20,Male,2024-03-04_10h05.09.286,jersey_experiment_5_v2,2023.2.2,Win32,85.47008547,,,,,,,,,,,,,,,,396.9494,399.0435,399.0435,400.22,return,0.1432,,9.114583333,,,,,,FBP-OG-91.png,0.35,1.2,26,0.5,0,41,41,25,1,,,,,,,,,,,,,,,,,,,,,,,,,,,,,,,,,,,,,,,,
,,,,,V2_014,20,Male,2024-03-04_10h05.09.286,jersey_experiment_5_v2,2023.2.2,Win32,85.47008547,,,,,,,,,,,,,,,,400.2202,402.0789,402.0789,403.5025,return,0.0844,,24.86979167,,,,,,FBP-PT-91.png,0.4,1.2,13,0.25,0,42,42,12,1,,,,,,,,,,,,,,,,,,,,,,,,,,,,,,,,,,,,,,,,
,,,,,V2_014,20,Male,2024-03-04_10h05.09.286,jersey_experiment_5_v2,2023.2.2,Win32,85.47008547,,,,,,,,,,,,,,,,403.5027,405.6084,405.6085,406.9732,return,0.2126,,89.453125,,,,,,FBP-OG-91.png,0.45,1.2,30,0.5,0,43,43,29,1,,,,,,,,,,,,,,,,,,,,,,,,,,,,,,,,,,,,,,,,
,,,,,V2_014,20,Male,2024-03-04_10h05.09.286,jersey_experiment_5_v2,2023.2.2,Win32,85.47008547,,,,,,,,,,,,,,,,406.9734,409.0674,409.0674,409.9499,return,0.1654,,89.19270833,,,,,,FBP-YG-18.png,0.43,1.2,54,0.5,0,44,44,53,1,,,,,,,,,,,,,,,,,,,,,,,,,,,,,,,,,,,,,,,,
,,,,,V2_014,20,Male,2024-03-04_10h05.09.286,jersey_experiment_5_v2,2023.2.2,Win32,85.47008547,,,,,,,,,,,,,,,,409.95,411.8087,411.8088,412.9734,return,0.0476,,5.078125,,,,,,FBP-PT-91.png,0.37,1.2,12,0.25,0,45,45,11,1,,,,,,,,,,,,,,,,,,,,,,,,,,,,,,,,,,,,,,,,
,,,,,V2_014,20,Male,2024-03-04_10h05.09.286,jersey_experiment_5_v2,2023.2.2,Win32,85.47008547,,,,,,,,,,,,,,,,412.9736,415.0676,415.0677,416.1499,return,0.1358,,87.890625,,,,,,FBP-RB-81.png,0.43,1.2,39,0.5,0,46,46,38,1,,,,,,,,,,,,,,,,,,,,,,,,,,,,,,,,,,,,,,,,
,,,,,V2_014,20,Male,2024-03-04_10h05.09.286,jersey_experiment_5_v2,2023.2.2,Win32,85.47008547,,,,,,,,,,,,,,,,416.1502,418.2442,418.2442,419.5032,return,0.1176,,85.28645833,,,,,,FBP-OG-71.png,0.4,1.2,18,0.5,0,47,47,17,1,,,,,,,,,,,,,,,,,,,,,,,,,,,,,,,,,,,,,,,,
,,,,,V2_014,20,Male,2024-03-04_10h05.09.286,jersey_experiment_5_v2,2023.2.2,Win32,85.47008547,,,,,,,,,,,,,,,,419.5034,421.3502,421.3502,422.2207,return,0.5051,,81.38020833,,,,,,FBP-PT-81.png,0.43,1.2,9,0.25,0,48,48,8,1,,,,,,,,,,,,,,,,,,,,,,,,,,,,,,,,,,,,,,,,
,,,,,V2_014,20,Male,2024-03-04_10h05.09.286,jersey_experiment_5_v2,2023.2.2,Win32,85.47008547,,,,,,,,,,,,,,,,422.2209,424.0797,424.0797,424.9503,return,0.0076,,53.25520833,,,,,,FBP-PT-81.png,0.35,1.2,6,0.25,0,49,49,5,1,,,,,,,,,,,,,,,,,,,,,,,,,,,,,,,,,,,,,,,,
,,,,,V2_014,20,Male,2024-03-04_10h05.09.286,jersey_experiment_5_v2,2023.2.2,Win32,85.47008547,,,,,,,,,,,,,,,,424.9505,427.0445,427.0446,428.0799,return,0.4238,,25.65104167,,,,,,FBP-RB-81.png,0.35,1.2,36,0.5,0,50,50,35,1,,,,,,,,,,,,,,,,,,,,,,,,,,,,,,,,,,,,,,,,
,,,,,V2_014,20,Male,2024-03-04_10h05.09.286,jersey_experiment_5_v2,2023.2.2,Win32,85.47008547,,,,,,,,,,,,,,,,428.08,430.1741,430.1741,431.1623,return,0.4038,,73.046875,,,,,,FBP-RB-71.png,0.43,1.2,34,0.5,0,51,51,33,1,,,,,,,,,,,,,,,,,,,,,,,,,,,,,,,,,,,,,,,,
,,,,,V2_014,20,Male,2024-03-04_10h05.09.286,jersey_experiment_5_v2,2023.2.2,Win32,85.47008547,,,,,,,,,,,,,,,,431.1624,433.0096,433.0096,433.8801,return,0.0516,,0.390625,,,,,,FBP-PT-71.png,0.35,1.2,1,0.25,0,52,52,0,1,,,,,,,,,,,,,,,,,,,,,,,,,,,,,,,,,,,,,,,,
,,,,,V2_014,20,Male,2024-03-04_10h05.09.286,jersey_experiment_5_v2,2023.2.2,Win32,85.47008547,,,,,,,,,,,,,,,,433.8802,435.9861,435.9862,436.9743,return,0.0099,,89.71354167,,,,,,FBP-YG-18.png,0.45,1.2,55,0.5,0,53,53,54,1,,,,,,,,,,,,,,,,,,,,,,,,,,,,,,,,,,,,,,,,
,,,,,V2_014,20,Male,2024-03-04_10h05.09.286,jersey_experiment_5_v2,2023.2.2,Win32,85.47008547,,,,,,,,,,,,,,,,436.9744,439.0687,439.0687,439.7391,return,0.0479,,55.72916667,,,,,,FBP-YG-17.png,0.4,1.2,48,0.5,0,54,54,47,1,,,,,,,,,,,,,,,,,,,,,,,,,,,,,,,,,,,,,,,,
,,,,,V2_014,20,Male,2024-03-04_10h05.09.286,jersey_experiment_5_v2,2023.2.2,Win32,85.47008547,,,,,,,,,,,,,,,,439.7394,441.5863,441.5863,442.7156,return,0.3086,,77.734375,,,,,,FBP-PT-81.png,0.45,1.2,10,0.25,0,55,55,9,1,,,,,,,,,,,,,,,,,,,,,,,,,,,,,,,,,,,,,,,,
,,,,,V2_014,20,Male,2024-03-04_10h05.09.286,jersey_experiment_5_v2,2023.2.2,Win32,85.47008547,,,,,,,,,,,,,,,,442.7159,444.5628,444.5628,445.0687,return,0.0576,,76.04166667,,,,,,FBP-PT-81.png,0.4,1.2,8,0.25,0,56,56,7,1,,,,,,,,,,,,,,,,,,,,,,,,,,,,,,,,,,,,,,,,
,,,,,V2_014,20,Male,2024-03-04_10h05.09.286,jersey_experiment_5_v2,2023.2.2,Win32,85.47008547,,,,,,,,,,,,,,,,445.0688,447.1628,447.1629,447.6925,return,0.0839,,81.25,,,,,,FBP-OG-81.png,0.45,1.2,25,0.5,0,57,57,24,1,,,,,,,,,,,,,,,,,,,,,,,,,,,,,,,,,,,,,,,,
,,,,,V2_014,20,Male,2024-03-04_10h05.09.286,jersey_experiment_5_v2,2023.2.2,Win32,85.47008547,,,,,,,,,,,,,,,,447.6926,449.5395,449.5395,450.6808,return,0.1583,,56.25,,,,,,FBP-PT-91.png,0.35,1.2,11,0.25,0,58,58,10,1,,,,,,,,,,,,,,,,,,,,,,,,,,,,,,,,,,,,,,,,
,,,,,V2_014,20,Male,2024-03-04_10h05.09.286,jersey_experiment_5_v2,2023.2.2,Win32,85.47008547,,,,,,,,,,,,,,,,450.6809,452.5279,452.5279,453.0219,return,0.0474,,50.52083333,,,,,,FBP-PT-71.png,0.43,1.2,4,0.25,0,59,59,3,1,,,,,,,,,,,,,,,,,,,,,,,,,,,,,,,,,,,,,,,,
,,,,,V2_014,20,Male,2024-03-04_10h05.09.286,jersey_experiment_5_v2,2023.2.2,Win32,85.47008547,,,,,,,,,,,,,,,,,,,,,,,,,,,,,,,,,,,,,,,453.0222,573.0148,,,,,,,,,,,,,,,,,,,,,,,,,,,,,,,,,,,,,,
,,,,,V2_014,20,Male,2024-03-04_10h05.09.286,jersey_experiment_5_v2,2023.2.2,Win32,85.47008547,,,,,,,,,,,,,,,,,,,,,,,,,,,,,,,,,,,,,,,,,573.0149,581.8033,return,8.7786,,,,,,,,,,,,,,,,,,,,,,,,,,,,,,,,,,
,,,,,V2_014,20,Male,2024-03-04_10h05.09.286,jersey_experiment_5_v2,2023.2.2,Win32,85.47008547,,,,,,,,,,,,,,,,581.8095,583.6738,583.6739,585.4149,return,1.0074,,8.854166667,,,,,,FBP-OG-18.png,0.35,1.2,21,0.25,,,,,,,,,,,,,0,0,0,20,1,,,,,,,,,,,,,,,,,,,,,,,,,,,,
,,,,,V2_014,20,Male,2024-03-04_10h05.09.286,jersey_experiment_5_v2,2023.2.2,Win32,85.47008547,,,,,,,,,,,,,,,,585.4153,587.2738,587.2739,588.0385,return,0.0652,,83.46354167,,,,,,FBP-RB-19.png,0.43,1.2,44,0.25,,,,,,,,,,,,,0,1,1,43,1,,,,,,,,,,,,,,,,,,,,,,,,,,,,
,,,,,V2_014,20,Male,2024-03-04_10h05.09.286,jersey_experiment_5_v2,2023.2.2,Win32,85.47008547,,,,,,,,,,,,,,,,588.0387,589.8859,589.886,590.6033,return,0.0824,,14.0625,,,,,,FBP-RB-17.png,0.35,1.2,31,0.25,,,,,,,,,,,,,0,2,2,30,1,,,,,,,,,,,,,,,,,,,,,,,,,,,,
,,,,,V2_014,20,Male,2024-03-04_10h05.09.286,jersey_experiment_5_v2,2023.2.2,Win32,85.47008547,,,,,,,,,,,,,,,,590.6035,592.4506,592.4506,593.1445,return,0.063,,81.77083333,,,,,,FBP-OG-17.png,0.4,1.2,18,0.25,,,,,,,,,,,,,0,3,3,17,1,,,,,,,,,,,,,,,,,,,,,,,,,,,,
,,,,,V2_014,20,Male,2024-03-04_10h05.09.286,jersey_experiment_5_v2,2023.2.2,Win32,85.47008547,,,,,,,,,,,,,,,,593.1447,595.2388,595.2388,595.5917,return,0.0633,,81.77083333,,,,,,FBP-PT-17.png,0.43,1.2,4,0.5,,,,,,,,,,,,,0,4,4,3,1,,,,,,,,,,,,,,,,,,,,,,,,,,,,
,,,,,V2_014,20,Male,2024-03-04_10h05.09.286,jersey_experiment_5_v2,2023.2.2,Win32,85.47008547,,,,,,,,,,,,,,,,595.5919,597.439,597.439,597.9918,return,0.0164,,16.27604167,,,,,,FBP-RB-18.png,0.35,1.2,36,0.25,,,,,,,,,,,,,0,5,5,35,1,,,,,,,,,,,,,,,,,,,,,,,,,,,,
,,,,,V2_014,20,Male,2024-03-04_10h05.09.286,jersey_experiment_5_v2,2023.2.2,Win32,85.47008547,,,,,,,,,,,,,,,,597.9921,599.8392,599.8392,600.7685,return,0.4485,,76.43229167,,,,,,FBP-OG-18.png,0.45,1.2,25,0.25,,,,,,,,,,,,,0,6,6,24,1,,,,,,,,,,,,,,,,,,,,,,,,,,,,
,,,,,V2_014,20,Male,2024-03-04_10h05.09.286,jersey_experiment_5_v2,2023.2.2,Win32,85.47008547,,,,,,,,,,,,,,,,600.7687,602.8626,602.8626,603.9686,return,0.3764,,21.484375,,,,,,FBP-PT-17.png,0.37,1.2,2,0.5,,,,,,,,,,,,,0,7,7,1,1,,,,,,,,,,,,,,,,,,,,,,,,,,,,
,,,,,V2_014,20,Male,2024-03-04_10h05.09.286,jersey_experiment_5_v2,2023.2.2,Win32,85.47008547,,,,,,,,,,,,,,,,603.9688,606.0628,606.0629,606.3452,return,0.0284,,22.39583333,,,,,,FBP-PT-19.png,0.35,1.2,11,0.5,,,,,,,,,,,,,0,8,8,10,1,,,,,,,,,,,,,,,,,,,,,,,,,,,,
,,,,,V2_014,20,Male,2024-03-04_10h05.09.286,jersey_experiment_5_v2,2023.2.2,Win32,85.47008547,,,,,,,,,,,,,,,,606.3453,608.2039,608.204,608.4392,return,0.0875,,22.39583333,,,,,,FBP-RB-19.png,0.37,1.2,42,0.25,,,,,,,,,,,,,0,9,9,41,1,,,,,,,,,,,,,,,,,,,,,,,,,,,,
,,,,,V2_014,20,Male,2024-03-04_10h05.09.286,jersey_experiment_5_v2,2023.2.2,Win32,85.47008547,,,,,,,,,,,,,,,,608.4395,610.5453,610.5454,610.7923,return,0.0292,,22.39583333,,,,,,FBP-PT-18.png,0.35,1.2,6,0.5,,,,,,,,,,,,,0,10,10,5,1,,,,,,,,,,,,,,,,,,,,,,,,,,,,
,,,,,V2_014,20,Male,2024-03-04_10h05.09.286,jersey_experiment_5_v2,2023.2.2,Win32,85.47008547,,,,,,,,,,,,,,,,610.7925,612.6396,612.6396,613.1337,return,0.0598,,78.77604167,,,,,,FBP-RB-17.png,0.43,1.2,34,0.25,,,,,,,,,,,,,0,11,11,33,1,,,,,,,,,,,,,,,,,,,,,,,,,,,,
,,,,,V2_014,20,Male,2024-03-04_10h05.09.286,jersey_experiment_5_v2,2023.2.2,Win32,85.47008547,,,,,,,,,,,,,,,,613.1338,614.9806,614.9806,615.2866,return,0.0779,,77.86458333,,,,,,FBP-YG-91.png,0.43,1.2,59,0.25,,,,,,,,,,,,,0,12,12,58,1,,,,,,,,,,,,,,,,,,,,,,,,,,,,
,,,,,V2_014,20,Male,2024-03-04_10h05.09.286,jersey_experiment_5_v2,2023.2.2,Win32,85.47008547,,,,,,,,,,,,,,,,615.2868,617.1455,617.1456,617.8043,return,0.072,,77.86458333,,,,,,FBP-OG-19.png,0.4,1.2,28,0.25,,,,,,,,,,,,,0,13,13,27,1,,,,,,,,,,,,,,,,,,,,,,,,,,,,
,,,,,V2_014,20,Male,2024-03-04_10h05.09.286,jersey_experiment_5_v2,2023.2.2,Win32,85.47008547,,,,,,,,,,,,,,,,617.8045,619.6517,619.6518,620.7455,return,0.3341,,21.09375,,,,,,FBP-YG-71.png,0.35,1.2,46,0.25,,,,,,,,,,,,,0,14,14,45,1,,,,,,,,,,,,,,,,,,,,,,,,,,,,
,,,,,V2_014,20,Male,2024-03-04_10h05.09.286,jersey_experiment_5_v2,2023.2.2,Win32,85.47008547,,,,,,,,,,,,,,,,620.7457,622.8399,622.8399,624.0632,return,0.3165,,75.13020833,,,,,,FBP-PT-19.png,0.43,1.2,14,0.5,,,,,,,,,,,,,0,15,15,13,1,,,,,,,,,,,,,,,,,,,,,,,,,,,,
,,,,,V2_014,20,Male,2024-03-04_10h05.09.286,jersey_experiment_5_v2,2023.2.2,Win32,85.47008547,,,,,,,,,,,,,,,,624.0634,625.9107,625.9108,626.5694,return,0.04,,1.041666667,,,,,,FBP-YG-81.png,0.35,1.2,51,0.25,,,,,,,,,,,,,0,16,16,50,1,,,,,,,,,,,,,,,,,,,,,,,,,,,,
,,,,,V2_014,20,Male,2024-03-04_10h05.09.286,jersey_experiment_5_v2,2023.2.2,Win32,85.47008547,,,,,,,,,,,,,,,,626.5696,628.4166,628.4166,629.3225,return,0.0254,,72.265625,,,,,,FBP-YG-81.png,0.37,1.2,52,0.25,,,,,,,,,,,,,0,17,17,51,1,,,,,,,,,,,,,,,,,,,,,,,,,,,,
,,,,,V2_014,20,Male,2024-03-04_10h05.09.286,jersey_experiment_5_v2,2023.2.2,Win32,85.47008547,,,,,,,,,,,,,,,,629.3227,631.1695,631.1695,631.5814,return,0.0706,,72.265625,,,,,,FBP-RB-19.png,0.45,1.2,45,0.25,,,,,,,,,,,,,0,18,18,44,1,,,,,,,,,,,,,,,,,,,,,,,,,,,,
,,,,,V2_014,20,Male,2024-03-04_10h05.09.286,jersey_experiment_5_v2,2023.2.2,Win32,85.47008547,,,,,,,,,,,,,,,,631.5815,633.4404,633.4404,634.0401,return,0.0527,,19.140625,,,,,,FBP-OG-18.png,0.37,1.2,22,0.25,,,,,,,,,,,,,0,19,19,21,1,,,,,,,,,,,,,,,,,,,,,,,,,,,,
,,,,,V2_014,20,Male,2024-03-04_10h05.09.286,jersey_experiment_5_v2,2023.2.2,Win32,85.47008547,,,,,,,,,,,,,,,,634.0403,636.1344,636.1344,636.6992,return,0.0263,,76.82291667,,,,,,FBP-PT-18.png,0.43,1.2,9,0.5,,,,,,,,,,,,,0,20,20,8,1,,,,,,,,,,,,,,,,,,,,,,,,,,,,
,,,,,V2_014,20,Male,2024-03-04_10h05.09.286,jersey_experiment_5_v2,2023.2.2,Win32,85.47008547,,,,,,,,,,,,,,,,636.6994,638.8051,638.8051,639.0641,return,0.0512,,92.578125,,,,,,FBP-PT-18.png,0.45,1.2,10,0.5,,,,,,,,,,,,,0,21,21,9,1,,,,,,,,,,,,,,,,,,,,,,,,,,,,
,,,,,V2_014,20,Male,2024-03-04_10h05.09.286,jersey_experiment_5_v2,2023.2.2,Win32,85.47008547,,,,,,,,,,,,,,,,639.0642,641.1699,641.1699,641.6876,return,0.0534,,81.90104167,,,,,,FBP-PT-19.png,0.45,1.2,15,0.5,,,,,,,,,,,,,0,22,22,14,1,,,,,,,,,,,,,,,,,,,,,,,,,,,,
,,,,,V2_014,20,Male,2024-03-04_10h05.09.286,jersey_experiment_5_v2,2023.2.2,Win32,85.47008547,,,,,,,,,,,,,,,,641.6877,643.5348,643.5349,643.8406,return,0.0238,,74.86979167,,,,,,FBP-YG-81.png,0.43,1.2,54,0.25,,,,,,,,,,,,,0,23,23,53,1,,,,,,,,,,,,,,,,,,,,,,,,,,,,
,,,,,V2_014,20,Male,2024-03-04_10h05.09.286,jersey_experiment_5_v2,2023.2.2,Win32,85.47008547,,,,,,,,,,,,,,,,643.8408,645.9349,645.935,646.9113,return,0.0804,,52.86458333,,,,,,FBP-PT-19.png,0.4,1.2,13,0.5,,,,,,,,,,,,,0,24,24,12,1,,,,,,,,,,,,,,,,,,,,,,,,,,,,
,,,,,V2_014,20,Male,2024-03-04_10h05.09.286,jersey_experiment_5_v2,2023.2.2,Win32,85.47008547,,,,,,,,,,,,,,,,646.9115,649.0174,649.0174,649.5937,return,0.0512,,27.34375,,,,,,FBP-PT-18.png,0.37,1.2,7,0.5,,,,,,,,,,,,,0,25,25,6,1,,,,,,,,,,,,,,,,,,,,,,,,,,,,
,,,,,V2_014,20,Male,2024-03-04_10h05.09.286,jersey_experiment_5_v2,2023.2.2,Win32,85.47008547,,,,,,,,,,,,,,,,649.5939,651.4526,651.4526,652.6174,return,0.1912,,76.5625,,,,,,FBP-RB-17.png,0.45,1.2,35,0.25,,,,,,,,,,,,,0,26,26,34,1,,,,,,,,,,,,,,,,,,,,,,,,,,,,
,,,,,V2_014,20,Male,2024-03-04_10h05.09.286,jersey_experiment_5_v2,2023.2.2,Win32,85.47008547,,,,,,,,,,,,,,,,652.6176,654.4645,654.4645,655.1352,return,0.0945,,76.43229167,,,,,,FBP-YG-71.png,0.45,1.2,50,0.25,,,,,,,,,,,,,0,27,27,49,1,,,,,,,,,,,,,,,,,,,,,,,,,,,,
,,,,,V2_014,20,Male,2024-03-04_10h05.09.286,jersey_experiment_5_v2,2023.2.2,Win32,85.47008547,,,,,,,,,,,,,,,,655.1354,656.9823,656.9823,657.2881,return,0.053,,76.43229167,,,,,,FBP-RB-18.png,0.43,1.2,39,0.25,,,,,,,,,,,,,0,28,28,38,1,,,,,,,,,,,,,,,,,,,,,,,,,,,,
,,,,,V2_014,20,Male,2024-03-04_10h05.09.286,jersey_experiment_5_v2,2023.2.2,Win32,85.47008547,,,,,,,,,,,,,,,,657.2883,659.1471,659.1471,659.8058,return,0.0337,,9.375,,,,,,FBP-OG-19.png,0.35,1.2,26,0.25,,,,,,,,,,,,,0,29,29,25,1,,,,,,,,,,,,,,,,,,,,,,,,,,,,
,,,,,V2_014,20,Male,2024-03-04_10h05.09.286,jersey_experiment_5_v2,2023.2.2,Win32,85.47008547,,,,,,,,,,,,,,,,659.8061,661.9,661.9,662.2884,return,0.046,,9.375,,,,,,FBP-PT-17.png,0.35,1.2,1,0.5,,,,,,,,,,,,,0,30,30,0,1,,,,,,,,,,,,,,,,,,,,,,,,,,,,
,,,,,V2_014,20,Male,2024-03-04_10h05.09.286,jersey_experiment_5_v2,2023.2.2,Win32,85.47008547,,,,,,,,,,,,,,,,662.2886,664.3825,664.3826,664.959,return,0.188,,30.59895833,,,,,,FBP-PT-19.png,0.37,1.2,12,0.5,,,,,,,,,,,,,0,31,31,11,1,,,,,,,,,,,,,,,,,,,,,,,,,,,,
,,,,,V2_014,20,Male,2024-03-04_10h05.09.286,jersey_experiment_5_v2,2023.2.2,Win32,85.47008547,,,,,,,,,,,,,,,,664.9592,666.8178,666.8179,667.2414,return,0.0618,,42.44791667,,,,,,FBP-YG-91.png,0.4,1.2,58,0.25,,,,,,,,,,,,,0,32,32,57,1,,,,,,,,,,,,,,,,,,,,,,,,,,,,
,,,,,V2_014,20,Male,2024-03-04_10h05.09.286,jersey_experiment_5_v2,2023.2.2,Win32,85.47008547,,,,,,,,,,,,,,,,667.2416,669.0886,669.0886,669.5004,return,0.0251,,52.34375,,,,,,FBP-OG-19.png,0.45,1.2,30,0.25,,,,,,,,,,,,,0,33,33,29,1,,,,,,,,,,,,,,,,,,,,,,,,,,,,
,,,,,V2_014,20,Male,2024-03-04_10h05.09.286,jersey_experiment_5_v2,2023.2.2,Win32,85.47008547,,,,,,,,,,,,,,,,669.5006,671.3475,671.3476,672.3475,return,0.332,,75.26041667,,,,,,FBP-OG-18.png,0.43,1.2,24,0.25,,,,,,,,,,,,,0,34,34,23,1,,,,,,,,,,,,,,,,,,,,,,,,,,,,
,,,,,V2_014,20,Male,2024-03-04_10h05.09.286,jersey_experiment_5_v2,2023.2.2,Win32,85.47008547,,,,,,,,,,,,,,,,672.3476,674.1946,674.1946,675.5946,return,0.0034,,36.71875,,,,,,FBP-RB-18.png,0.37,1.2,37,0.25,,,,,,,,,,,,,0,35,35,36,1,,,,,,,,,,,,,,,,,,,,,,,,,,,,
,,,,,V2_014,20,Male,2024-03-04_10h05.09.286,jersey_experiment_5_v2,2023.2.2,Win32,85.47008547,,,,,,,,,,,,,,,,675.5948,677.442,677.442,677.877,return,0.0795,,49.21875,,,,,,FBP-RB-19.png,0.35,1.2,41,0.25,,,,,,,,,,,,,0,36,36,40,1,,,,,,,,,,,,,,,,,,,,,,,,,,,,
,,,,,V2_014,20,Male,2024-03-04_10h05.09.286,jersey_experiment_5_v2,2023.2.2,Win32,85.47008547,,,,,,,,,,,,,,,,677.8773,679.7242,679.7242,680.2185,return,0.18,,62.5,,,,,,FBP-YG-71.png,0.37,1.2,47,0.25,,,,,,,,,,,,,0,37,37,46,1,,,,,,,,,,,,,,,,,,,,,,,,,,,,
,,,,,V2_014,20,Male,2024-03-04_10h05.09.286,jersey_experiment_5_v2,2023.2.2,Win32,85.47008547,,,,,,,,,,,,,,,,680.2187,682.0655,682.0656,682.5244,return,0.0003,,69.27083333,,,,,,FBP-RB-18.png,0.4,1.2,38,0.25,,,,,,,,,,,,,0,38,38,37,1,,,,,,,,,,,,,,,,,,,,,,,,,,,,
,,,,,V2_014,20,Male,2024-03-04_10h05.09.286,jersey_experiment_5_v2,2023.2.2,Win32,85.47008547,,,,,,,,,,,,,,,,682.5246,684.3713,684.3714,685.1362,return,0.4947,,35.15625,,,,,,FBP-YG-91.png,0.35,1.2,56,0.25,,,,,,,,,,,,,0,39,39,55,1,,,,,,,,,,,,,,,,,,,,,,,,,,,,
,,,,,V2_014,20,Male,2024-03-04_10h05.09.286,jersey_experiment_5_v2,2023.2.2,Win32,85.47008547,,,,,,,,,,,,,,,,685.1363,686.9835,686.9835,687.8539,return,0.0573,,94.79166667,,,,,,FBP-YG-91.png,0.45,1.2,60,0.25,,,,,,,,,,,,,0,40,40,59,1,,,,,,,,,,,,,,,,,,,,,,,,,,,,
,,,,,V2_014,20,Male,2024-03-04_10h05.09.286,jersey_experiment_5_v2,2023.2.2,Win32,85.47008547,,,,,,,,,,,,,,,,687.8541,689.7129,689.7129,690.0776,return,0.0599,,78.64583333,,,,,,FBP-YG-71.png,0.4,1.2,48,0.25,,,,,,,,,,,,,0,41,41,47,1,,,,,,,,,,,,,,,,,,,,,,,,,,,,
,,,,,V2_014,20,Male,2024-03-04_10h05.09.286,jersey_experiment_5_v2,2023.2.2,Win32,85.47008547,,,,,,,,,,,,,,,,690.0778,691.9246,691.9246,692.3129,return,0.0499,,75.78125,,,,,,FBP-YG-71.png,0.43,1.2,49,0.25,,,,,,,,,,,,,0,42,42,48,1,,,,,,,,,,,,,,,,,,,,,,,,,,,,
,,,,,V2_014,20,Male,2024-03-04_10h05.09.286,jersey_experiment_5_v2,2023.2.2,Win32,85.47008547,,,,,,,,,,,,,,,,692.3132,694.1601,694.1601,694.9365,return,0.4292,,60.80729167,,,,,,FBP-OG-18.png,0.4,1.2,23,0.25,,,,,,,,,,,,,0,43,43,22,1,,,,,,,,,,,,,,,,,,,,,,,,,,,,
,,,,,V2_014,20,Male,2024-03-04_10h05.09.286,jersey_experiment_5_v2,2023.2.2,Win32,85.47008547,,,,,,,,,,,,,,,,694.9367,696.7836,696.7837,697.419,return,0.0719,,79.296875,,,,,,FBP-OG-17.png,0.45,1.2,20,0.25,,,,,,,,,,,,,0,44,44,19,1,,,,,,,,,,,,,,,,,,,,,,,,,,,,
,,,,,V2_014,20,Male,2024-03-04_10h05.09.286,jersey_experiment_5_v2,2023.2.2,Win32,85.47008547,,,,,,,,,,,,,,,,697.4192,699.2779,699.2779,700.3132,return,0.1215,,79.296875,,,,,,FBP-YG-91.png,0.37,1.2,57,0.25,,,,,,,,,,,,,0,45,45,56,1,,,,,,,,,,,,,,,,,,,,,,,,,,,,
,,,,,V2_014,20,Male,2024-03-04_10h05.09.286,jersey_experiment_5_v2,2023.2.2,Win32,85.47008547,,,,,,,,,,,,,,,,700.3135,702.1724,702.1724,703.5015,return,0.4101,,85.546875,,,,,,FBP-OG-17.png,0.43,1.2,19,0.25,,,,,,,,,,,,,0,46,46,18,1,,,,,,,,,,,,,,,,,,,,,,,,,,,,
,,,,,V2_014,20,Male,2024-03-04_10h05.09.286,jersey_experiment_5_v2,2023.2.2,Win32,85.47008547,,,,,,,,,,,,,,,,703.5018,705.3488,705.3488,705.9252,return,0.1267,,85.41666667,,,,,,FBP-OG-17.png,0.35,1.2,16,0.25,,,,,,,,,,,,,0,47,47,15,1,,,,,,,,,,,,,,,,,,,,,,,,,,,,
,,,,,V2_014,20,Male,2024-03-04_10h05.09.286,jersey_experiment_5_v2,2023.2.2,Win32,85.47008547,,,,,,,,,,,,,,,,705.9254,707.7723,707.7723,708.584,return,0.1471,,85.41666667,,,,,,FBP-YG-81.png,0.4,1.2,53,0.25,,,,,,,,,,,,,0,48,48,52,1,,,,,,,,,,,,,,,,,,,,,,,,,,,,
,,,,,V2_014,20,Male,2024-03-04_10h05.09.286,jersey_experiment_5_v2,2023.2.2,Win32,85.47008547,,,,,,,,,,,,,,,,708.5841,710.4313,710.4313,711.5252,return,0.1128,,85.41666667,,,,,,FBP-RB-17.png,0.37,1.2,32,0.25,,,,,,,,,,,,,0,49,49,31,1,,,,,,,,,,,,,,,,,,,,,,,,,,,,
,,,,,V2_014,20,Male,2024-03-04_10h05.09.286,jersey_experiment_5_v2,2023.2.2,Win32,85.47008547,,,,,,,,,,,,,,,,711.5254,713.3843,713.3843,714.9372,return,0.1225,,85.41666667,,,,,,FBP-RB-18.png,0.45,1.2,40,0.25,,,,,,,,,,,,,0,50,50,39,1,,,,,,,,,,,,,,,,,,,,,,,,,,,,
,,,,,V2_014,20,Male,2024-03-04_10h05.09.286,jersey_experiment_5_v2,2023.2.2,Win32,85.47008547,,,,,,,,,,,,,,,,714.9374,716.7844,716.7845,717.8315,return,0.0163,,64.71354167,,,,,,FBP-RB-19.png,0.4,1.2,43,0.25,,,,,,,,,,,,,0,51,51,42,1,,,,,,,,,,,,,,,,,,,,,,,,,,,,
,,,,,V2_014,20,Male,2024-03-04_10h05.09.286,jersey_experiment_5_v2,2023.2.2,Win32,85.47008547,,,,,,,,,,,,,,,,717.8316,719.9256,719.9256,720.3845,return,0.0141,,53.125,,,,,,FBP-PT-18.png,0.4,1.2,8,0.5,,,,,,,,,,,,,0,52,52,7,1,,,,,,,,,,,,,,,,,,,,,,,,,,,,
,,,,,V2_014,20,Male,2024-03-04_10h05.09.286,jersey_experiment_5_v2,2023.2.2,Win32,85.47008547,,,,,,,,,,,,,,,,720.3847,722.2316,722.2316,722.7964,return,0.0486,,77.08333333,,,,,,FBP-YG-81.png,0.45,1.2,55,0.25,,,,,,,,,,,,,0,53,53,54,1,,,,,,,,,,,,,,,,,,,,,,,,,,,,
,,,,,V2_014,20,Male,2024-03-04_10h05.09.286,jersey_experiment_5_v2,2023.2.2,Win32,85.47008547,,,,,,,,,,,,,,,,722.7966,724.6435,724.6436,725.1494,return,0.0323,,41.796875,,,,,,FBP-OG-17.png,0.37,1.2,17,0.25,,,,,,,,,,,,,0,54,54,16,1,,,,,,,,,,,,,,,,,,,,,,,,,,,,
,,,,,V2_014,20,Male,2024-03-04_10h05.09.286,jersey_experiment_5_v2,2023.2.2,Win32,85.47008547,,,,,,,,,,,,,,,,725.1495,727.0082,727.0082,727.6083,return,0.2766,,45.96354167,,,,,,FBP-RB-17.png,0.4,1.2,33,0.25,,,,,,,,,,,,,0,55,55,32,1,,,,,,,,,,,,,,,,,,,,,,,,,,,,
,,,,,V2_014,20,Male,2024-03-04_10h05.09.286,jersey_experiment_5_v2,2023.2.2,Win32,85.47008547,,,,,,,,,,,,,,,,727.6086,729.4554,729.4554,729.9025,return,0.0233,,46.09375,,,,,,FBP-OG-19.png,0.37,1.2,27,0.25,,,,,,,,,,,,,0,56,56,26,1,,,,,,,,,,,,,,,,,,,,,,,,,,,,
,,,,,V2_014,20,Male,2024-03-04_10h05.09.286,jersey_experiment_5_v2,2023.2.2,Win32,85.47008547,,,,,,,,,,,,,,,,729.9028,732.0085,732.0086,732.4438,return,0.0597,,50.65104167,,,,,,FBP-PT-17.png,0.4,1.2,3,0.5,,,,,,,,,,,,,0,57,57,2,1,,,,,,,,,,,,,,,,,,,,,,,,,,,,
,,,,,V2_014,20,Male,2024-03-04_10h05.09.286,jersey_experiment_5_v2,2023.2.2,Win32,85.47008547,,,,,,,,,,,,,,,,732.444,734.5381,734.5381,735.5263,return,0.2901,,89.97395833,,,,,,FBP-PT-17.png,0.45,1.2,5,0.5,,,,,,,,,,,,,0,58,58,4,1,,,,,,,,,,,,,,,,,,,,,,,,,,,,
,,,,,V2_014,20,Male,2024-03-04_10h05.09.286,jersey_experiment_5_v2,2023.2.2,Win32,85.47008547,,,,,,,,,,,,,,,,735.5265,737.3735,737.3736,738.3969,return,0.0826,,79.94791667,,,,,,FBP-OG-19.png,0.43,1.2,29,0.25,,,,,,,,,,,,,0,59,59,28,1,,,,,,,,,,,,,,,,,,,,,,,,,,,,
,,,,,V2_014,20,Male,2024-03-04_10h05.09.286,jersey_experiment_5_v2,2023.2.2,Win32,85.47008547,,,,,,,,,,,,,,,,738.3984,740.4912,740.4912,740.7499,return,0.034,,78.64583333,,,,,,FBP-PT-81.png,0.43,1.2,9,0.5,,,,,,,,,,,,,,,,,,0,0,0,8,1,,,,,,,,,,,,,,,,,,,,,,,
,,,,,V2_014,20,Male,2024-03-04_10h05.09.286,jersey_experiment_5_v2,2023.2.2,Win32,85.47008547,,,,,,,,,,,,,,,,740.7503,742.8559,742.856,743.2441,return,0.0017,,74.86979167,,,,,,FBP-PT-81.png,0.4,1.2,8,0.5,,,,,,,,,,,,,,,,,,0,1,1,7,1,,,,,,,,,,,,,,,,,,,,,,,
,,,,,V2_014,20,Male,2024-03-04_10h05.09.286,jersey_experiment_5_v2,2023.2.2,Win32,85.47008547,,,,,,,,,,,,,,,,743.2443,745.103,745.1031,745.6325,return,0.0844,,46.35416667,,,,,,FBP-YG-19.png,0.37,1.2,57,0.25,,,,,,,,,,,,,,,,,,0,2,2,56,1,,,,,,,,,,,,,,,,,,,,,,,
,,,,,V2_014,20,Male,2024-03-04_10h05.09.286,jersey_experiment_5_v2,2023.2.2,Win32,85.47008547,,,,,,,,,,,,,,,,745.6328,747.4797,747.4797,747.915,return,0.0956,,23.69791667,,,,,,FBP-OG-71.png,0.35,1.2,16,0.25,,,,,,,,,,,,,,,,,,0,3,3,15,1,,,,,,,,,,,,,,,,,,,,,,,
,,,,,V2_014,20,Male,2024-03-04_10h05.09.286,jersey_experiment_5_v2,2023.2.2,Win32,85.47008547,,,,,,,,,,,,,,,,747.9152,749.7738,749.7739,750.5032,return,0.1223,,24.21875,,,,,,FBP-RB-71.png,0.4,1.2,33,0.25,,,,,,,,,,,,,,,,,,0,4,4,32,1,,,,,,,,,,,,,,,,,,,,,,,
,,,,,V2_014,20,Male,2024-03-04_10h05.09.286,jersey_experiment_5_v2,2023.2.2,Win32,85.47008547,,,,,,,,,,,,,,,,750.5033,752.3504,752.3505,752.6679,return,0.0841,,23.30729167,,,,,,FBP-YG-19.png,0.35,1.2,56,0.25,,,,,,,,,,,,,,,,,,0,5,5,55,1,,,,,,,,,,,,,,,,,,,,,,,
,,,,,V2_014,20,Male,2024-03-04_10h05.09.286,jersey_experiment_5_v2,2023.2.2,Win32,85.47008547,,,,,,,,,,,,,,,,752.6682,754.5269,754.5269,754.7975,return,0.0004,,23.30729167,,,,,,FBP-YG-18.png,0.4,1.2,53,0.25,,,,,,,,,,,,,,,,,,0,6,6,52,1,,,,,,,,,,,,,,,,,,,,,,,
,,,,,V2_014,20,Male,2024-03-04_10h05.09.286,jersey_experiment_5_v2,2023.2.2,Win32,85.47008547,,,,,,,,,,,,,,,,754.7978,756.6565,756.6565,757.2917,return,0.0355,,85.02604167,,,,,,FBP-OG-71.png,0.45,1.2,20,0.25,,,,,,,,,,,,,,,,,,0,7,7,19,1,,,,,,,,,,,,,,,,,,,,,,,
,,,,,V2_014,20,Male,2024-03-04_10h05.09.286,jersey_experiment_5_v2,2023.2.2,Win32,85.47008547,,,,,,,,,,,,,,,,757.2919,759.1506,759.1506,760.5859,return,0.5552,,14.97395833,,,,,,FBP-RB-91.png,0.35,1.2,41,0.25,,,,,,,,,,,,,,,,,,0,8,8,40,1,,,,,,,,,,,,,,,,,,,,,,,
,,,,,V2_014,20,Male,2024-03-04_10h05.09.286,jersey_experiment_5_v2,2023.2.2,Win32,85.47008547,,,,,,,,,,,,,,,,760.5862,762.4333,762.4333,762.8802,return,0.0711,,52.08333333,,,,,,FBP-OG-71.png,0.37,1.2,17,0.25,,,,,,,,,,,,,,,,,,0,9,9,16,1,,,,,,,,,,,,,,,,,,,,,,,
,,,,,V2_014,20,Male,2024-03-04_10h05.09.286,jersey_experiment_5_v2,2023.2.2,Win32,85.47008547,,,,,,,,,,,,,,,,762.8804,764.7391,764.7392,765.5978,return,0.0463,,73.046875,,,,,,FBP-YG-19.png,0.43,1.2,59,0.25,,,,,,,,,,,,,,,,,,0,10,10,58,1,,,,,,,,,,,,,,,,,,,,,,,
,,,,,V2_014,20,Male,2024-03-04_10h05.09.286,jersey_experiment_5_v2,2023.2.2,Win32,85.47008547,,,,,,,,,,,,,,,,765.5981,767.457,767.457,768.1392,return,0.3794,,75,,,,,,FBP-OG-91.png,0.45,1.2,30,0.25,,,,,,,,,,,,,,,,,,0,11,11,29,1,,,,,,,,,,,,,,,,,,,,,,,
,,,,,V2_014,20,Male,2024-03-04_10h05.09.286,jersey_experiment_5_v2,2023.2.2,Win32,85.47008547,,,,,,,,,,,,,,,,768.1395,769.9864,769.9865,770.2687,return,0.0143,,75,,,,,,FBP-OG-71.png,0.43,1.2,19,0.25,,,,,,,,,,,,,,,,,,0,12,12,18,1,,,,,,,,,,,,,,,,,,,,,,,
,,,,,V2_014,20,Male,2024-03-04_10h05.09.286,jersey_experiment_5_v2,2023.2.2,Win32,85.47008547,,,,,,,,,,,,,,,,770.2689,772.1276,772.1276,773.1983,return,0.479,,51.30208333,,,,,,FBP-OG-91.png,0.35,1.2,26,0.25,,,,,,,,,,,,,,,,,,0,13,13,25,1,,,,,,,,,,,,,,,,,,,,,,,
,,,,,V2_014,20,Male,2024-03-04_10h05.09.286,jersey_experiment_5_v2,2023.2.2,Win32,85.47008547,,,,,,,,,,,,,,,,773.1985,775.0454,775.0454,775.6571,return,0.0506,,62.36979167,,,,,,FBP-RB-81.png,0.45,1.2,40,0.25,,,,,,,,,,,,,,,,,,0,14,14,39,1,,,,,,,,,,,,,,,,,,,,,,,
,,,,,V2_014,20,Male,2024-03-04_10h05.09.286,jersey_experiment_5_v2,2023.2.2,Win32,85.47008547,,,,,,,,,,,,,,,,775.6573,777.7515,777.7516,778.2453,return,0.0674,,36.97916667,,,,,,FBP-PT-71.png,0.37,1.2,2,0.5,,,,,,,,,,,,,,,,,,0,15,15,1,1,,,,,,,,,,,,,,,,,,,,,,,
,,,,,V2_014,20,Male,2024-03-04_10h05.09.286,jersey_experiment_5_v2,2023.2.2,Win32,85.47008547,,,,,,,,,,,,,,,,778.2456,780.3513,780.3514,780.7984,return,0.0572,,30.46875,,,,,,FBP-PT-81.png,0.37,1.2,7,0.5,,,,,,,,,,,,,,,,,,0,16,16,6,1,,,,,,,,,,,,,,,,,,,,,,,
,,,,,V2_014,20,Male,2024-03-04_10h05.09.286,jersey_experiment_5_v2,2023.2.2,Win32,85.47008547,,,,,,,,,,,,,,,,780.7987,782.6457,782.6457,782.9515,return,0.0509,,26.171875,,,,,,FBP-YG-17.png,0.37,1.2,47,0.25,,,,,,,,,,,,,,,,,,0,17,17,46,1,,,,,,,,,,,,,,,,,,,,,,,
,,,,,V2_014,20,Male,2024-03-04_10h05.09.286,jersey_experiment_5_v2,2023.2.2,Win32,85.47008547,,,,,,,,,,,,,,,,782.9517,785.0459,785.046,785.7752,return,0.0608,,87.23958333,,,,,,FBP-PT-71.png,0.43,1.2,4,0.5,,,,,,,,,,,,,,,,,,0,18,18,3,1,,,,,,,,,,,,,,,,,,,,,,,
,,,,,V2_014,20,Male,2024-03-04_10h05.09.286,jersey_experiment_5_v2,2023.2.2,Win32,85.47008547,,,,,,,,,,,,,,,,785.7755,787.6341,787.6341,788.4576,return,0.1103,,87.63020833,,,,,,FBP-RB-81.png,0.35,1.2,36,0.25,,,,,,,,,,,,,,,,,,0,19,19,35,1,,,,,,,,,,,,,,,,,,,,,,,
,,,,,V2_014,20,Male,2024-03-04_10h05.09.286,jersey_experiment_5_v2,2023.2.2,Win32,85.47008547,,,,,,,,,,,,,,,,788.4578,790.3048,790.3048,790.7517,return,0.0802,,73.69791667,,,,,,FBP-RB-91.png,0.37,1.2,42,0.25,,,,,,,,,,,,,,,,,,0,20,20,41,1,,,,,,,,,,,,,,,,,,,,,,,
,,,,,V2_014,20,Male,2024-03-04_10h05.09.286,jersey_experiment_5_v2,2023.2.2,Win32,85.47008547,,,,,,,,,,,,,,,,790.7519,792.8461,792.8462,793.4813,return,0.0753,,20.703125,,,,,,FBP-PT-81.png,0.35,1.2,6,0.5,,,,,,,,,,,,,,,,,,0,21,21,5,1,,,,,,,,,,,,,,,,,,,,,,,
,,,,,V2_014,20,Male,2024-03-04_10h05.09.286,jersey_experiment_5_v2,2023.2.2,Win32,85.47008547,,,,,,,,,,,,,,,,793.4814,795.5873,795.5873,796.399,return,0.3155,,24.47916667,,,,,,FBP-PT-91.png,0.37,1.2,12,0.5,,,,,,,,,,,,,,,,,,0,22,22,11,1,,,,,,,,,,,,,,,,,,,,,,,
,,,,,V2_014,20,Male,2024-03-04_10h05.09.286,jersey_experiment_5_v2,2023.2.2,Win32,85.47008547,,,,,,,,,,,,,,,,796.3993,798.2462,798.2462,798.6697,return,0.0836,,24.21875,,,,,,FBP-OG-81.png,0.35,1.2,21,0.25,,,,,,,,,,,,,,,,,,0,23,23,20,1,,,,,,,,,,,,,,,,,,,,,,,
,,,,,V2_014,20,Male,2024-03-04_10h05.09.286,jersey_experiment_5_v2,2023.2.2,Win32,85.47008547,,,,,,,,,,,,,,,,798.6699,800.5168,800.5169,801.564,return,0.0703,,24.21875,,,,,,FBP-OG-81.png,0.45,1.2,25,0.25,,,,,,,,,,,,,,,,,,0,24,24,24,1,,,,,,,,,,,,,,,,,,,,,,,
,,,,,V2_014,20,Male,2024-03-04_10h05.09.286,jersey_experiment_5_v2,2023.2.2,Win32,85.47008547,,,,,,,,,,,,,,,,801.5643,803.4228,803.4228,804.3759,return,0.1003,,24.21875,,,,,,FBP-RB-81.png,0.4,1.2,38,0.25,,,,,,,,,,,,,,,,,,0,25,25,37,1,,,,,,,,,,,,,,,,,,,,,,,
,,,,,V2_014,20,Male,2024-03-04_10h05.09.286,jersey_experiment_5_v2,2023.2.2,Win32,85.47008547,,,,,,,,,,,,,,,,804.376,806.2229,806.2229,806.9995,return,0.1216,,24.21875,,,,,,FBP-OG-91.png,0.43,1.2,29,0.25,,,,,,,,,,,,,,,,,,0,26,26,28,1,,,,,,,,,,,,,,,,,,,,,,,
,,,,,V2_014,20,Male,2024-03-04_10h05.09.286,jersey_experiment_5_v2,2023.2.2,Win32,85.47008547,,,,,,,,,,,,,,,,806.9996,808.8584,808.8584,809.7761,return,0.0603,,74.21875,,,,,,FBP-RB-91.png,0.45,1.2,45,0.25,,,,,,,,,,,,,,,,,,0,27,27,44,1,,,,,,,,,,,,,,,,,,,,,,,
,,,,,V2_014,20,Male,2024-03-04_10h05.09.286,jersey_experiment_5_v2,2023.2.2,Win32,85.47008547,,,,,,,,,,,,,,,,809.7762,811.6232,811.6232,812.7173,return,0.0374,,47.91666667,,,,,,FBP-OG-91.png,0.37,1.2,27,0.25,,,,,,,,,,,,,,,,,,0,28,28,26,1,,,,,,,,,,,,,,,,,,,,,,,
,,,,,V2_014,20,Male,2024-03-04_10h05.09.286,jersey_experiment_5_v2,2023.2.2,Win32,85.47008547,,,,,,,,,,,,,,,,812.7175,814.5646,814.5646,815.4468,return,0.0768,,96.484375,,,,,,FBP-YG-18.png,0.45,1.2,55,0.25,,,,,,,,,,,,,,,,,,0,29,29,54,1,,,,,,,,,,,,,,,,,,,,,,,
,,,,,V2_014,20,Male,2024-03-04_10h05.09.286,jersey_experiment_5_v2,2023.2.2,Win32,85.47008547,,,,,,,,,,,,,,,,815.447,817.5412,817.5413,818.3293,return,0.0752,,49.86979167,,,,,,FBP-PT-71.png,0.35,1.2,1,0.5,,,,,,,,,,,,,,,,,,0,30,30,0,1,,,,,,,,,,,,,,,,,,,,,,,
,,,,,V2_014,20,Male,2024-03-04_10h05.09.286,jersey_experiment_5_v2,2023.2.2,Win32,85.47008547,,,,,,,,,,,,,,,,818.3295,820.4236,820.4237,821.1647,return,0.0141,,75.52083333,,,,,,FBP-PT-81.png,0.45,1.2,10,0.5,,,,,,,,,,,,,,,,,,0,31,31,9,1,,,,,,,,,,,,,,,,,,,,,,,
,,,,,V2_014,20,Male,2024-03-04_10h05.09.286,jersey_experiment_5_v2,2023.2.2,Win32,85.47008547,,,,,,,,,,,,,,,,821.1649,823.2706,823.2706,824.5412,return,0.4107,,74.609375,,,,,,FBP-PT-91.png,0.43,1.2,14,0.5,,,,,,,,,,,,,,,,,,0,32,32,13,1,,,,,,,,,,,,,,,,,,,,,,,
,,,,,V2_014,20,Male,2024-03-04_10h05.09.286,jersey_experiment_5_v2,2023.2.2,Win32,85.47008547,,,,,,,,,,,,,,,,824.5414,826.4002,826.4003,827.1649,return,0.0237,,27.08333333,,,,,,FBP-YG-19.png,0.4,1.2,58,0.25,,,,,,,,,,,,,,,,,,0,33,33,57,1,,,,,,,,,,,,,,,,,,,,,,,
,,,,,V2_014,20,Male,2024-03-04_10h05.09.286,jersey_experiment_5_v2,2023.2.2,Win32,85.47008547,,,,,,,,,,,,,,,,827.165,829.2591,829.2591,829.918,return,0.0842,,24.34895833,,,,,,FBP-PT-91.png,0.35,1.2,11,0.5,,,,,,,,,,,,,,,,,,0,34,34,10,1,,,,,,,,,,,,,,,,,,,,,,,
,,,,,V2_014,20,Male,2024-03-04_10h05.09.286,jersey_experiment_5_v2,2023.2.2,Win32,85.47008547,,,,,,,,,,,,,,,,829.9181,831.7769,831.7769,832.1181,return,0.017,,24.34895833,,,,,,FBP-RB-71.png,0.37,1.2,32,0.25,,,,,,,,,,,,,,,,,,0,35,35,31,1,,,,,,,,,,,,,,,,,,,,,,,
,,,,,V2_014,20,Male,2024-03-04_10h05.09.286,jersey_experiment_5_v2,2023.2.2,Win32,85.47008547,,,,,,,,,,,,,,,,832.1183,833.9769,833.977,834.7416,return,0.0201,,76.69270833,,,,,,FBP-RB-91.png,0.43,1.2,44,0.25,,,,,,,,,,,,,,,,,,0,36,36,43,1,,,,,,,,,,,,,,,,,,,,,,,
,,,,,V2_014,20,Male,2024-03-04_10h05.09.286,jersey_experiment_5_v2,2023.2.2,Win32,85.47008547,,,,,,,,,,,,,,,,834.7419,836.5888,836.5888,836.824,return,0.0057,,81.25,,,,,,FBP-YG-19.png,0.45,1.2,60,0.25,,,,,,,,,,,,,,,,,,0,37,37,59,1,,,,,,,,,,,,,,,,,,,,,,,
,,,,,V2_014,20,Male,2024-03-04_10h05.09.286,jersey_experiment_5_v2,2023.2.2,Win32,85.47008547,,,,,,,,,,,,,,,,836.8241,838.6714,838.6714,839.5186,return,0.0147,,12.36979167,,,,,,FBP-YG-18.png,0.35,1.2,51,0.25,,,,,,,,,,,,,,,,,,0,38,38,50,1,,,,,,,,,,,,,,,,,,,,,,,
,,,,,V2_014,20,Male,2024-03-04_10h05.09.286,jersey_experiment_5_v2,2023.2.2,Win32,85.47008547,,,,,,,,,,,,,,,,839.5188,841.6242,841.6243,842.8713,return,0.0638,,14.58333333,,,,,,FBP-PT-71.png,0.45,1.2,5,0.5,,,,,,,,,,,,,,,,,,0,39,39,4,1,,,,,,,,,,,,,,,,,,,,,,,
,,,,,V2_014,20,Male,2024-03-04_10h05.09.286,jersey_experiment_5_v2,2023.2.2,Win32,85.47008547,,,,,,,,,,,,,,,,842.8714,844.7303,844.7303,846.2362,return,0.3314,,49.21875,,,,,,FBP-YG-17.png,0.4,1.2,48,0.25,,,,,,,,,,,,,,,,,,0,40,40,47,1,,,,,,,,,,,,,,,,,,,,,,,
,,,,,V2_014,20,Male,2024-03-04_10h05.09.286,jersey_experiment_5_v2,2023.2.2,Win32,85.47008547,,,,,,,,,,,,,,,,846.2364,848.095,848.095,848.3303,return,0.0978,,47.00520833,,,,,,FBP-YG-17.png,0.35,1.2,46,0.25,,,,,,,,,,,,,,,,,,0,41,41,45,1,,,,,,,,,,,,,,,,,,,,,,,
,,,,,V2_014,20,Male,2024-03-04_10h05.09.286,jersey_experiment_5_v2,2023.2.2,Win32,85.47008547,,,,,,,,,,,,,,,,848.3305,850.1776,850.1776,850.6483,return,0.0885,,45.18229167,,,,,,FBP-YG-18.png,0.37,1.2,52,0.25,,,,,,,,,,,,,,,,,,0,42,42,51,1,,,,,,,,,,,,,,,,,,,,,,,
,,,,,V2_014,20,Male,2024-03-04_10h05.09.286,jersey_experiment_5_v2,2023.2.2,Win32,85.47008547,,,,,,,,,,,,,,,,850.6486,852.5072,852.5072,853.3894,return,0.1289,,76.171875,,,,,,FBP-YG-17.png,0.45,1.2,50,0.25,,,,,,,,,,,,,,,,,,0,43,43,49,1,,,,,,,,,,,,,,,,,,,,,,,
,,,,,V2_014,20,Male,2024-03-04_10h05.09.286,jersey_experiment_5_v2,2023.2.2,Win32,85.47008547,,,,,,,,,,,,,,,,853.3897,855.4835,855.4835,855.9306,return,0.1772,,76.04166667,,,,,,FBP-PT-71.png,0.4,1.2,3,0.5,,,,,,,,,,,,,,,,,,0,44,44,2,1,,,,,,,,,,,,,,,,,,,,,,,
,,,,,V2_014,20,Male,2024-03-04_10h05.09.286,jersey_experiment_5_v2,2023.2.2,Win32,85.47008547,,,,,,,,,,,,,,,,855.9307,857.7778,857.7778,858.1662,return,0.0888,,76.04166667,,,,,,FBP-OG-81.png,0.37,1.2,22,0.25,,,,,,,,,,,,,,,,,,0,45,45,21,1,,,,,,,,,,,,,,,,,,,,,,,
,,,,,V2_014,20,Male,2024-03-04_10h05.09.286,jersey_experiment_5_v2,2023.2.2,Win32,85.47008547,,,,,,,,,,,,,,,,858.1664,860.025,860.0251,860.613,return,0.2441,,90.10416667,,,,,,FBP-RB-81.png,0.43,1.2,39,0.25,,,,,,,,,,,,,,,,,,0,46,46,38,1,,,,,,,,,,,,,,,,,,,,,,,
,,,,,V2_014,20,Male,2024-03-04_10h05.09.286,jersey_experiment_5_v2,2023.2.2,Win32,85.47008547,,,,,,,,,,,,,,,,860.6132,862.4605,862.4606,862.7192,return,0.0128,,95.703125,,,,,,FBP-RB-71.png,0.43,1.2,34,0.25,,,,,,,,,,,,,,,,,,0,47,47,33,1,,,,,,,,,,,,,,,,,,,,,,,
,,,,,V2_014,20,Male,2024-03-04_10h05.09.286,jersey_experiment_5_v2,2023.2.2,Win32,85.47008547,,,,,,,,,,,,,,,,862.7194,864.5781,864.5781,865.0957,return,0.1213,,92.31770833,,,,,,FBP-YG-17.png,0.43,1.2,49,0.25,,,,,,,,,,,,,,,,,,0,48,48,48,1,,,,,,,,,,,,,,,,,,,,,,,
,,,,,V2_014,20,Male,2024-03-04_10h05.09.286,jersey_experiment_5_v2,2023.2.2,Win32,85.47008547,,,,,,,,,,,,,,,,865.0959,866.9429,866.9429,867.2486,return,0.0099,,80.20833333,,,,,,FBP-OG-81.png,0.4,1.2,23,0.25,,,,,,,,,,,,,,,,,,0,49,49,22,1,,,,,,,,,,,,,,,,,,,,,,,
,,,,,V2_014,20,Male,2024-03-04_10h05.09.286,jersey_experiment_5_v2,2023.2.2,Win32,85.47008547,,,,,,,,,,,,,,,,867.2489,869.0958,869.0959,869.3077,return,0.0489,,78.25520833,,,,,,FBP-OG-91.png,0.4,1.2,28,0.25,,,,,,,,,,,,,,,,,,0,50,50,27,1,,,,,,,,,,,,,,,,,,,,,,,
,,,,,V2_014,20,Male,2024-03-04_10h05.09.286,jersey_experiment_5_v2,2023.2.2,Win32,85.47008547,,,,,,,,,,,,,,,,869.3079,871.4135,871.4135,872.7195,return,0.1409,,77.21354167,,,,,,FBP-PT-91.png,0.45,1.2,15,0.5,,,,,,,,,,,,,,,,,,0,51,51,14,1,,,,,,,,,,,,,,,,,,,,,,,
,,,,,V2_014,20,Male,2024-03-04_10h05.09.286,jersey_experiment_5_v2,2023.2.2,Win32,85.47008547,,,,,,,,,,,,,,,,872.7197,874.5784,874.5785,875.0726,return,0.0837,,47.78645833,,,,,,FBP-RB-81.png,0.37,1.2,37,0.25,,,,,,,,,,,,,,,,,,0,52,52,36,1,,,,,,,,,,,,,,,,,,,,,,,
,,,,,V2_014,20,Male,2024-03-04_10h05.09.286,jersey_experiment_5_v2,2023.2.2,Win32,85.47008547,,,,,,,,,,,,,,,,875.0727,877.1785,877.1785,878.0256,return,0.1221,,47.78645833,,,,,,FBP-PT-91.png,0.4,1.2,13,0.5,,,,,,,,,,,,,,,,,,0,53,53,12,1,,,,,,,,,,,,,,,,,,,,,,,
,,,,,V2_014,20,Male,2024-03-04_10h05.09.286,jersey_experiment_5_v2,2023.2.2,Win32,85.47008547,,,,,,,,,,,,,,,,878.0257,879.8727,879.8727,880.2021,return,0.025,,47.78645833,,,,,,FBP-RB-91.png,0.4,1.2,43,0.25,,,,,,,,,,,,,,,,,,0,54,54,42,1,,,,,,,,,,,,,,,,,,,,,,,
,,,,,V2_014,20,Male,2024-03-04_10h05.09.286,jersey_experiment_5_v2,2023.2.2,Win32,85.47008547,,,,,,,,,,,,,,,,880.2022,882.0492,882.0492,883.1199,return,0.4131,,31.11979167,,,,,,FBP-RB-71.png,0.35,1.2,31,0.25,,,,,,,,,,,,,,,,,,0,55,55,30,1,,,,,,,,,,,,,,,,,,,,,,,
,,,,,V2_014,20,Male,2024-03-04_10h05.09.286,jersey_experiment_5_v2,2023.2.2,Win32,85.47008547,,,,,,,,,,,,,,,,883.1202,884.967,884.9671,885.414,return,0.0415,,72.265625,,,,,,FBP-OG-81.png,0.43,1.2,24,0.25,,,,,,,,,,,,,,,,,,0,56,56,23,1,,,,,,,,,,,,,,,,,,,,,,,
,,,,,V2_014,20,Male,2024-03-04_10h05.09.286,jersey_experiment_5_v2,2023.2.2,Win32,85.47008547,,,,,,,,,,,,,,,,885.4142,887.2613,887.2613,887.7906,return,0.1649,,93.48958333,,,,,,FBP-RB-71.png,0.45,1.2,35,0.25,,,,,,,,,,,,,,,,,,0,57,57,34,1,,,,,,,,,,,,,,,,,,,,,,,
,,,,,V2_014,20,Male,2024-03-04_10h05.09.286,jersey_experiment_5_v2,2023.2.2,Win32,85.47008547,,,,,,,,,,,,,,,,887.7907,889.6378,889.6378,890.1084,return,0.1083,,91.92708333,,,,,,FBP-YG-18.png,0.43,1.2,54,0.25,,,,,,,,,,,,,,,,,,0,58,58,53,1,,,,,,,,,,,,,,,,,,,,,,,
,,,,,V2_014,20,Male,2024-03-04_10h05.09.286,jersey_experiment_5_v2,2023.2.2,Win32,85.47008547,,,,,,,,,,,,,,,,890.1086,891.9554,891.9554,892.5201,return,0.0764,,80.078125,,,,,,FBP-OG-71.png,0.4,1.2,18,0.25,,,,,,,,,,,,,,,,,,0,59,59,17,1,,,,,,,,,,,,,,,,,,,,,,,
,,,,,V2_014,20,Male,2024-03-04_10h05.09.286,jersey_experiment_5_v2,2023.2.2,Win32,85.47008547,,,,,,,,,,,,,,,,,,,,,,,,,,,,,,,,,,,,,,,,,,,,,,,,,,,,,,,,892.5204,894.7202,return,2.1881,,,,,,,,,,,,,,,,,,,
,,,,,V2_014,20,Male,2024-03-04_10h05.09.286,jersey_experiment_5_v2,2023.2.2,Win32,85.47008547,,,,,,,,,,,,,,,,,,,,,,,,,,,,,,,,,,,,,,,,,,,,,,,,,,,,,,,,,,,,,894.7203,897.8852,1,2.2848,return,0.8575,,,,,,,,,,,,
,,,,,V2_014,20,Male,2024-03-04_10h05.09.286,jersey_experiment_5_v2,2023.2.2,Win32,85.47008547,,,,,,,,,,,,,,,,,,,,,,,,,,,,,,,,,,,,,,,,,,,,,,,,,,,,,,,,,,,,,,,,,,,,897.8853,915.9141,Weight stigma by race?,right,10.9359,,,,,,
,,,,,V2_014,20,Male,2024-03-04_10h05.09.286,jersey_experiment_5_v2,2023.2.2,Win32,85.47008547,,,,,,,,,,,,,,,,,,,,,,,,,,,,,,,,,,,,,,,,,,,,,,,,,,,,,,,,,,,,,,,,,,,,,,,,,,915.9142,918.8741,return,2.9509,