requirements.started,requirements.stopped,key_resp_3.keys,key_resp_3.rt,key_resp_3.duration,Subject ID,Age,Gender,date,expName,psychopyVersion,OS,frameRate,instructions1.started,instructions1.stopped,key_resp.keys,key_resp.rt,key_resp.duration,example.started,example.stopped,enter_2.keys,enter_2.rt,enter_2.duration,instructions2.started,instructions2.stopped,enter_3.keys,enter_3.rt,enter_3.duration,image.started,image.stopped,slider_2.started,slider_2.stopped,next.keys,next.rt,next.duration,slider.response,trial_block_1.thisRepN,trial_block_1.thisTrialN,trial_block_1.thisN,trial_block_1.thisIndex,trial_block_1.ran,Path,Width,Height,Index,Duration,trial_block_2.thisRepN,trial_block_2.thisTrialN,trial_block_2.thisN,trial_block_2.thisIndex,trial_block_2.ran,rest_break.started,rest_break.stopped,end_break.started,end_break.stopped,key_resp_5.keys,key_resp_5.rt,key_resp_5.duration,trial_block_3.thisRepN,trial_block_3.thisTrialN,trial_block_3.thisN,trial_block_3.thisIndex,trial_block_3.ran,trial_block_4.thisRepN,trial_block_4.thisTrialN,trial_block_4.thisN,trial_block_4.thisIndex,trial_block_4.ran,questions_intro.started,questions_intro.stopped,enter_12.keys,enter_12.rt,enter_12.duration,question2.started,question2.stopped,question_doingbest.response,question_doingbest.rt,enter_15.keys,enter_15.rt,enter_15.duration,pattern.started,pattern.stopped,pattern_2.text,enter_17.keys,enter_17.rt,enter_17.duration,thankyou.started,thankyou.stopped,enter_14.keys,enter_14.rt,enter_14.duration
0.0001,7.9004,return,7.8935,,V2_002,18,Female,2024-02-27_13h25.06.663,jersey_experiment_5_v2,2023.2.2,Win32,84.03361345,,,,,,,,,,,,,,,,,,,,,,,,,,,,,,,,,,,,,,,,,,,,,,,,,,,,,,,,,,,,,,,,,,,,,,,,,,,,,,
,,,,,V2_002,18,Female,2024-02-27_13h25.06.663,jersey_experiment_5_v2,2023.2.2,Win32,84.03361345,7.9005,34.5584,return,26.648,,,,,,,,,,,,,,,,,,,,,,,,,,,,,,,,,,,,,,,,,,,,,,,,,,,,,,,,,,,,,,,,,,,,,,,,,,
,,,,,V2_002,18,Female,2024-02-27_13h25.06.663,jersey_experiment_5_v2,2023.2.2,Win32,84.03361345,,,,,,34.5584,40.241,return,5.6477,,,,,,,,,,,,,,,,,,,,,,,,,,,,,,,,,,,,,,,,,,,,,,,,,,,,,,,,,,,,,,,,,,,,,
,,,,,V2_002,18,Female,2024-02-27_13h25.06.663,jersey_experiment_5_v2,2023.2.2,Win32,84.03361345,,,,,,,,,,,40.2411,56.1592,return,15.9061,,,,,,,,,,,,,,,,,,,,,,,,,,,,,,,,,,,,,,,,,,,,,,,,,,,,,,,,,,,,,,,,
,,,,,V2_002,18,Female,2024-02-27_13h25.06.663,jersey_experiment_5_v2,2023.2.2,Win32,84.03361345,,,,,,,,,,,,,,,,56.1625,58.2767,58.2769,66.2537,return,3.1903,,74.609375,0,0,0,18,1,FBP-OG-17.png,0.43,1.2,19,0.5,,,,,,,,,,,,,,,,,,,,,,,,,,,,,,,,,,,,,,,,,,,,,
,,,,,V2_002,18,Female,2024-02-27_13h25.06.663,jersey_experiment_5_v2,2023.2.2,Win32,84.03361345,,,,,,,,,,,,,,,,66.258,68.1005,68.1006,70.9357,return,1.3261,,49.86979167,0,1,1,0,1,FBP-PT-17.png,0.35,1.2,1,0.25,,,,,,,,,,,,,,,,,,,,,,,,,,,,,,,,,,,,,,,,,,,,,
,,,,,V2_002,18,Female,2024-02-27_13h25.06.663,jersey_experiment_5_v2,2023.2.2,Win32,84.03361345,,,,,,,,,,,,,,,,70.9361,73.0301,73.0304,75.2773,return,0.7317,,50.13020833,0,2,2,20,1,FBP-OG-18.png,0.35,1.2,21,0.5,,,,,,,,,,,,,,,,,,,,,,,,,,,,,,,,,,,,,,,,,,,,,
,,,,,V2_002,18,Female,2024-02-27_13h25.06.663,jersey_experiment_5_v2,2023.2.2,Win32,84.03361345,,,,,,,,,,,,,,,,75.2775,77.1362,77.1364,79.1833,return,0.7777,,74.34895833,0,3,3,13,1,FBP-PT-19.png,0.43,1.2,14,0.25,,,,,,,,,,,,,,,,,,,,,,,,,,,,,,,,,,,,,,,,,,,,,
,,,,,V2_002,18,Female,2024-02-27_13h25.06.663,jersey_experiment_5_v2,2023.2.2,Win32,84.03361345,,,,,,,,,,,,,,,,79.1835,81.2776,81.2779,83.2775,return,0.8726,,50.26041667,0,4,4,31,1,FBP-RB-17.png,0.37,1.2,32,0.5,,,,,,,,,,,,,,,,,,,,,,,,,,,,,,,,,,,,,,,,,,,,,
,,,,,V2_002,18,Female,2024-02-27_13h25.06.663,jersey_experiment_5_v2,2023.2.2,Win32,84.03361345,,,,,,,,,,,,,,,,83.2776,85.3719,85.3721,87.313,return,0.7769,,99.08854167,0,5,5,17,1,FBP-OG-17.png,0.4,1.2,18,0.5,,,,,,,,,,,,,,,,,,,,,,,,,,,,,,,,,,,,,,,,,,,,,
,,,,,V2_002,18,Female,2024-02-27_13h25.06.663,jersey_experiment_5_v2,2023.2.2,Win32,84.03361345,,,,,,,,,,,,,,,,87.3133,89.4189,89.4192,91.2896,return,0.8636,,99.86979167,0,6,6,54,1,FBP-YG-81.png,0.45,1.2,55,0.5,,,,,,,,,,,,,,,,,,,,,,,,,,,,,,,,,,,,,,,,,,,,,
,,,,,V2_002,18,Female,2024-02-27_13h25.06.663,jersey_experiment_5_v2,2023.2.2,Win32,84.03361345,,,,,,,,,,,,,,,,91.2897,93.3836,93.3837,95.266,return,0.7857,,50,0,7,7,41,1,FBP-RB-19.png,0.37,1.2,42,0.5,,,,,,,,,,,,,,,,,,,,,,,,,,,,,,,,,,,,,,,,,,,,,
,,,,,V2_002,18,Female,2024-02-27_13h25.06.663,jersey_experiment_5_v2,2023.2.2,Win32,84.03361345,,,,,,,,,,,,,,,,95.2662,97.3723,97.3725,98.9722,return,0.7455,,74.73958333,0,8,8,27,1,FBP-OG-19.png,0.4,1.2,28,0.5,,,,,,,,,,,,,,,,,,,,,,,,,,,,,,,,,,,,,,,,,,,,,
,,,,,V2_002,18,Female,2024-02-27_13h25.06.663,jersey_experiment_5_v2,2023.2.2,Win32,84.03361345,,,,,,,,,,,,,,,,98.9724,100.8194,100.8196,102.7488,return,0.6862,,49.86979167,0,9,9,11,1,FBP-PT-19.png,0.37,1.2,12,0.25,,,,,,,,,,,,,,,,,,,,,,,,,,,,,,,,,,,,,,,,,,,,,
,,,,,V2_002,18,Female,2024-02-27_13h25.06.663,jersey_experiment_5_v2,2023.2.2,Win32,84.03361345,,,,,,,,,,,,,,,,102.749,104.843,104.8432,106.584,return,0.7146,,75.13020833,0,10,10,22,1,FBP-OG-18.png,0.4,1.2,23,0.5,,,,,,,,,,,,,,,,,,,,,,,,,,,,,,,,,,,,,,,,,,,,,
,,,,,V2_002,18,Female,2024-02-27_13h25.06.663,jersey_experiment_5_v2,2023.2.2,Win32,84.03361345,,,,,,,,,,,,,,,,106.5842,108.6783,108.6785,111.855,return,0.7312,,74.47916667,0,11,11,52,1,FBP-YG-81.png,0.4,1.2,53,0.5,,,,,,,,,,,,,,,,,,,,,,,,,,,,,,,,,,,,,,,,,,,,,
,,,,,V2_002,18,Female,2024-02-27_13h25.06.663,jersey_experiment_5_v2,2023.2.2,Win32,84.03361345,,,,,,,,,,,,,,,,111.8552,113.9492,113.9493,116.008,return,0.8439,,74.73958333,0,12,12,32,1,FBP-RB-17.png,0.4,1.2,33,0.5,,,,,,,,,,,,,,,,,,,,,,,,,,,,,,,,,,,,,,,,,,,,,
,,,,,V2_002,18,Female,2024-02-27_13h25.06.663,jersey_experiment_5_v2,2023.2.2,Win32,84.03361345,,,,,,,,,,,,,,,,116.0082,117.8554,117.8556,120.3965,return,0.673,,99.609375,0,13,13,9,1,FBP-PT-18.png,0.45,1.2,10,0.25,,,,,,,,,,,,,,,,,,,,,,,,,,,,,,,,,,,,,,,,,,,,,
,,,,,V2_002,18,Female,2024-02-27_13h25.06.663,jersey_experiment_5_v2,2023.2.2,Win32,84.03361345,,,,,,,,,,,,,,,,120.3966,122.5027,122.5028,124.385,return,0.7304,,24.73958333,0,14,14,51,1,FBP-YG-81.png,0.37,1.2,52,0.5,,,,,,,,,,,,,,,,,,,,,,,,,,,,,,,,,,,,,,,,,,,,,
,,,,,V2_002,18,Female,2024-02-27_13h25.06.663,jersey_experiment_5_v2,2023.2.2,Win32,84.03361345,,,,,,,,,,,,,,,,124.3852,126.232,126.2321,128.138,return,0.7831,,49.47916667,0,15,15,1,1,FBP-PT-17.png,0.37,1.2,2,0.25,,,,,,,,,,,,,,,,,,,,,,,,,,,,,,,,,,,,,,,,,,,,,
,,,,,V2_002,18,Female,2024-02-27_13h25.06.663,jersey_experiment_5_v2,2023.2.2,Win32,84.03361345,,,,,,,,,,,,,,,,128.1382,130.2321,130.2323,134.2204,return,0.9669,,39.453125,0,16,16,47,1,FBP-YG-71.png,0.4,1.2,48,0.5,,,,,,,,,,,,,,,,,,,,,,,,,,,,,,,,,,,,,,,,,,,,,
,,,,,V2_002,18,Female,2024-02-27_13h25.06.663,jersey_experiment_5_v2,2023.2.2,Win32,84.03361345,,,,,,,,,,,,,,,,134.2207,136.3149,136.3151,138.9148,return,0.7059,,37.5,0,17,17,36,1,FBP-RB-18.png,0.37,1.2,37,0.5,,,,,,,,,,,,,,,,,,,,,,,,,,,,,,,,,,,,,,,,,,,,,
,,,,,V2_002,18,Female,2024-02-27_13h25.06.663,jersey_experiment_5_v2,2023.2.2,Win32,84.03361345,,,,,,,,,,,,,,,,138.915,141.0091,141.0093,143.4915,return,0.6956,,49.609375,0,18,18,46,1,FBP-YG-71.png,0.37,1.2,47,0.5,,,,,,,,,,,,,,,,,,,,,,,,,,,,,,,,,,,,,,,,,,,,,
,,,,,V2_002,18,Female,2024-02-27_13h25.06.663,jersey_experiment_5_v2,2023.2.2,Win32,84.03361345,,,,,,,,,,,,,,,,143.4918,145.5857,145.5858,147.374,return,0.7202,,40.88541667,0,19,19,21,1,FBP-OG-18.png,0.37,1.2,22,0.5,,,,,,,,,,,,,,,,,,,,,,,,,,,,,,,,,,,,,,,,,,,,,
,,,,,V2_002,18,Female,2024-02-27_13h25.06.663,jersey_experiment_5_v2,2023.2.2,Win32,84.03361345,,,,,,,,,,,,,,,,147.3742,149.4682,149.4684,151.9389,return,0.8839,,23.046875,0,20,20,35,1,FBP-RB-18.png,0.35,1.2,36,0.5,,,,,,,,,,,,,,,,,,,,,,,,,,,,,,,,,,,,,,,,,,,,,
,,,,,V2_002,18,Female,2024-02-27_13h25.06.663,jersey_experiment_5_v2,2023.2.2,Win32,84.03361345,,,,,,,,,,,,,,,,151.939,154.033,154.0332,157.8096,return,0.7528,,24.73958333,0,21,21,30,1,FBP-RB-17.png,0.35,1.2,31,0.5,,,,,,,,,,,,,,,,,,,,,,,,,,,,,,,,,,,,,,,,,,,,,
,,,,,V2_002,18,Female,2024-02-27_13h25.06.663,jersey_experiment_5_v2,2023.2.2,Win32,84.03361345,,,,,,,,,,,,,,,,157.8098,159.9157,159.916,161.8803,return,0.8085,,76.953125,0,22,22,33,1,FBP-RB-17.png,0.43,1.2,34,0.5,,,,,,,,,,,,,,,,,,,,,,,,,,,,,,,,,,,,,,,,,,,,,
,,,,,V2_002,18,Female,2024-02-27_13h25.06.663,jersey_experiment_5_v2,2023.2.2,Win32,84.03361345,,,,,,,,,,,,,,,,161.8804,163.7276,163.7277,170.763,return,1.994,,54.03645833,0,23,23,3,1,FBP-PT-17.png,0.43,1.2,4,0.25,,,,,,,,,,,,,,,,,,,,,,,,,,,,,,,,,,,,,,,,,,,,,
,,,,,V2_002,18,Female,2024-02-27_13h25.06.663,jersey_experiment_5_v2,2023.2.2,Win32,84.03361345,,,,,,,,,,,,,,,,170.7633,172.8574,172.8577,174.7985,return,0.7314,,88.41145833,0,24,24,39,1,FBP-RB-18.png,0.45,1.2,40,0.5,,,,,,,,,,,,,,,,,,,,,,,,,,,,,,,,,,,,,,,,,,,,,
,,,,,V2_002,18,Female,2024-02-27_13h25.06.663,jersey_experiment_5_v2,2023.2.2,Win32,84.03361345,,,,,,,,,,,,,,,,174.7986,176.8927,176.8929,179.3281,return,0.7303,,87.36979167,0,25,25,23,1,FBP-OG-18.png,0.43,1.2,24,0.5,,,,,,,,,,,,,,,,,,,,,,,,,,,,,,,,,,,,,,,,,,,,,
,,,,,V2_002,18,Female,2024-02-27_13h25.06.663,jersey_experiment_5_v2,2023.2.2,Win32,84.03361345,,,,,,,,,,,,,,,,179.3283,181.1754,181.1755,184.3282,return,0.8082,,38.02083333,0,26,26,6,1,FBP-PT-18.png,0.37,1.2,7,0.25,,,,,,,,,,,,,,,,,,,,,,,,,,,,,,,,,,,,,,,,,,,,,
,,,,,V2_002,18,Female,2024-02-27_13h25.06.663,jersey_experiment_5_v2,2023.2.2,Win32,84.03361345,,,,,,,,,,,,,,,,184.3283,186.4225,186.4226,188.3284,return,0.7712,,99.21875,0,27,27,29,1,FBP-OG-19.png,0.45,1.2,30,0.5,,,,,,,,,,,,,,,,,,,,,,,,,,,,,,,,,,,,,,,,,,,,,
,,,,,V2_002,18,Female,2024-02-27_13h25.06.663,jersey_experiment_5_v2,2023.2.2,Win32,84.03361345,,,,,,,,,,,,,,,,188.3286,190.4226,190.4227,192.258,return,0.8,,76.43229167,0,28,28,48,1,FBP-YG-71.png,0.43,1.2,49,0.5,,,,,,,,,,,,,,,,,,,,,,,,,,,,,,,,,,,,,,,,,,,,,
,,,,,V2_002,18,Female,2024-02-27_13h25.06.663,jersey_experiment_5_v2,2023.2.2,Win32,84.03361345,,,,,,,,,,,,,,,,192.2581,194.1051,194.1052,196.1052,return,0.7351,,87.109375,0,29,29,4,1,FBP-PT-17.png,0.45,1.2,5,0.25,,,,,,,,,,,,,,,,,,,,,,,,,,,,,,,,,,,,,,,,,,,,,
,,,,,V2_002,18,Female,2024-02-27_13h25.06.663,jersey_experiment_5_v2,2023.2.2,Win32,84.03361345,,,,,,,,,,,,,,,,196.1055,197.9523,197.9524,199.9994,return,0.7072,,91.27604167,0,30,30,14,1,FBP-PT-19.png,0.45,1.2,15,0.25,,,,,,,,,,,,,,,,,,,,,,,,,,,,,,,,,,,,,,,,,,,,,
,,,,,V2_002,18,Female,2024-02-27_13h25.06.663,jersey_experiment_5_v2,2023.2.2,Win32,84.03361345,,,,,,,,,,,,,,,,199.9997,202.0937,202.0938,204.4584,return,0.7105,,10.41666667,0,31,31,50,1,FBP-YG-81.png,0.35,1.2,51,0.5,,,,,,,,,,,,,,,,,,,,,,,,,,,,,,,,,,,,,,,,,,,,,
,,,,,V2_002,18,Female,2024-02-27_13h25.06.663,jersey_experiment_5_v2,2023.2.2,Win32,84.03361345,,,,,,,,,,,,,,,,204.4587,206.5527,206.553,209.1056,return,0.6924,,77.34375,0,32,32,58,1,FBP-YG-91.png,0.43,1.2,59,0.5,,,,,,,,,,,,,,,,,,,,,,,,,,,,,,,,,,,,,,,,,,,,,
,,,,,V2_002,18,Female,2024-02-27_13h25.06.663,jersey_experiment_5_v2,2023.2.2,Win32,84.03361345,,,,,,,,,,,,,,,,209.1059,210.953,210.9532,212.7528,return,0.6833,,63.54166667,0,33,33,7,1,FBP-PT-18.png,0.4,1.2,8,0.25,,,,,,,,,,,,,,,,,,,,,,,,,,,,,,,,,,,,,,,,,,,,,
,,,,,V2_002,18,Female,2024-02-27_13h25.06.663,jersey_experiment_5_v2,2023.2.2,Win32,84.03361345,,,,,,,,,,,,,,,,212.7531,214.8472,214.8474,216.8588,return,0.7937,,92.578125,0,34,34,43,1,FBP-RB-19.png,0.43,1.2,44,0.5,,,,,,,,,,,,,,,,,,,,,,,,,,,,,,,,,,,,,,,,,,,,,
,,,,,V2_002,18,Female,2024-02-27_13h25.06.663,jersey_experiment_5_v2,2023.2.2,Win32,84.03361345,,,,,,,,,,,,,,,,216.8589,218.9532,218.9535,220.4001,return,0.6594,,97.65625,0,35,35,19,1,FBP-OG-17.png,0.45,1.2,20,0.5,,,,,,,,,,,,,,,,,,,,,,,,,,,,,,,,,,,,,,,,,,,,,
,,,,,V2_002,18,Female,2024-02-27_13h25.06.663,jersey_experiment_5_v2,2023.2.2,Win32,84.03361345,,,,,,,,,,,,,,,,220.4004,222.4945,222.4946,224.2356,return,0.7202,,71.875,0,36,36,57,1,FBP-YG-91.png,0.4,1.2,58,0.5,,,,,,,,,,,,,,,,,,,,,,,,,,,,,,,,,,,,,,,,,,,,,
,,,,,V2_002,18,Female,2024-02-27_13h25.06.663,jersey_experiment_5_v2,2023.2.2,Win32,84.03361345,,,,,,,,,,,,,,,,224.2358,226.3298,226.33,228.3651,return,0.684,,60.28645833,0,37,37,56,1,FBP-YG-91.png,0.37,1.2,57,0.5,,,,,,,,,,,,,,,,,,,,,,,,,,,,,,,,,,,,,,,,,,,,,
,,,,,V2_002,18,Female,2024-02-27_13h25.06.663,jersey_experiment_5_v2,2023.2.2,Win32,84.03361345,,,,,,,,,,,,,,,,228.3653,230.4596,230.4598,232.4947,return,0.6945,,24.609375,0,38,38,55,1,FBP-YG-91.png,0.35,1.2,56,0.5,,,,,,,,,,,,,,,,,,,,,,,,,,,,,,,,,,,,,,,,,,,,,
,,,,,V2_002,18,Female,2024-02-27_13h25.06.663,jersey_experiment_5_v2,2023.2.2,Win32,84.03361345,,,,,,,,,,,,,,,,232.495,234.589,234.5893,236.3184,return,0.6831,,95.83333333,0,39,39,24,1,FBP-OG-18.png,0.45,1.2,25,0.5,,,,,,,,,,,,,,,,,,,,,,,,,,,,,,,,,,,,,,,,,,,,,
,,,,,V2_002,18,Female,2024-02-27_13h25.06.663,jersey_experiment_5_v2,2023.2.2,Win32,84.03361345,,,,,,,,,,,,,,,,236.3187,238.1656,238.1659,240.6361,return,0.6634,,19.66145833,0,40,40,5,1,FBP-PT-18.png,0.35,1.2,6,0.25,,,,,,,,,,,,,,,,,,,,,,,,,,,,,,,,,,,,,,,,,,,,,
,,,,,V2_002,18,Female,2024-02-27_13h25.06.663,jersey_experiment_5_v2,2023.2.2,Win32,84.03361345,,,,,,,,,,,,,,,,240.6364,242.7306,242.7308,244.6247,return,0.7439,,91.27604167,0,41,41,34,1,FBP-RB-17.png,0.45,1.2,35,0.5,,,,,,,,,,,,,,,,,,,,,,,,,,,,,,,,,,,,,,,,,,,,,
,,,,,V2_002,18,Female,2024-02-27_13h25.06.663,jersey_experiment_5_v2,2023.2.2,Win32,84.03361345,,,,,,,,,,,,,,,,244.6248,246.7307,246.731,248.3306,return,0.7355,,99.08854167,0,42,42,49,1,FBP-YG-71.png,0.45,1.2,50,0.5,,,,,,,,,,,,,,,,,,,,,,,,,,,,,,,,,,,,,,,,,,,,,
,,,,,V2_002,18,Female,2024-02-27_13h25.06.663,jersey_experiment_5_v2,2023.2.2,Win32,84.03361345,,,,,,,,,,,,,,,,248.3309,250.4365,250.4367,252.8602,return,1.4854,,83.203125,0,43,43,37,1,FBP-RB-18.png,0.4,1.2,38,0.5,,,,,,,,,,,,,,,,,,,,,,,,,,,,,,,,,,,,,,,,,,,,,
,,,,,V2_002,18,Female,2024-02-27_13h25.06.663,jersey_experiment_5_v2,2023.2.2,Win32,84.03361345,,,,,,,,,,,,,,,,252.8604,254.9546,254.9547,257.4016,return,0.7485,,19.79166667,0,44,44,15,1,FBP-OG-17.png,0.35,1.2,16,0.5,,,,,,,,,,,,,,,,,,,,,,,,,,,,,,,,,,,,,,,,,,,,,
,,,,,V2_002,18,Female,2024-02-27_13h25.06.663,jersey_experiment_5_v2,2023.2.2,Win32,84.03361345,,,,,,,,,,,,,,,,257.4019,259.5077,259.5079,261.39,return,0.6471,,18.61979167,0,45,45,45,1,FBP-YG-71.png,0.35,1.2,46,0.5,,,,,,,,,,,,,,,,,,,,,,,,,,,,,,,,,,,,,,,,,,,,,
,,,,,V2_002,18,Female,2024-02-27_13h25.06.663,jersey_experiment_5_v2,2023.2.2,Win32,84.03361345,,,,,,,,,,,,,,,,261.3903,263.237,263.2374,267.896,return,0.5618,,35.02604167,0,46,46,8,1,FBP-PT-18.png,0.43,1.2,9,0.25,,,,,,,,,,,,,,,,,,,,,,,,,,,,,,,,,,,,,,,,,,,,,
,,,,,V2_002,18,Female,2024-02-27_13h25.06.663,jersey_experiment_5_v2,2023.2.2,Win32,84.03361345,,,,,,,,,,,,,,,,267.8963,269.9904,269.9905,272.355,return,0.6449,,63.93229167,0,47,47,42,1,FBP-RB-19.png,0.4,1.2,43,0.5,,,,,,,,,,,,,,,,,,,,,,,,,,,,,,,,,,,,,,,,,,,,,
,,,,,V2_002,18,Female,2024-02-27_13h25.06.663,jersey_experiment_5_v2,2023.2.2,Win32,84.03361345,,,,,,,,,,,,,,,,272.3553,274.4492,274.4493,277.2612,return,0.754,,90.625,0,48,48,28,1,FBP-OG-19.png,0.43,1.2,29,0.5,,,,,,,,,,,,,,,,,,,,,,,,,,,,,,,,,,,,,,,,,,,,,
,,,,,V2_002,18,Female,2024-02-27_13h25.06.663,jersey_experiment_5_v2,2023.2.2,Win32,84.03361345,,,,,,,,,,,,,,,,277.2614,279.3554,279.3556,281.5318,return,0.72,,97.00520833,0,49,49,59,1,FBP-YG-91.png,0.45,1.2,60,0.5,,,,,,,,,,,,,,,,,,,,,,,,,,,,,,,,,,,,,,,,,,,,,
,,,,,V2_002,18,Female,2024-02-27_13h25.06.663,jersey_experiment_5_v2,2023.2.2,Win32,84.03361345,,,,,,,,,,,,,,,,281.532,283.626,283.6262,285.6496,return,0.7529,,75.52083333,0,50,50,44,1,FBP-RB-19.png,0.45,1.2,45,0.5,,,,,,,,,,,,,,,,,,,,,,,,,,,,,,,,,,,,,,,,,,,,,
,,,,,V2_002,18,Female,2024-02-27_13h25.06.663,jersey_experiment_5_v2,2023.2.2,Win32,84.03361345,,,,,,,,,,,,,,,,285.6498,287.7438,287.744,289.4851,return,0.6731,,45.57291667,0,51,51,40,1,FBP-RB-19.png,0.35,1.2,41,0.5,,,,,,,,,,,,,,,,,,,,,,,,,,,,,,,,,,,,,,,,,,,,,
,,,,,V2_002,18,Female,2024-02-27_13h25.06.663,jersey_experiment_5_v2,2023.2.2,Win32,84.03361345,,,,,,,,,,,,,,,,289.4853,291.5911,291.5913,293.6499,return,0.646,,37.890625,0,52,52,25,1,FBP-OG-19.png,0.35,1.2,26,0.5,,,,,,,,,,,,,,,,,,,,,,,,,,,,,,,,,,,,,,,,,,,,,
,,,,,V2_002,18,Female,2024-02-27_13h25.06.663,jersey_experiment_5_v2,2023.2.2,Win32,84.03361345,,,,,,,,,,,,,,,,293.6502,295.7442,295.7443,297.3912,return,0.7307,,58.984375,0,53,53,26,1,FBP-OG-19.png,0.37,1.2,27,0.5,,,,,,,,,,,,,,,,,,,,,,,,,,,,,,,,,,,,,,,,,,,,,
,,,,,V2_002,18,Female,2024-02-27_13h25.06.663,jersey_experiment_5_v2,2023.2.2,Win32,84.03361345,,,,,,,,,,,,,,,,297.3914,299.2502,299.2504,301.3208,return,0.7008,,25.91145833,0,54,54,10,1,FBP-PT-19.png,0.35,1.2,11,0.25,,,,,,,,,,,,,,,,,,,,,,,,,,,,,,,,,,,,,,,,,,,,,
,,,,,V2_002,18,Female,2024-02-27_13h25.06.663,jersey_experiment_5_v2,2023.2.2,Win32,84.03361345,,,,,,,,,,,,,,,,301.321,303.168,303.1682,305.0975,return,0.7014,,75.390625,0,55,55,2,1,FBP-PT-17.png,0.4,1.2,3,0.25,,,,,,,,,,,,,,,,,,,,,,,,,,,,,,,,,,,,,,,,,,,,,
,,,,,V2_002,18,Female,2024-02-27_13h25.06.663,jersey_experiment_5_v2,2023.2.2,Win32,84.03361345,,,,,,,,,,,,,,,,305.0977,306.9445,306.9447,310.4035,return,0.6461,,64.97395833,0,56,56,12,1,FBP-PT-19.png,0.4,1.2,13,0.25,,,,,,,,,,,,,,,,,,,,,,,,,,,,,,,,,,,,,,,,,,,,,
,,,,,V2_002,18,Female,2024-02-27_13h25.06.663,jersey_experiment_5_v2,2023.2.2,Win32,84.03361345,,,,,,,,,,,,,,,,310.4037,312.4978,312.498,314.2388,return,0.6842,,83.984375,0,57,57,38,1,FBP-RB-18.png,0.43,1.2,39,0.5,,,,,,,,,,,,,,,,,,,,,,,,,,,,,,,,,,,,,,,,,,,,,
,,,,,V2_002,18,Female,2024-02-27_13h25.06.663,jersey_experiment_5_v2,2023.2.2,Win32,84.03361345,,,,,,,,,,,,,,,,314.2391,316.333,316.3333,319.3686,return,0.5964,,84.50520833,0,58,58,53,1,FBP-YG-81.png,0.43,1.2,54,0.5,,,,,,,,,,,,,,,,,,,,,,,,,,,,,,,,,,,,,,,,,,,,,
,,,,,V2_002,18,Female,2024-02-27_13h25.06.663,jersey_experiment_5_v2,2023.2.2,Win32,84.03361345,,,,,,,,,,,,,,,,319.3688,321.4628,321.4631,323.345,return,0.6118,,66.14583333,0,59,59,16,1,FBP-OG-17.png,0.37,1.2,17,0.5,,,,,,,,,,,,,,,,,,,,,,,,,,,,,,,,,,,,,,,,,,,,,
,,,,,V2_002,18,Female,2024-02-27_13h25.06.663,jersey_experiment_5_v2,2023.2.2,Win32,84.03361345,,,,,,,,,,,,,,,,323.3471,325.4394,325.4396,327.5454,return,0.688,,25.78125,,,,,,FBP-YG-18.png,0.35,1.2,51,0.5,0,0,0,50,1,,,,,,,,,,,,,,,,,,,,,,,,,,,,,,,,,,,,,,,,
,,,,,V2_002,18,Female,2024-02-27_13h25.06.663,jersey_experiment_5_v2,2023.2.2,Win32,84.03361345,,,,,,,,,,,,,,,,327.5458,329.6514,329.6515,331.5926,return,0.6652,,93.48958333,,,,,,FBP-YG-19.png,0.43,1.2,59,0.5,0,1,1,58,1,,,,,,,,,,,,,,,,,,,,,,,,,,,,,,,,,,,,,,,,
,,,,,V2_002,18,Female,2024-02-27_13h25.06.663,jersey_experiment_5_v2,2023.2.2,Win32,84.03361345,,,,,,,,,,,,,,,,331.5928,333.4396,333.4399,335.0868,return,0.6841,,83.46354167,,,,,,FBP-PT-91.png,0.4,1.2,13,0.25,0,2,2,12,1,,,,,,,,,,,,,,,,,,,,,,,,,,,,,,,,,,,,,,,,
,,,,,V2_002,18,Female,2024-02-27_13h25.06.663,jersey_experiment_5_v2,2023.2.2,Win32,84.03361345,,,,,,,,,,,,,,,,335.087,336.934,336.9342,338.5575,return,0.6736,,93.09895833,,,,,,FBP-PT-81.png,0.43,1.2,9,0.25,0,3,3,8,1,,,,,,,,,,,,,,,,,,,,,,,,,,,,,,,,,,,,,,,,
,,,,,V2_002,18,Female,2024-02-27_13h25.06.663,jersey_experiment_5_v2,2023.2.2,Win32,84.03361345,,,,,,,,,,,,,,,,338.5579,340.6519,340.6522,343.6166,return,1.248,,24.21875,,,,,,FBP-YG-18.png,0.37,1.2,52,0.5,0,4,4,51,1,,,,,,,,,,,,,,,,,,,,,,,,,,,,,,,,,,,,,,,,
,,,,,V2_002,18,Female,2024-02-27_13h25.06.663,jersey_experiment_5_v2,2023.2.2,Win32,84.03361345,,,,,,,,,,,,,,,,343.6167,345.7108,345.711,347.6754,return,0.6747,,35.15625,,,,,,FBP-YG-19.png,0.35,1.2,56,0.5,0,5,5,55,1,,,,,,,,,,,,,,,,,,,,,,,,,,,,,,,,,,,,,,,,
,,,,,V2_002,18,Female,2024-02-27_13h25.06.663,jersey_experiment_5_v2,2023.2.2,Win32,84.03361345,,,,,,,,,,,,,,,,347.6756,349.7698,349.77,351.4874,return,0.6942,,80.46875,,,,,,FBP-OG-81.png,0.43,1.2,24,0.5,0,6,6,23,1,,,,,,,,,,,,,,,,,,,,,,,,,,,,,,,,,,,,,,,,
,,,,,V2_002,18,Female,2024-02-27_13h25.06.663,jersey_experiment_5_v2,2023.2.2,Win32,84.03361345,,,,,,,,,,,,,,,,351.4876,353.5816,353.5817,354.9934,return,0.7164,,89.97395833,,,,,,FBP-YG-17.png,0.4,1.2,48,0.5,0,7,7,47,1,,,,,,,,,,,,,,,,,,,,,,,,,,,,,,,,,,,,,,,,
,,,,,V2_002,18,Female,2024-02-27_13h25.06.663,jersey_experiment_5_v2,2023.2.2,Win32,84.03361345,,,,,,,,,,,,,,,,354.9936,357.0876,357.0878,358.723,return,0.8139,,98.95833333,,,,,,FBP-YG-18.png,0.45,1.2,55,0.5,0,8,8,54,1,,,,,,,,,,,,,,,,,,,,,,,,,,,,,,,,,,,,,,,,
,,,,,V2_002,18,Female,2024-02-27_13h25.06.663,jersey_experiment_5_v2,2023.2.2,Win32,84.03361345,,,,,,,,,,,,,,,,358.7233,360.8172,360.8174,362.4173,return,0.7434,,98.30729167,,,,,,FBP-RB-91.png,0.45,1.2,45,0.5,0,9,9,44,1,,,,,,,,,,,,,,,,,,,,,,,,,,,,,,,,,,,,,,,,
,,,,,V2_002,18,Female,2024-02-27_13h25.06.663,jersey_experiment_5_v2,2023.2.2,Win32,84.03361345,,,,,,,,,,,,,,,,362.4174,364.5114,364.5116,366.0291,return,0.6966,,93.75,,,,,,FBP-YG-19.png,0.45,1.2,60,0.5,0,10,10,59,1,,,,,,,,,,,,,,,,,,,,,,,,,,,,,,,,,,,,,,,,
,,,,,V2_002,18,Female,2024-02-27_13h25.06.663,jersey_experiment_5_v2,2023.2.2,Win32,84.03361345,,,,,,,,,,,,,,,,366.0293,367.8763,367.8764,369.3468,return,0.6826,,98.30729167,,,,,,FBP-PT-91.png,0.45,1.2,15,0.25,0,11,11,14,1,,,,,,,,,,,,,,,,,,,,,,,,,,,,,,,,,,,,,,,,
,,,,,V2_002,18,Female,2024-02-27_13h25.06.663,jersey_experiment_5_v2,2023.2.2,Win32,84.03361345,,,,,,,,,,,,,,,,369.347,371.441,371.4412,373.0176,return,0.7228,,92.96875,,,,,,FBP-OG-91.png,0.45,1.2,30,0.5,0,12,12,29,1,,,,,,,,,,,,,,,,,,,,,,,,,,,,,,,,,,,,,,,,
,,,,,V2_002,18,Female,2024-02-27_13h25.06.663,jersey_experiment_5_v2,2023.2.2,Win32,84.03361345,,,,,,,,,,,,,,,,373.0178,375.1236,375.1237,377.1001,return,0.981,,98.17708333,,,,,,FBP-RB-81.png,0.45,1.2,40,0.5,0,13,13,39,1,,,,,,,,,,,,,,,,,,,,,,,,,,,,,,,,,,,,,,,,
,,,,,V2_002,18,Female,2024-02-27_13h25.06.663,jersey_experiment_5_v2,2023.2.2,Win32,84.03361345,,,,,,,,,,,,,,,,377.1004,378.9471,378.9474,381.2297,return,0.7561,,23.828125,,,,,,FBP-PT-91.png,0.37,1.2,12,0.25,0,14,14,11,1,,,,,,,,,,,,,,,,,,,,,,,,,,,,,,,,,,,,,,,,
,,,,,V2_002,18,Female,2024-02-27_13h25.06.663,jersey_experiment_5_v2,2023.2.2,Win32,84.03361345,,,,,,,,,,,,,,,,381.2299,383.3239,383.3241,385.4416,return,0.7628,,82.94270833,,,,,,FBP-YG-17.png,0.43,1.2,49,0.5,0,15,15,48,1,,,,,,,,,,,,,,,,,,,,,,,,,,,,,,,,,,,,,,,,
,,,,,V2_002,18,Female,2024-02-27_13h25.06.663,jersey_experiment_5_v2,2023.2.2,Win32,84.03361345,,,,,,,,,,,,,,,,385.4417,387.5358,387.5359,389.277,return,0.696,,34.50520833,,,,,,FBP-YG-17.png,0.37,1.2,47,0.5,0,16,16,46,1,,,,,,,,,,,,,,,,,,,,,,,,,,,,,,,,,,,,,,,,
,,,,,V2_002,18,Female,2024-02-27_13h25.06.663,jersey_experiment_5_v2,2023.2.2,Win32,84.03361345,,,,,,,,,,,,,,,,389.2772,391.3713,391.3715,393.5949,return,0.7811,,80.33854167,,,,,,FBP-RB-71.png,0.45,1.2,35,0.5,0,17,17,34,1,,,,,,,,,,,,,,,,,,,,,,,,,,,,,,,,,,,,,,,,
,,,,,V2_002,18,Female,2024-02-27_13h25.06.663,jersey_experiment_5_v2,2023.2.2,Win32,84.03361345,,,,,,,,,,,,,,,,393.5951,395.6892,395.6895,397.5362,return,0.6828,,15.75520833,,,,,,FBP-RB-91.png,0.37,1.2,42,0.5,0,18,18,41,1,,,,,,,,,,,,,,,,,,,,,,,,,,,,,,,,,,,,,,,,
,,,,,V2_002,18,Female,2024-02-27_13h25.06.663,jersey_experiment_5_v2,2023.2.2,Win32,84.03361345,,,,,,,,,,,,,,,,397.5364,399.6304,399.6307,401.795,return,0.7057,,86.97916667,,,,,,FBP-OG-91.png,0.43,1.2,29,0.5,0,19,19,28,1,,,,,,,,,,,,,,,,,,,,,,,,,,,,,,,,,,,,,,,,
,,,,,V2_002,18,Female,2024-02-27_13h25.06.663,jersey_experiment_5_v2,2023.2.2,Win32,84.03361345,,,,,,,,,,,,,,,,401.7952,403.6423,403.6425,407.4423,return,2.3161,,66.53645833,,,,,,FBP-PT-71.png,0.4,1.2,3,0.25,0,20,20,2,1,,,,,,,,,,,,,,,,,,,,,,,,,,,,,,,,,,,,,,,,
,,,,,V2_002,18,Female,2024-02-27_13h25.06.663,jersey_experiment_5_v2,2023.2.2,Win32,84.03361345,,,,,,,,,,,,,,,,407.4426,409.5367,409.5369,411.6778,return,0.7882,,13.02083333,,,,,,FBP-RB-91.png,0.35,1.2,41,0.5,0,21,21,40,1,,,,,,,,,,,,,,,,,,,,,,,,,,,,,,,,,,,,,,,,
,,,,,V2_002,18,Female,2024-02-27_13h25.06.663,jersey_experiment_5_v2,2023.2.2,Win32,84.03361345,,,,,,,,,,,,,,,,411.6779,413.5251,413.5252,415.7603,return,0.8378,,94.921875,,,,,,FBP-PT-71.png,0.43,1.2,4,0.25,0,22,22,3,1,,,,,,,,,,,,,,,,,,,,,,,,,,,,,,,,,,,,,,,,
,,,,,V2_002,18,Female,2024-02-27_13h25.06.663,jersey_experiment_5_v2,2023.2.2,Win32,84.03361345,,,,,,,,,,,,,,,,415.7606,417.8548,417.8549,419.3839,return,0.6885,,49.73958333,,,,,,FBP-OG-81.png,0.4,1.2,23,0.5,0,23,23,22,1,,,,,,,,,,,,,,,,,,,,,,,,,,,,,,,,,,,,,,,,
,,,,,V2_002,18,Female,2024-02-27_13h25.06.663,jersey_experiment_5_v2,2023.2.2,Win32,84.03361345,,,,,,,,,,,,,,,,419.3841,421.4784,421.4786,423.2312,return,0.9295,,74.47916667,,,,,,FBP-RB-91.png,0.43,1.2,44,0.5,0,24,24,43,1,,,,,,,,,,,,,,,,,,,,,,,,,,,,,,,,,,,,,,,,
,,,,,V2_002,18,Female,2024-02-27_13h25.06.663,jersey_experiment_5_v2,2023.2.2,Win32,84.03361345,,,,,,,,,,,,,,,,423.2315,425.0901,425.0903,427.1961,return,0.746,,79.81770833,,,,,,FBP-PT-71.png,0.45,1.2,5,0.25,0,25,25,4,1,,,,,,,,,,,,,,,,,,,,,,,,,,,,,,,,,,,,,,,,
,,,,,V2_002,18,Female,2024-02-27_13h25.06.663,jersey_experiment_5_v2,2023.2.2,Win32,84.03361345,,,,,,,,,,,,,,,,427.1963,429.0432,429.0434,431.4551,return,0.6825,,71.09375,,,,,,FBP-PT-81.png,0.4,1.2,8,0.25,0,26,26,7,1,,,,,,,,,,,,,,,,,,,,,,,,,,,,,,,,,,,,,,,,
,,,,,V2_002,18,Female,2024-02-27_13h25.06.663,jersey_experiment_5_v2,2023.2.2,Win32,84.03361345,,,,,,,,,,,,,,,,431.4554,433.5494,433.5496,435.314,return,0.672,,6.640625,,,,,,FBP-OG-91.png,0.37,1.2,27,0.5,0,27,27,26,1,,,,,,,,,,,,,,,,,,,,,,,,,,,,,,,,,,,,,,,,
,,,,,V2_002,18,Female,2024-02-27_13h25.06.663,jersey_experiment_5_v2,2023.2.2,Win32,84.03361345,,,,,,,,,,,,,,,,435.3143,437.42,437.4202,438.9848,return,0.7492,,14.84375,,,,,,FBP-OG-81.png,0.37,1.2,22,0.5,0,28,28,21,1,,,,,,,,,,,,,,,,,,,,,,,,,,,,,,,,,,,,,,,,
,,,,,V2_002,18,Female,2024-02-27_13h25.06.663,jersey_experiment_5_v2,2023.2.2,Win32,84.03361345,,,,,,,,,,,,,,,,438.985,441.0792,441.0794,443.3731,return,0.8367,,34.24479167,,,,,,FBP-YG-19.png,0.4,1.2,58,0.5,0,29,29,57,1,,,,,,,,,,,,,,,,,,,,,,,,,,,,,,,,,,,,,,,,
,,,,,V2_002,18,Female,2024-02-27_13h25.06.663,jersey_experiment_5_v2,2023.2.2,Win32,84.03361345,,,,,,,,,,,,,,,,443.3734,445.4675,445.4677,447.2557,return,0.7009,,67.96875,,,,,,FBP-OG-91.png,0.4,1.2,28,0.5,0,30,30,27,1,,,,,,,,,,,,,,,,,,,,,,,,,,,,,,,,,,,,,,,,
,,,,,V2_002,18,Female,2024-02-27_13h25.06.663,jersey_experiment_5_v2,2023.2.2,Win32,84.03361345,,,,,,,,,,,,,,,,447.2558,449.3499,449.35,451.2911,return,0.7234,,22.52604167,,,,,,FBP-OG-81.png,0.35,1.2,21,0.5,0,31,31,20,1,,,,,,,,,,,,,,,,,,,,,,,,,,,,,,,,,,,,,,,,
,,,,,V2_002,18,Female,2024-02-27_13h25.06.663,jersey_experiment_5_v2,2023.2.2,Win32,84.03361345,,,,,,,,,,,,,,,,451.2913,453.1499,453.1502,456.3149,return,0.722,,37.109375,,,,,,FBP-PT-81.png,0.45,1.2,10,0.25,0,32,32,9,1,,,,,,,,,,,,,,,,,,,,,,,,,,,,,,,,,,,,,,,,
,,,,,V2_002,18,Female,2024-02-27_13h25.06.663,jersey_experiment_5_v2,2023.2.2,Win32,84.03361345,,,,,,,,,,,,,,,,456.3151,458.4091,458.4093,460.6208,return,0.7804,,7.03125,,,,,,FBP-YG-17.png,0.35,1.2,46,0.5,0,33,33,45,1,,,,,,,,,,,,,,,,,,,,,,,,,,,,,,,,,,,,,,,,
,,,,,V2_002,18,Female,2024-02-27_13h25.06.663,jersey_experiment_5_v2,2023.2.2,Win32,84.03361345,,,,,,,,,,,,,,,,460.621,462.468,462.4682,464.268,return,0.687,,4.557291667,,,,,,FBP-PT-91.png,0.35,1.2,11,0.25,0,34,34,10,1,,,,,,,,,,,,,,,,,,,,,,,,,,,,,,,,,,,,,,,,
,,,,,V2_002,18,Female,2024-02-27_13h25.06.663,jersey_experiment_5_v2,2023.2.2,Win32,84.03361345,,,,,,,,,,,,,,,,464.2682,466.3623,466.3625,467.8799,return,0.6323,,89.58333333,,,,,,FBP-YG-17.png,0.45,1.2,50,0.5,0,35,35,49,1,,,,,,,,,,,,,,,,,,,,,,,,,,,,,,,,,,,,,,,,
,,,,,V2_002,18,Female,2024-02-27_13h25.06.663,jersey_experiment_5_v2,2023.2.2,Win32,84.03361345,,,,,,,,,,,,,,,,467.8801,469.9859,469.9861,472.1271,return,0.5999,,64.453125,,,,,,FBP-YG-19.png,0.37,1.2,57,0.5,0,36,36,56,1,,,,,,,,,,,,,,,,,,,,,,,,,,,,,,,,,,,,,,,,
,,,,,V2_002,18,Female,2024-02-27_13h25.06.663,jersey_experiment_5_v2,2023.2.2,Win32,84.03361345,,,,,,,,,,,,,,,,472.1273,474.2214,474.2215,475.7391,return,0.7088,,75.390625,,,,,,FBP-RB-71.png,0.4,1.2,33,0.5,0,37,37,32,1,,,,,,,,,,,,,,,,,,,,,,,,,,,,,,,,,,,,,,,,
,,,,,V2_002,18,Female,2024-02-27_13h25.06.663,jersey_experiment_5_v2,2023.2.2,Win32,84.03361345,,,,,,,,,,,,,,,,475.7393,477.8334,477.8336,480.751,return,0.6819,,40.10416667,,,,,,FBP-OG-71.png,0.35,1.2,16,0.5,0,38,38,15,1,,,,,,,,,,,,,,,,,,,,,,,,,,,,,,,,,,,,,,,,
,,,,,V2_002,18,Female,2024-02-27_13h25.06.663,jersey_experiment_5_v2,2023.2.2,Win32,84.03361345,,,,,,,,,,,,,,,,480.7513,482.8453,482.8456,484.5394,return,0.7332,,66.53645833,,,,,,FBP-RB-81.png,0.4,1.2,38,0.5,0,39,39,37,1,,,,,,,,,,,,,,,,,,,,,,,,,,,,,,,,,,,,,,,,
,,,,,V2_002,18,Female,2024-02-27_13h25.06.663,jersey_experiment_5_v2,2023.2.2,Win32,84.03361345,,,,,,,,,,,,,,,,484.5396,486.6453,486.6456,488.8925,return,0.6987,,83.33333333,,,,,,FBP-RB-71.png,0.43,1.2,34,0.5,0,40,40,33,1,,,,,,,,,,,,,,,,,,,,,,,,,,,,,,,,,,,,,,,,
,,,,,V2_002,18,Female,2024-02-27_13h25.06.663,jersey_experiment_5_v2,2023.2.2,Win32,84.03361345,,,,,,,,,,,,,,,,488.8927,490.9868,490.987,492.6339,return,0.7113,,91.796875,,,,,,FBP-OG-71.png,0.45,1.2,20,0.5,0,41,41,19,1,,,,,,,,,,,,,,,,,,,,,,,,,,,,,,,,,,,,,,,,
,,,,,V2_002,18,Female,2024-02-27_13h25.06.663,jersey_experiment_5_v2,2023.2.2,Win32,84.03361345,,,,,,,,,,,,,,,,492.6341,494.7397,494.7399,496.2105,return,0.7191,,92.31770833,,,,,,FBP-OG-71.png,0.43,1.2,19,0.5,0,42,42,18,1,,,,,,,,,,,,,,,,,,,,,,,,,,,,,,,,,,,,,,,,
,,,,,V2_002,18,Female,2024-02-27_13h25.06.663,jersey_experiment_5_v2,2023.2.2,Win32,84.03361345,,,,,,,,,,,,,,,,496.2106,498.0576,498.0578,500.0341,return,0.6922,,38.15104167,,,,,,FBP-PT-71.png,0.37,1.2,2,0.25,0,43,43,1,1,,,,,,,,,,,,,,,,,,,,,,,,,,,,,,,,,,,,,,,,
,,,,,V2_002,18,Female,2024-02-27_13h25.06.663,jersey_experiment_5_v2,2023.2.2,Win32,84.03361345,,,,,,,,,,,,,,,,500.0343,501.8813,501.8815,503.6812,return,0.8578,,49.34895833,,,,,,FBP-PT-81.png,0.37,1.2,7,0.25,0,44,44,6,1,,,,,,,,,,,,,,,,,,,,,,,,,,,,,,,,,,,,,,,,
,,,,,V2_002,18,Female,2024-02-27_13h25.06.663,jersey_experiment_5_v2,2023.2.2,Win32,84.03361345,,,,,,,,,,,,,,,,503.6814,505.7755,505.7757,507.4697,return,0.7425,,25.52083333,,,,,,FBP-OG-71.png,0.37,1.2,17,0.5,0,45,45,16,1,,,,,,,,,,,,,,,,,,,,,,,,,,,,,,,,,,,,,,,,
,,,,,V2_002,18,Female,2024-02-27_13h25.06.663,jersey_experiment_5_v2,2023.2.2,Win32,84.03361345,,,,,,,,,,,,,,,,507.47,509.3168,509.317,511.9992,return,1.9296,,15.49479167,,,,,,FBP-PT-81.png,0.35,1.2,6,0.25,0,46,46,5,1,,,,,,,,,,,,,,,,,,,,,,,,,,,,,,,,,,,,,,,,
,,,,,V2_002,18,Female,2024-02-27_13h25.06.663,jersey_experiment_5_v2,2023.2.2,Win32,84.03361345,,,,,,,,,,,,,,,,511.9994,514.0936,514.0938,515.8346,return,0.7708,,92.96875,,,,,,FBP-OG-81.png,0.45,1.2,25,0.5,0,47,47,24,1,,,,,,,,,,,,,,,,,,,,,,,,,,,,,,,,,,,,,,,,
,,,,,V2_002,18,Female,2024-02-27_13h25.06.663,jersey_experiment_5_v2,2023.2.2,Win32,84.03361345,,,,,,,,,,,,,,,,515.8349,517.682,517.6821,519.2348,return,0.7529,,79.03645833,,,,,,FBP-PT-91.png,0.43,1.2,14,0.25,0,48,48,13,1,,,,,,,,,,,,,,,,,,,,,,,,,,,,,,,,,,,,,,,,
,,,,,V2_002,18,Female,2024-02-27_13h25.06.663,jersey_experiment_5_v2,2023.2.2,Win32,84.03361345,,,,,,,,,,,,,,,,519.235,521.329,521.3292,522.9409,return,0.7321,,82.8125,,,,,,FBP-RB-81.png,0.43,1.2,39,0.5,0,49,49,38,1,,,,,,,,,,,,,,,,,,,,,,,,,,,,,,,,,,,,,,,,
,,,,,V2_002,18,Female,2024-02-27_13h25.06.663,jersey_experiment_5_v2,2023.2.2,Win32,84.03361345,,,,,,,,,,,,,,,,522.941,525.0351,525.0353,527.6821,return,1.8589,,71.74479167,,,,,,FBP-OG-71.png,0.4,1.2,18,0.5,0,50,50,17,1,,,,,,,,,,,,,,,,,,,,,,,,,,,,,,,,,,,,,,,,
,,,,,V2_002,18,Female,2024-02-27_13h25.06.663,jersey_experiment_5_v2,2023.2.2,Win32,84.03361345,,,,,,,,,,,,,,,,527.6824,529.7764,529.7765,532.6589,return,1.13,,35.28645833,,,,,,FBP-RB-81.png,0.35,1.2,36,0.5,0,51,51,35,1,,,,,,,,,,,,,,,,,,,,,,,,,,,,,,,,,,,,,,,,
,,,,,V2_002,18,Female,2024-02-27_13h25.06.663,jersey_experiment_5_v2,2023.2.2,Win32,84.03361345,,,,,,,,,,,,,,,,532.6591,534.7531,534.7534,536.3766,return,0.7115,,24.21875,,,,,,FBP-OG-91.png,0.35,1.2,26,0.5,0,52,52,25,1,,,,,,,,,,,,,,,,,,,,,,,,,,,,,,,,,,,,,,,,
,,,,,V2_002,18,Female,2024-02-27_13h25.06.663,jersey_experiment_5_v2,2023.2.2,Win32,84.03361345,,,,,,,,,,,,,,,,536.3769,538.4709,538.4713,540.6826,return,1.1238,,91.015625,,,,,,FBP-RB-91.png,0.4,1.2,43,0.5,0,53,53,42,1,,,,,,,,,,,,,,,,,,,,,,,,,,,,,,,,,,,,,,,,
,,,,,V2_002,18,Female,2024-02-27_13h25.06.663,jersey_experiment_5_v2,2023.2.2,Win32,84.03361345,,,,,,,,,,,,,,,,540.6828,542.777,542.7772,544.6592,return,0.8254,,8.333333333,,,,,,FBP-RB-81.png,0.37,1.2,37,0.5,0,54,54,36,1,,,,,,,,,,,,,,,,,,,,,,,,,,,,,,,,,,,,,,,,
,,,,,V2_002,18,Female,2024-02-27_13h25.06.663,jersey_experiment_5_v2,2023.2.2,Win32,84.03361345,,,,,,,,,,,,,,,,544.6594,546.7653,546.7655,549.6006,return,1.718,,18.75,,,,,,FBP-RB-71.png,0.37,1.2,32,0.5,0,55,55,31,1,,,,,,,,,,,,,,,,,,,,,,,,,,,,,,,,,,,,,,,,
,,,,,V2_002,18,Female,2024-02-27_13h25.06.663,jersey_experiment_5_v2,2023.2.2,Win32,84.03361345,,,,,,,,,,,,,,,,549.6009,551.695,551.6953,553.4477,return,0.7852,,90.88541667,,,,,,FBP-YG-18.png,0.43,1.2,54,0.5,0,56,56,53,1,,,,,,,,,,,,,,,,,,,,,,,,,,,,,,,,,,,,,,,,
,,,,,V2_002,18,Female,2024-02-27_13h25.06.663,jersey_experiment_5_v2,2023.2.2,Win32,84.03361345,,,,,,,,,,,,,,,,553.4479,555.2951,555.2953,557.0714,return,0.8012,,6.901041667,,,,,,FBP-PT-71.png,0.35,1.2,1,0.25,0,57,57,0,1,,,,,,,,,,,,,,,,,,,,,,,,,,,,,,,,,,,,,,,,
,,,,,V2_002,18,Female,2024-02-27_13h25.06.663,jersey_experiment_5_v2,2023.2.2,Win32,84.03361345,,,,,,,,,,,,,,,,557.0716,559.1656,559.1657,560.601,return,0.6664,,20.05208333,,,,,,FBP-RB-71.png,0.35,1.2,31,0.5,0,58,58,30,1,,,,,,,,,,,,,,,,,,,,,,,,,,,,,,,,,,,,,,,,
,,,,,V2_002,18,Female,2024-02-27_13h25.06.663,jersey_experiment_5_v2,2023.2.2,Win32,84.03361345,,,,,,,,,,,,,,,,560.6012,562.6953,562.6955,564.201,return,0.6429,,66.796875,,,,,,FBP-YG-18.png,0.4,1.2,53,0.5,0,59,59,52,1,,,,,,,,,,,,,,,,,,,,,,,,,,,,,,,,,,,,,,,,
,,,,,V2_002,18,Female,2024-02-27_13h25.06.663,jersey_experiment_5_v2,2023.2.2,Win32,84.03361345,,,,,,,,,,,,,,,,,,,,,,,,,,,,,,,,,,,,,,,564.2014,684.1941,,,,,,,,,,,,,,,,,,,,,,,,,,,,,,,,,,,,,,
,,,,,V2_002,18,Female,2024-02-27_13h25.06.663,jersey_experiment_5_v2,2023.2.2,Win32,84.03361345,,,,,,,,,,,,,,,,,,,,,,,,,,,,,,,,,,,,,,,,,684.1942,719.2424,return,35.0427,,,,,,,,,,,,,,,,,,,,,,,,,,,,,,,,,,
,,,,,V2_002,18,Female,2024-02-27_13h25.06.663,jersey_experiment_5_v2,2023.2.2,Win32,84.03361345,,,,,,,,,,,,,,,,719.2489,721.1011,721.1011,724.313,return,0.6416,,37.63020833,,,,,,FBP-RB-18.png,0.43,1.2,39,0.25,,,,,,,,,,,,,0,0,0,38,1,,,,,,,,,,,,,,,,,,,,,,,,,,,,
,,,,,V2_002,18,Female,2024-02-27_13h25.06.663,jersey_experiment_5_v2,2023.2.2,Win32,84.03361345,,,,,,,,,,,,,,,,724.3134,726.172,726.1722,727.7601,return,0.622,,26.69270833,,,,,,FBP-RB-18.png,0.4,1.2,38,0.25,,,,,,,,,,,,,0,1,1,37,1,,,,,,,,,,,,,,,,,,,,,,,,,,,,
,,,,,V2_002,18,Female,2024-02-27_13h25.06.663,jersey_experiment_5_v2,2023.2.2,Win32,84.03361345,,,,,,,,,,,,,,,,727.7603,729.8543,729.8545,731.4427,return,0.5643,,39.0625,,,,,,FBP-PT-17.png,0.37,1.2,2,0.5,,,,,,,,,,,,,0,2,2,1,1,,,,,,,,,,,,,,,,,,,,,,,,,,,,
,,,,,V2_002,18,Female,2024-02-27_13h25.06.663,jersey_experiment_5_v2,2023.2.2,Win32,84.03361345,,,,,,,,,,,,,,,,731.443,733.537,733.5372,734.9838,return,0.5499,,84.375,,,,,,FBP-PT-17.png,0.43,1.2,4,0.5,,,,,,,,,,,,,0,3,3,3,1,,,,,,,,,,,,,,,,,,,,,,,,,,,,
,,,,,V2_002,18,Female,2024-02-27_13h25.06.663,jersey_experiment_5_v2,2023.2.2,Win32,84.03361345,,,,,,,,,,,,,,,,734.9839,736.8311,736.8312,738.4428,return,0.5575,,66.40625,,,,,,FBP-RB-17.png,0.43,1.2,34,0.25,,,,,,,,,,,,,0,4,4,33,1,,,,,,,,,,,,,,,,,,,,,,,,,,,,
,,,,,V2_002,18,Female,2024-02-27_13h25.06.663,jersey_experiment_5_v2,2023.2.2,Win32,84.03361345,,,,,,,,,,,,,,,,738.443,740.2902,740.2905,741.9607,return,0.5944,,86.45833333,,,,,,FBP-RB-19.png,0.45,1.2,45,0.25,,,,,,,,,,,,,0,5,5,44,1,,,,,,,,,,,,,,,,,,,,,,,,,,,,
,,,,,V2_002,18,Female,2024-02-27_13h25.06.663,jersey_experiment_5_v2,2023.2.2,Win32,84.03361345,,,,,,,,,,,,,,,,741.9608,743.8078,743.808,745.3726,return,0.6146,,70.18229167,,,,,,FBP-YG-71.png,0.4,1.2,48,0.25,,,,,,,,,,,,,0,6,6,47,1,,,,,,,,,,,,,,,,,,,,,,,,,,,,
,,,,,V2_002,18,Female,2024-02-27_13h25.06.663,jersey_experiment_5_v2,2023.2.2,Win32,84.03361345,,,,,,,,,,,,,,,,745.3728,747.2316,747.2318,748.9138,return,0.6825,,91.14583333,,,,,,FBP-YG-81.png,0.43,1.2,54,0.25,,,,,,,,,,,,,0,7,7,53,1,,,,,,,,,,,,,,,,,,,,,,,,,,,,
,,,,,V2_002,18,Female,2024-02-27_13h25.06.663,jersey_experiment_5_v2,2023.2.2,Win32,84.03361345,,,,,,,,,,,,,,,,748.914,750.7611,750.7613,752.62,return,0.5577,,8.463541667,,,,,,FBP-YG-91.png,0.37,1.2,57,0.25,,,,,,,,,,,,,0,8,8,56,1,,,,,,,,,,,,,,,,,,,,,,,,,,,,
,,,,,V2_002,18,Female,2024-02-27_13h25.06.663,jersey_experiment_5_v2,2023.2.2,Win32,84.03361345,,,,,,,,,,,,,,,,752.6201,754.7143,754.7145,756.2906,return,0.6728,,49.609375,,,,,,FBP-PT-18.png,0.4,1.2,8,0.5,,,,,,,,,,,,,0,9,9,7,1,,,,,,,,,,,,,,,,,,,,,,,,,,,,
,,,,,V2_002,18,Female,2024-02-27_13h25.06.663,jersey_experiment_5_v2,2023.2.2,Win32,84.03361345,,,,,,,,,,,,,,,,756.2909,758.1378,758.1379,759.6083,return,0.6786,,61.58854167,,,,,,FBP-RB-19.png,0.4,1.2,43,0.25,,,,,,,,,,,,,0,10,10,42,1,,,,,,,,,,,,,,,,,,,,,,,,,,,,
,,,,,V2_002,18,Female,2024-02-27_13h25.06.663,jersey_experiment_5_v2,2023.2.2,Win32,84.03361345,,,,,,,,,,,,,,,,759.6086,761.7026,761.7029,763.5497,return,0.6149,,65.49479167,,,,,,FBP-PT-19.png,0.4,1.2,13,0.5,,,,,,,,,,,,,0,11,11,12,1,,,,,,,,,,,,,,,,,,,,,,,,,,,,
,,,,,V2_002,18,Female,2024-02-27_13h25.06.663,jersey_experiment_5_v2,2023.2.2,Win32,84.03361345,,,,,,,,,,,,,,,,763.5498,765.3968,765.397,766.6557,return,0.5998,,74.34895833,,,,,,FBP-OG-17.png,0.4,1.2,18,0.25,,,,,,,,,,,,,0,12,12,17,1,,,,,,,,,,,,,,,,,,,,,,,,,,,,
,,,,,V2_002,18,Female,2024-02-27_13h25.06.663,jersey_experiment_5_v2,2023.2.2,Win32,84.03361345,,,,,,,,,,,,,,,,766.6559,768.7499,768.7501,770.444,return,0.6738,,89.58333333,,,,,,FBP-PT-18.png,0.45,1.2,10,0.5,,,,,,,,,,,,,0,13,13,9,1,,,,,,,,,,,,,,,,,,,,,,,,,,,,
,,,,,V2_002,18,Female,2024-02-27_13h25.06.663,jersey_experiment_5_v2,2023.2.2,Win32,84.03361345,,,,,,,,,,,,,,,,770.4442,772.3029,772.3031,773.4207,return,0.6368,,93.09895833,,,,,,FBP-OG-17.png,0.45,1.2,20,0.25,,,,,,,,,,,,,0,14,14,19,1,,,,,,,,,,,,,,,,,,,,,,,,,,,,
,,,,,V2_002,18,Female,2024-02-27_13h25.06.663,jersey_experiment_5_v2,2023.2.2,Win32,84.03361345,,,,,,,,,,,,,,,,773.421,775.2796,775.2798,777.3267,return,0.6819,,23.56770833,,,,,,FBP-YG-81.png,0.37,1.2,52,0.25,,,,,,,,,,,,,0,15,15,51,1,,,,,,,,,,,,,,,,,,,,,,,,,,,,
,,,,,V2_002,18,Female,2024-02-27_13h25.06.663,jersey_experiment_5_v2,2023.2.2,Win32,84.03361345,,,,,,,,,,,,,,,,777.3268,779.1857,779.1858,780.9621,return,0.6679,,36.84895833,,,,,,FBP-OG-19.png,0.4,1.2,28,0.25,,,,,,,,,,,,,0,16,16,27,1,,,,,,,,,,,,,,,,,,,,,,,,,,,,
,,,,,V2_002,18,Female,2024-02-27_13h25.06.663,jersey_experiment_5_v2,2023.2.2,Win32,84.03361345,,,,,,,,,,,,,,,,780.9623,782.8095,782.8097,784.4564,return,0.6316,,90.75520833,,,,,,FBP-YG-81.png,0.45,1.2,55,0.25,,,,,,,,,,,,,0,17,17,54,1,,,,,,,,,,,,,,,,,,,,,,,,,,,,
,,,,,V2_002,18,Female,2024-02-27_13h25.06.663,jersey_experiment_5_v2,2023.2.2,Win32,84.03361345,,,,,,,,,,,,,,,,784.4565,786.3034,786.3035,787.8212,return,0.58,,14.0625,,,,,,FBP-OG-17.png,0.37,1.2,17,0.25,,,,,,,,,,,,,0,18,18,16,1,,,,,,,,,,,,,,,,,,,,,,,,,,,,
,,,,,V2_002,18,Female,2024-02-27_13h25.06.663,jersey_experiment_5_v2,2023.2.2,Win32,84.03361345,,,,,,,,,,,,,,,,787.8213,789.6684,789.6686,791.5154,return,0.6159,,31.640625,,,,,,FBP-RB-17.png,0.37,1.2,32,0.25,,,,,,,,,,,,,0,19,19,31,1,,,,,,,,,,,,,,,,,,,,,,,,,,,,
,,,,,V2_002,18,Female,2024-02-27_13h25.06.663,jersey_experiment_5_v2,2023.2.2,Win32,84.03361345,,,,,,,,,,,,,,,,791.5157,793.6099,793.6101,795.245,return,0.579,,10.546875,,,,,,FBP-PT-19.png,0.35,1.2,11,0.5,,,,,,,,,,,,,0,20,20,10,1,,,,,,,,,,,,,,,,,,,,,,,,,,,,
,,,,,V2_002,18,Female,2024-02-27_13h25.06.663,jersey_experiment_5_v2,2023.2.2,Win32,84.03361345,,,,,,,,,,,,,,,,795.2452,797.3392,797.3394,799.3628,return,0.599,,14.58333333,,,,,,FBP-PT-18.png,0.35,1.2,6,0.5,,,,,,,,,,,,,0,21,21,5,1,,,,,,,,,,,,,,,,,,,,,,,,,,,,
,,,,,V2_002,18,Female,2024-02-27_13h25.06.663,jersey_experiment_5_v2,2023.2.2,Win32,84.03361345,,,,,,,,,,,,,,,,799.363,801.2216,801.2219,803.0218,return,0.5796,,4.557291667,,,,,,FBP-OG-18.png,0.35,1.2,21,0.25,,,,,,,,,,,,,0,22,22,20,1,,,,,,,,,,,,,,,,,,,,,,,,,,,,
,,,,,V2_002,18,Female,2024-02-27_13h25.06.663,jersey_experiment_5_v2,2023.2.2,Win32,84.03361345,,,,,,,,,,,,,,,,803.022,804.8689,804.869,806.4337,return,0.5636,,66.015625,,,,,,FBP-OG-18.png,0.43,1.2,24,0.25,,,,,,,,,,,,,0,23,23,23,1,,,,,,,,,,,,,,,,,,,,,,,,,,,,
,,,,,V2_002,18,Female,2024-02-27_13h25.06.663,jersey_experiment_5_v2,2023.2.2,Win32,84.03361345,,,,,,,,,,,,,,,,806.434,808.2808,808.281,809.7631,return,0.6826,,35.9375,,,,,,FBP-YG-81.png,0.35,1.2,51,0.25,,,,,,,,,,,,,0,24,24,50,1,,,,,,,,,,,,,,,,,,,,,,,,,,,,
,,,,,V2_002,18,Female,2024-02-27_13h25.06.663,jersey_experiment_5_v2,2023.2.2,Win32,84.03361345,,,,,,,,,,,,,,,,809.7633,811.8574,811.8576,813.0573,return,0.6357,,43.09895833,,,,,,FBP-PT-19.png,0.37,1.2,12,0.5,,,,,,,,,,,,,0,25,25,11,1,,,,,,,,,,,,,,,,,,,,,,,,,,,,
,,,,,V2_002,18,Female,2024-02-27_13h25.06.663,jersey_experiment_5_v2,2023.2.2,Win32,84.03361345,,,,,,,,,,,,,,,,813.0575,814.9046,814.9048,816.4812,return,0.6114,,85.02604167,,,,,,FBP-OG-19.png,0.45,1.2,30,0.25,,,,,,,,,,,,,0,26,26,29,1,,,,,,,,,,,,,,,,,,,,,,,,,,,,
,,,,,V2_002,18,Female,2024-02-27_13h25.06.663,jersey_experiment_5_v2,2023.2.2,Win32,84.03361345,,,,,,,,,,,,,,,,816.4813,818.3283,818.3284,819.9282,return,0.6202,,63.15104167,,,,,,FBP-YG-91.png,0.4,1.2,58,0.25,,,,,,,,,,,,,0,27,27,57,1,,,,,,,,,,,,,,,,,,,,,,,,,,,,
,,,,,V2_002,18,Female,2024-02-27_13h25.06.663,jersey_experiment_5_v2,2023.2.2,Win32,84.03361345,,,,,,,,,,,,,,,,819.9284,821.7755,821.7757,823.3401,return,0.6633,,94.921875,,,,,,FBP-YG-91.png,0.45,1.2,60,0.25,,,,,,,,,,,,,0,28,28,59,1,,,,,,,,,,,,,,,,,,,,,,,,,,,,
,,,,,V2_002,18,Female,2024-02-27_13h25.06.663,jersey_experiment_5_v2,2023.2.2,Win32,84.03361345,,,,,,,,,,,,,,,,823.3404,825.1874,825.1877,827.0579,return,0.6695,,27.99479167,,,,,,FBP-YG-71.png,0.37,1.2,47,0.25,,,,,,,,,,,,,0,29,29,46,1,,,,,,,,,,,,,,,,,,,,,,,,,,,,
,,,,,V2_002,18,Female,2024-02-27_13h25.06.663,jersey_experiment_5_v2,2023.2.2,Win32,84.03361345,,,,,,,,,,,,,,,,827.058,828.9053,828.9056,831.411,return,1.2011,,63.54166667,,,,,,FBP-RB-17.png,0.4,1.2,33,0.25,,,,,,,,,,,,,0,30,30,32,1,,,,,,,,,,,,,,,,,,,,,,,,,,,,
,,,,,V2_002,18,Female,2024-02-27_13h25.06.663,jersey_experiment_5_v2,2023.2.2,Win32,84.03361345,,,,,,,,,,,,,,,,831.4112,833.2584,833.2585,834.623,return,0.6487,,29.55729167,,,,,,FBP-OG-19.png,0.35,1.2,26,0.25,,,,,,,,,,,,,0,31,31,25,1,,,,,,,,,,,,,,,,,,,,,,,,,,,,
,,,,,V2_002,18,Female,2024-02-27_13h25.06.663,jersey_experiment_5_v2,2023.2.2,Win32,84.03361345,,,,,,,,,,,,,,,,834.6231,836.7173,836.7174,838.4465,return,0.708,,88.15104167,,,,,,FBP-PT-18.png,0.43,1.2,9,0.5,,,,,,,,,,,,,0,32,32,8,1,,,,,,,,,,,,,,,,,,,,,,,,,,,,
,,,,,V2_002,18,Female,2024-02-27_13h25.06.663,jersey_experiment_5_v2,2023.2.2,Win32,84.03361345,,,,,,,,,,,,,,,,838.4468,840.3054,840.3057,841.576,return,0.5731,,80.859375,,,,,,FBP-YG-91.png,0.43,1.2,59,0.25,,,,,,,,,,,,,0,33,33,58,1,,,,,,,,,,,,,,,,,,,,,,,,,,,,
,,,,,V2_002,18,Female,2024-02-27_13h25.06.663,jersey_experiment_5_v2,2023.2.2,Win32,84.03361345,,,,,,,,,,,,,,,,841.5762,843.6703,843.6705,845.3293,return,0.6114,,39.97395833,,,,,,FBP-PT-18.png,0.37,1.2,7,0.5,,,,,,,,,,,,,0,34,34,6,1,,,,,,,,,,,,,,,,,,,,,,,,,,,,
,,,,,V2_002,18,Female,2024-02-27_13h25.06.663,jersey_experiment_5_v2,2023.2.2,Win32,84.03361345,,,,,,,,,,,,,,,,845.3294,847.4353,847.4354,848.8587,return,0.5694,,96.484375,,,,,,FBP-PT-19.png,0.45,1.2,15,0.5,,,,,,,,,,,,,0,35,35,14,1,,,,,,,,,,,,,,,,,,,,,,,,,,,,
,,,,,V2_002,18,Female,2024-02-27_13h25.06.663,jersey_experiment_5_v2,2023.2.2,Win32,84.03361345,,,,,,,,,,,,,,,,848.859,850.706,850.7062,852.447,return,0.6606,,27.86458333,,,,,,FBP-YG-71.png,0.35,1.2,46,0.25,,,,,,,,,,,,,0,36,36,45,1,,,,,,,,,,,,,,,,,,,,,,,,,,,,
,,,,,V2_002,18,Female,2024-02-27_13h25.06.663,jersey_experiment_5_v2,2023.2.2,Win32,84.03361345,,,,,,,,,,,,,,,,852.4472,854.2944,854.2947,856.1884,return,0.6024,,88.54166667,,,,,,FBP-RB-17.png,0.45,1.2,35,0.25,,,,,,,,,,,,,0,37,37,34,1,,,,,,,,,,,,,,,,,,,,,,,,,,,,
,,,,,V2_002,18,Female,2024-02-27_13h25.06.663,jersey_experiment_5_v2,2023.2.2,Win32,84.03361345,,,,,,,,,,,,,,,,856.1886,858.0475,858.0476,859.4827,return,0.6518,,75.65104167,,,,,,FBP-OG-17.png,0.43,1.2,19,0.25,,,,,,,,,,,,,0,38,38,18,1,,,,,,,,,,,,,,,,,,,,,,,,,,,,
,,,,,V2_002,18,Female,2024-02-27_13h25.06.663,jersey_experiment_5_v2,2023.2.2,Win32,84.03361345,,,,,,,,,,,,,,,,859.4829,861.577,861.5771,863.1769,return,0.6665,,86.97916667,,,,,,FBP-PT-19.png,0.43,1.2,14,0.5,,,,,,,,,,,,,0,39,39,13,1,,,,,,,,,,,,,,,,,,,,,,,,,,,,
,,,,,V2_002,18,Female,2024-02-27_13h25.06.663,jersey_experiment_5_v2,2023.2.2,Win32,84.03361345,,,,,,,,,,,,,,,,863.1771,865.0241,865.0242,867.2123,return,0.6513,,24.73958333,,,,,,FBP-RB-17.png,0.35,1.2,31,0.25,,,,,,,,,,,,,0,40,40,30,1,,,,,,,,,,,,,,,,,,,,,,,,,,,,
,,,,,V2_002,18,Female,2024-02-27_13h25.06.663,jersey_experiment_5_v2,2023.2.2,Win32,84.03361345,,,,,,,,,,,,,,,,867.2126,869.0596,869.0598,870.6008,return,0.5943,,41.14583333,,,,,,FBP-YG-81.png,0.4,1.2,53,0.25,,,,,,,,,,,,,0,41,41,52,1,,,,,,,,,,,,,,,,,,,,,,,,,,,,
,,,,,V2_002,18,Female,2024-02-27_13h25.06.663,jersey_experiment_5_v2,2023.2.2,Win32,84.03361345,,,,,,,,,,,,,,,,870.601,872.4478,872.448,874.0832,return,0.683,,48.95833333,,,,,,FBP-RB-18.png,0.37,1.2,37,0.25,,,,,,,,,,,,,0,42,42,36,1,,,,,,,,,,,,,,,,,,,,,,,,,,,,
,,,,,V2_002,18,Female,2024-02-27_13h25.06.663,jersey_experiment_5_v2,2023.2.2,Win32,84.03361345,,,,,,,,,,,,,,,,874.0835,875.9423,875.9425,877.9775,return,0.6288,,68.359375,,,,,,FBP-OG-18.png,0.4,1.2,23,0.25,,,,,,,,,,,,,0,43,43,22,1,,,,,,,,,,,,,,,,,,,,,,,,,,,,
,,,,,V2_002,18,Female,2024-02-27_13h25.06.663,jersey_experiment_5_v2,2023.2.2,Win32,84.03361345,,,,,,,,,,,,,,,,877.9776,879.8246,879.8249,881.7541,return,0.6159,,74.34895833,,,,,,FBP-RB-18.png,0.45,1.2,40,0.25,,,,,,,,,,,,,0,44,44,39,1,,,,,,,,,,,,,,,,,,,,,,,,,,,,
,,,,,V2_002,18,Female,2024-02-27_13h25.06.663,jersey_experiment_5_v2,2023.2.2,Win32,84.03361345,,,,,,,,,,,,,,,,881.7544,883.6012,883.6015,885.166,return,0.7205,,49.34895833,,,,,,FBP-RB-19.png,0.37,1.2,42,0.25,,,,,,,,,,,,,0,45,45,41,1,,,,,,,,,,,,,,,,,,,,,,,,,,,,
,,,,,V2_002,18,Female,2024-02-27_13h25.06.663,jersey_experiment_5_v2,2023.2.2,Win32,84.03361345,,,,,,,,,,,,,,,,885.1662,887.0132,887.0135,889.1073,return,0.6924,,36.84895833,,,,,,FBP-RB-18.png,0.35,1.2,36,0.25,,,,,,,,,,,,,0,46,46,35,1,,,,,,,,,,,,,,,,,,,,,,,,,,,,
,,,,,V2_002,18,Female,2024-02-27_13h25.06.663,jersey_experiment_5_v2,2023.2.2,Win32,84.03361345,,,,,,,,,,,,,,,,889.1075,890.9546,890.9547,892.531,return,0.6488,,28.77604167,,,,,,FBP-YG-91.png,0.35,1.2,56,0.25,,,,,,,,,,,,,0,47,47,55,1,,,,,,,,,,,,,,,,,,,,,,,,,,,,
,,,,,V2_002,18,Female,2024-02-27_13h25.06.663,jersey_experiment_5_v2,2023.2.2,Win32,84.03361345,,,,,,,,,,,,,,,,892.5312,894.6253,894.6256,896.3311,return,0.6748,,91.015625,,,,,,FBP-PT-17.png,0.45,1.2,5,0.5,,,,,,,,,,,,,0,48,48,4,1,,,,,,,,,,,,,,,,,,,,,,,,,,,,
,,,,,V2_002,18,Female,2024-02-27_13h25.06.663,jersey_experiment_5_v2,2023.2.2,Win32,84.03361345,,,,,,,,,,,,,,,,896.3313,898.1782,898.1785,901.6489,return,0.9519,,45.83333333,,,,,,FBP-OG-18.png,0.37,1.2,22,0.25,,,,,,,,,,,,,0,49,49,21,1,,,,,,,,,,,,,,,,,,,,,,,,,,,,
,,,,,V2_002,18,Female,2024-02-27_13h25.06.663,jersey_experiment_5_v2,2023.2.2,Win32,84.03361345,,,,,,,,,,,,,,,,901.6491,903.5077,903.508,905.0843,return,0.5796,,23.046875,,,,,,FBP-OG-17.png,0.35,1.2,16,0.25,,,,,,,,,,,,,0,50,50,15,1,,,,,,,,,,,,,,,,,,,,,,,,,,,,
,,,,,V2_002,18,Female,2024-02-27_13h25.06.663,jersey_experiment_5_v2,2023.2.2,Win32,84.03361345,,,,,,,,,,,,,,,,905.0846,906.9317,906.932,910.5552,return,2.5909,,72.52604167,,,,,,FBP-RB-19.png,0.43,1.2,44,0.25,,,,,,,,,,,,,0,51,51,43,1,,,,,,,,,,,,,,,,,,,,,,,,,,,,
,,,,,V2_002,18,Female,2024-02-27_13h25.06.663,jersey_experiment_5_v2,2023.2.2,Win32,84.03361345,,,,,,,,,,,,,,,,910.5554,912.414,912.4142,913.92,return,0.5412,,88.54166667,,,,,,FBP-YG-71.png,0.45,1.2,50,0.25,,,,,,,,,,,,,0,52,52,49,1,,,,,,,,,,,,,,,,,,,,,,,,,,,,
,,,,,V2_002,18,Female,2024-02-27_13h25.06.663,jersey_experiment_5_v2,2023.2.2,Win32,84.03361345,,,,,,,,,,,,,,,,913.9203,915.7673,915.7674,917.1317,return,0.603,,84.375,,,,,,FBP-OG-18.png,0.45,1.2,25,0.25,,,,,,,,,,,,,0,53,53,24,1,,,,,,,,,,,,,,,,,,,,,,,,,,,,
,,,,,V2_002,18,Female,2024-02-27_13h25.06.663,jersey_experiment_5_v2,2023.2.2,Win32,84.03361345,,,,,,,,,,,,,,,,917.1319,918.9791,918.9792,920.8025,return,0.7299,,28.25520833,,,,,,FBP-OG-19.png,0.37,1.2,27,0.25,,,,,,,,,,,,,0,54,54,26,1,,,,,,,,,,,,,,,,,,,,,,,,,,,,
,,,,,V2_002,18,Female,2024-02-27_13h25.06.663,jersey_experiment_5_v2,2023.2.2,Win32,84.03361345,,,,,,,,,,,,,,,,920.8026,922.6499,922.6501,924.3792,return,0.6512,,68.22916667,,,,,,FBP-YG-71.png,0.43,1.2,49,0.25,,,,,,,,,,,,,0,55,55,48,1,,,,,,,,,,,,,,,,,,,,,,,,,,,,
,,,,,V2_002,18,Female,2024-02-27_13h25.06.663,jersey_experiment_5_v2,2023.2.2,Win32,84.03361345,,,,,,,,,,,,,,,,924.3794,926.2264,926.2266,927.7558,return,0.652,,83.46354167,,,,,,FBP-OG-19.png,0.43,1.2,29,0.25,,,,,,,,,,,,,0,56,56,28,1,,,,,,,,,,,,,,,,,,,,,,,,,,,,
,,,,,V2_002,18,Female,2024-02-27_13h25.06.663,jersey_experiment_5_v2,2023.2.2,Win32,84.03361345,,,,,,,,,,,,,,,,927.756,929.8617,929.8619,931.3911,return,0.6454,,74.86979167,,,,,,FBP-PT-17.png,0.4,1.2,3,0.5,,,,,,,,,,,,,0,57,57,2,1,,,,,,,,,,,,,,,,,,,,,,,,,,,,
,,,,,V2_002,18,Female,2024-02-27_13h25.06.663,jersey_experiment_5_v2,2023.2.2,Win32,84.03361345,,,,,,,,,,,,,,,,931.3914,933.4855,933.4857,935.2971,return,0.706,,42.1875,,,,,,FBP-PT-17.png,0.35,1.2,1,0.5,,,,,,,,,,,,,0,58,58,0,1,,,,,,,,,,,,,,,,,,,,,,,,,,,,
,,,,,V2_002,18,Female,2024-02-27_13h25.06.663,jersey_experiment_5_v2,2023.2.2,Win32,84.03361345,,,,,,,,,,,,,,,,935.2974,937.1445,937.1447,939.0268,return,0.6601,,10.28645833,,,,,,FBP-RB-19.png,0.35,1.2,41,0.25,,,,,,,,,,,,,0,59,59,40,1,,,,,,,,,,,,,,,,,,,,,,,,,,,,
,,,,,V2_002,18,Female,2024-02-27_13h25.06.663,jersey_experiment_5_v2,2023.2.2,Win32,84.03361345,,,,,,,,,,,,,,,,939.0288,941.1211,941.1213,942.7211,return,0.6722,,50.26041667,,,,,,FBP-PT-91.png,0.4,1.2,13,0.5,,,,,,,,,,,,,,,,,,0,0,0,12,1,,,,,,,,,,,,,,,,,,,,,,,
,,,,,V2_002,18,Female,2024-02-27_13h25.06.663,jersey_experiment_5_v2,2023.2.2,Win32,84.03361345,,,,,,,,,,,,,,,,942.7217,944.5683,944.5685,945.9918,return,0.7029,,24.86979167,,,,,,FBP-RB-91.png,0.35,1.2,41,0.25,,,,,,,,,,,,,,,,,,0,1,1,40,1,,,,,,,,,,,,,,,,,,,,,,,
,,,,,V2_002,18,Female,2024-02-27_13h25.06.663,jersey_experiment_5_v2,2023.2.2,Win32,84.03361345,,,,,,,,,,,,,,,,945.992,948.0861,948.0863,950.0155,return,0.6588,,84.63541667,,,,,,FBP-PT-71.png,0.43,1.2,4,0.5,,,,,,,,,,,,,,,,,,0,2,2,3,1,,,,,,,,,,,,,,,,,,,,,,,
,,,,,V2_002,18,Female,2024-02-27_13h25.06.663,jersey_experiment_5_v2,2023.2.2,Win32,84.03361345,,,,,,,,,,,,,,,,950.0157,951.8627,951.8627,954.0274,return,0.6638,,89.71354167,,,,,,FBP-RB-91.png,0.45,1.2,45,0.25,,,,,,,,,,,,,,,,,,0,3,3,44,1,,,,,,,,,,,,,,,,,,,,,,,
,,,,,V2_002,18,Female,2024-02-27_13h25.06.663,jersey_experiment_5_v2,2023.2.2,Win32,84.03361345,,,,,,,,,,,,,,,,954.0275,955.8862,955.8865,958.2039,return,0.6755,,73.56770833,,,,,,FBP-YG-19.png,0.45,1.2,60,0.25,,,,,,,,,,,,,,,,,,0,4,4,59,1,,,,,,,,,,,,,,,,,,,,,,,
,,,,,V2_002,18,Female,2024-02-27_13h25.06.663,jersey_experiment_5_v2,2023.2.2,Win32,84.03361345,,,,,,,,,,,,,,,,958.2042,960.0512,960.0514,961.8041,return,0.6988,,25.26041667,,,,,,FBP-YG-18.png,0.35,1.2,51,0.25,,,,,,,,,,,,,,,,,,0,5,5,50,1,,,,,,,,,,,,,,,,,,,,,,,
,,,,,V2_002,18,Female,2024-02-27_13h25.06.663,jersey_experiment_5_v2,2023.2.2,Win32,84.03361345,,,,,,,,,,,,,,,,961.8044,963.6513,963.6513,965.3924,return,0.7298,,75.26041667,,,,,,FBP-RB-71.png,0.43,1.2,34,0.25,,,,,,,,,,,,,,,,,,0,6,6,33,1,,,,,,,,,,,,,,,,,,,,,,,
,,,,,V2_002,18,Female,2024-02-27_13h25.06.663,jersey_experiment_5_v2,2023.2.2,Win32,84.03361345,,,,,,,,,,,,,,,,965.3926,967.4866,967.4868,972.275,return,2.39,,32.68229167,,,,,,FBP-PT-81.png,0.35,1.2,6,0.5,,,,,,,,,,,,,,,,,,0,7,7,5,1,,,,,,,,,,,,,,,,,,,,,,,
,,,,,V2_002,18,Female,2024-02-27_13h25.06.663,jersey_experiment_5_v2,2023.2.2,Win32,84.03361345,,,,,,,,,,,,,,,,972.2752,974.1222,974.1225,977.6635,return,2.588,,77.86458333,,,,,,FBP-OG-91.png,0.43,1.2,29,0.25,,,,,,,,,,,,,,,,,,0,8,8,28,1,,,,,,,,,,,,,,,,,,,,,,,
,,,,,V2_002,18,Female,2024-02-27_13h25.06.663,jersey_experiment_5_v2,2023.2.2,Win32,84.03361345,,,,,,,,,,,,,,,,977.6637,979.5226,979.5227,981.4754,return,0.743,,35.28645833,,,,,,FBP-OG-71.png,0.35,1.2,16,0.25,,,,,,,,,,,,,,,,,,0,9,9,15,1,,,,,,,,,,,,,,,,,,,,,,,
,,,,,V2_002,18,Female,2024-02-27_13h25.06.663,jersey_experiment_5_v2,2023.2.2,Win32,84.03361345,,,,,,,,,,,,,,,,981.4758,983.3226,983.3228,985.1342,return,0.648,,64.97395833,,,,,,FBP-RB-71.png,0.4,1.2,33,0.25,,,,,,,,,,,,,,,,,,0,10,10,32,1,,,,,,,,,,,,,,,,,,,,,,,
,,,,,V2_002,18,Female,2024-02-27_13h25.06.663,jersey_experiment_5_v2,2023.2.2,Win32,84.03361345,,,,,,,,,,,,,,,,985.1344,986.9932,986.9933,989.8052,return,0.6835,,57.03125,,,,,,FBP-RB-71.png,0.37,1.2,32,0.25,,,,,,,,,,,,,,,,,,0,11,11,31,1,,,,,,,,,,,,,,,,,,,,,,,
,,,,,V2_002,18,Female,2024-02-27_13h25.06.663,jersey_experiment_5_v2,2023.2.2,Win32,84.03361345,,,,,,,,,,,,,,,,989.8054,991.6523,991.6526,993.1934,return,0.7719,,87.76041667,,,,,,FBP-OG-81.png,0.45,1.2,25,0.25,,,,,,,,,,,,,,,,,,0,12,12,24,1,,,,,,,,,,,,,,,,,,,,,,,
,,,,,V2_002,18,Female,2024-02-27_13h25.06.663,jersey_experiment_5_v2,2023.2.2,Win32,84.03361345,,,,,,,,,,,,,,,,993.1937,995.0407,995.0409,997.6406,return,0.9701,,37.63020833,,,,,,FBP-OG-91.png,0.35,1.2,26,0.25,,,,,,,,,,,,,,,,,,0,13,13,25,1,,,,,,,,,,,,,,,,,,,,,,,
,,,,,V2_002,18,Female,2024-02-27_13h25.06.663,jersey_experiment_5_v2,2023.2.2,Win32,84.03361345,,,,,,,,,,,,,,,,997.6408,999.7351,999.7353,1004.1116,return,1.9533,,78.515625,,,,,,FBP-PT-91.png,0.43,1.2,14,0.5,,,,,,,,,,,,,,,,,,0,14,14,13,1,,,,,,,,,,,,,,,,,,,,,,,
,,,,,V2_002,18,Female,2024-02-27_13h25.06.663,jersey_experiment_5_v2,2023.2.2,Win32,84.03361345,,,,,,,,,,,,,,,,1004.1118,1005.9587,1005.9589,1009.0058,return,1.531,,70.703125,,,,,,FBP-YG-19.png,0.4,1.2,58,0.25,,,,,,,,,,,,,,,,,,0,15,15,57,1,,,,,,,,,,,,,,,,,,,,,,,
,,,,,V2_002,18,Female,2024-02-27_13h25.06.663,jersey_experiment_5_v2,2023.2.2,Win32,84.03361345,,,,,,,,,,,,,,,,1009.0061,1010.8531,1010.8533,1012.8648,return,0.5636,,36.19791667,,,,,,FBP-OG-81.png,0.37,1.2,22,0.25,,,,,,,,,,,,,,,,,,0,16,16,21,1,,,,,,,,,,,,,,,,,,,,,,,
,,,,,V2_002,18,Female,2024-02-27_13h25.06.663,jersey_experiment_5_v2,2023.2.2,Win32,84.03361345,,,,,,,,,,,,,,,,1012.8651,1014.7119,1014.712,1016.5237,return,0.7345,,7.421875,,,,,,FBP-YG-19.png,0.35,1.2,56,0.25,,,,,,,,,,,,,,,,,,0,17,17,55,1,,,,,,,,,,,,,,,,,,,,,,,
,,,,,V2_002,18,Female,2024-02-27_13h25.06.663,jersey_experiment_5_v2,2023.2.2,Win32,84.03361345,,,,,,,,,,,,,,,,1016.5241,1018.371,1018.3712,1020.2415,return,0.646,,81.90104167,,,,,,FBP-RB-91.png,0.43,1.2,44,0.25,,,,,,,,,,,,,,,,,,0,18,18,43,1,,,,,,,,,,,,,,,,,,,,,,,
,,,,,V2_002,18,Female,2024-02-27_13h25.06.663,jersey_experiment_5_v2,2023.2.2,Win32,84.03361345,,,,,,,,,,,,,,,,1020.2417,1022.0886,1022.0889,1023.8888,return,0.6689,,89.84375,,,,,,FBP-OG-71.png,0.43,1.2,19,0.25,,,,,,,,,,,,,,,,,,0,19,19,18,1,,,,,,,,,,,,,,,,,,,,,,,
,,,,,V2_002,18,Female,2024-02-27_13h25.06.663,jersey_experiment_5_v2,2023.2.2,Win32,84.03361345,,,,,,,,,,,,,,,,1023.889,1025.736,1025.7363,1027.7712,return,0.626,,25,,,,,,FBP-OG-91.png,0.37,1.2,27,0.25,,,,,,,,,,,,,,,,,,0,20,20,26,1,,,,,,,,,,,,,,,,,,,,,,,
,,,,,V2_002,18,Female,2024-02-27_13h25.06.663,jersey_experiment_5_v2,2023.2.2,Win32,84.03361345,,,,,,,,,,,,,,,,1027.7714,1029.6185,1029.6188,1031.1597,return,0.6914,,10.9375,,,,,,FBP-OG-81.png,0.35,1.2,21,0.25,,,,,,,,,,,,,,,,,,0,21,21,20,1,,,,,,,,,,,,,,,,,,,,,,,
,,,,,V2_002,18,Female,2024-02-27_13h25.06.663,jersey_experiment_5_v2,2023.2.2,Win32,84.03361345,,,,,,,,,,,,,,,,1031.1598,1033.0069,1033.0072,1034.8891,return,0.7489,,49.21875,,,,,,FBP-YG-17.png,0.4,1.2,48,0.25,,,,,,,,,,,,,,,,,,0,22,22,47,1,,,,,,,,,,,,,,,,,,,,,,,
,,,,,V2_002,18,Female,2024-02-27_13h25.06.663,jersey_experiment_5_v2,2023.2.2,Win32,84.03361345,,,,,,,,,,,,,,,,1034.8893,1036.7363,1036.7364,1038.254,return,0.6366,,30.72916667,,,,,,FBP-YG-17.png,0.35,1.2,46,0.25,,,,,,,,,,,,,,,,,,0,23,23,45,1,,,,,,,,,,,,,,,,,,,,,,,
,,,,,V2_002,18,Female,2024-02-27_13h25.06.663,jersey_experiment_5_v2,2023.2.2,Win32,84.03361345,,,,,,,,,,,,,,,,1038.2542,1040.3483,1040.3485,1042.1364,return,0.7494,,83.984375,,,,,,FBP-PT-81.png,0.45,1.2,10,0.5,,,,,,,,,,,,,,,,,,0,24,24,9,1,,,,,,,,,,,,,,,,,,,,,,,
,,,,,V2_002,18,Female,2024-02-27_13h25.06.663,jersey_experiment_5_v2,2023.2.2,Win32,84.03361345,,,,,,,,,,,,,,,,1042.1366,1044.2308,1044.2309,1047.5837,return,2.3302,,33.07291667,,,,,,FBP-PT-91.png,0.37,1.2,12,0.5,,,,,,,,,,,,,,,,,,0,25,25,11,1,,,,,,,,,,,,,,,,,,,,,,,
,,,,,V2_002,18,Female,2024-02-27_13h25.06.663,jersey_experiment_5_v2,2023.2.2,Win32,84.03361345,,,,,,,,,,,,,,,,1047.5839,1049.4309,1049.431,1050.8308,return,0.5758,,35.02604167,,,,,,FBP-RB-91.png,0.37,1.2,42,0.25,,,,,,,,,,,,,,,,,,0,26,26,41,1,,,,,,,,,,,,,,,,,,,,,,,
,,,,,V2_002,18,Female,2024-02-27_13h25.06.663,jersey_experiment_5_v2,2023.2.2,Win32,84.03361345,,,,,,,,,,,,,,,,1050.8309,1052.6782,1052.6784,1054.3604,return,0.5968,,84.375,,,,,,FBP-RB-81.png,0.45,1.2,40,0.25,,,,,,,,,,,,,,,,,,0,27,27,39,1,,,,,,,,,,,,,,,,,,,,,,,
,,,,,V2_002,18,Female,2024-02-27_13h25.06.663,jersey_experiment_5_v2,2023.2.2,Win32,84.03361345,,,,,,,,,,,,,,,,1054.3607,1056.4547,1056.4549,1058.29,return,0.6824,,75.13020833,,,,,,FBP-PT-81.png,0.43,1.2,9,0.5,,,,,,,,,,,,,,,,,,0,28,28,8,1,,,,,,,,,,,,,,,,,,,,,,,
,,,,,V2_002,18,Female,2024-02-27_13h25.06.663,jersey_experiment_5_v2,2023.2.2,Win32,84.03361345,,,,,,,,,,,,,,,,1058.2902,1060.1374,1060.1376,1061.6901,return,0.7243,,82.55208333,,,,,,FBP-YG-19.png,0.43,1.2,59,0.25,,,,,,,,,,,,,,,,,,0,29,29,58,1,,,,,,,,,,,,,,,,,,,,,,,
,,,,,V2_002,18,Female,2024-02-27_13h25.06.663,jersey_experiment_5_v2,2023.2.2,Win32,84.03361345,,,,,,,,,,,,,,,,1061.6904,1063.7962,1063.7964,1065.3255,return,0.6718,,82.03125,,,,,,FBP-PT-71.png,0.4,1.2,3,0.5,,,,,,,,,,,,,,,,,,0,30,30,2,1,,,,,,,,,,,,,,,,,,,,,,,
,,,,,V2_002,18,Female,2024-02-27_13h25.06.663,jersey_experiment_5_v2,2023.2.2,Win32,84.03361345,,,,,,,,,,,,,,,,1065.3257,1067.4198,1067.42,1069.0904,return,0.6119,,91.66666667,,,,,,FBP-PT-71.png,0.45,1.2,5,0.5,,,,,,,,,,,,,,,,,,0,31,31,4,1,,,,,,,,,,,,,,,,,,,,,,,
,,,,,V2_002,18,Female,2024-02-27_13h25.06.663,jersey_experiment_5_v2,2023.2.2,Win32,84.03361345,,,,,,,,,,,,,,,,1069.0905,1071.1847,1071.1847,1072.7611,return,0.7135,,64.97395833,,,,,,FBP-PT-71.png,0.37,1.2,2,0.5,,,,,,,,,,,,,,,,,,0,32,32,1,1,,,,,,,,,,,,,,,,,,,,,,,
,,,,,V2_002,18,Female,2024-02-27_13h25.06.663,jersey_experiment_5_v2,2023.2.2,Win32,84.03361345,,,,,,,,,,,,,,,,1072.7613,1074.8554,1074.8555,1076.5847,return,0.5941,,64.453125,,,,,,FBP-PT-81.png,0.4,1.2,8,0.5,,,,,,,,,,,,,,,,,,0,33,33,7,1,,,,,,,,,,,,,,,,,,,,,,,
,,,,,V2_002,18,Female,2024-02-27_13h25.06.663,jersey_experiment_5_v2,2023.2.2,Win32,84.03361345,,,,,,,,,,,,,,,,1076.5848,1078.4319,1078.432,1080.0319,return,0.6594,,30.859375,,,,,,FBP-YG-18.png,0.37,1.2,52,0.25,,,,,,,,,,,,,,,,,,0,34,34,51,1,,,,,,,,,,,,,,,,,,,,,,,
,,,,,V2_002,18,Female,2024-02-27_13h25.06.663,jersey_experiment_5_v2,2023.2.2,Win32,84.03361345,,,,,,,,,,,,,,,,1080.032,1081.8791,1081.8792,1083.432,return,0.5957,,25.52083333,,,,,,FBP-OG-71.png,0.37,1.2,17,0.25,,,,,,,,,,,,,,,,,,0,35,35,16,1,,,,,,,,,,,,,,,,,,,,,,,
,,,,,V2_002,18,Female,2024-02-27_13h25.06.663,jersey_experiment_5_v2,2023.2.2,Win32,84.03361345,,,,,,,,,,,,,,,,1083.4322,1085.2793,1085.2794,1087.244,return,0.7223,,73.4375,,,,,,FBP-YG-17.png,0.43,1.2,49,0.25,,,,,,,,,,,,,,,,,,0,36,36,48,1,,,,,,,,,,,,,,,,,,,,,,,
,,,,,V2_002,18,Female,2024-02-27_13h25.06.663,jersey_experiment_5_v2,2023.2.2,Win32,84.03361345,,,,,,,,,,,,,,,,1087.2443,1089.1029,1089.1032,1091.4912,return,1.2945,,57.16145833,,,,,,FBP-RB-81.png,0.37,1.2,37,0.25,,,,,,,,,,,,,,,,,,0,37,37,36,1,,,,,,,,,,,,,,,,,,,,,,,
,,,,,V2_002,18,Female,2024-02-27_13h25.06.663,jersey_experiment_5_v2,2023.2.2,Win32,84.03361345,,,,,,,,,,,,,,,,1091.4915,1093.3502,1093.3504,1095.0325,return,0.6652,,84.11458333,,,,,,FBP-OG-71.png,0.45,1.2,20,0.25,,,,,,,,,,,,,,,,,,0,38,38,19,1,,,,,,,,,,,,,,,,,,,,,,,
,,,,,V2_002,18,Female,2024-02-27_13h25.06.663,jersey_experiment_5_v2,2023.2.2,Win32,84.03361345,,,,,,,,,,,,,,,,1095.0328,1096.8916,1096.8918,1098.7385,return,0.67,,3.645833333,,,,,,FBP-RB-81.png,0.35,1.2,36,0.25,,,,,,,,,,,,,,,,,,0,39,39,35,1,,,,,,,,,,,,,,,,,,,,,,,
,,,,,V2_002,18,Female,2024-02-27_13h25.06.663,jersey_experiment_5_v2,2023.2.2,Win32,84.03361345,,,,,,,,,,,,,,,,1098.7387,1100.5974,1100.5976,1102.3975,return,0.697,,85.9375,,,,,,FBP-RB-71.png,0.45,1.2,35,0.25,,,,,,,,,,,,,,,,,,0,40,40,34,1,,,,,,,,,,,,,,,,,,,,,,,
,,,,,V2_002,18,Female,2024-02-27_13h25.06.663,jersey_experiment_5_v2,2023.2.2,Win32,84.03361345,,,,,,,,,,,,,,,,1102.3977,1104.2446,1104.2448,1105.4798,return,0.6655,,91.27604167,,,,,,FBP-OG-91.png,0.45,1.2,30,0.25,,,,,,,,,,,,,,,,,,0,41,41,29,1,,,,,,,,,,,,,,,,,,,,,,,
,,,,,V2_002,18,Female,2024-02-27_13h25.06.663,jersey_experiment_5_v2,2023.2.2,Win32,84.03361345,,,,,,,,,,,,,,,,1105.48,1107.3272,1107.3274,1109.2094,return,0.7366,,11.06770833,,,,,,FBP-RB-71.png,0.35,1.2,31,0.25,,,,,,,,,,,,,,,,,,0,42,42,30,1,,,,,,,,,,,,,,,,,,,,,,,
,,,,,V2_002,18,Female,2024-02-27_13h25.06.663,jersey_experiment_5_v2,2023.2.2,Win32,84.03361345,,,,,,,,,,,,,,,,1109.2095,1111.0568,1111.057,1113.0686,return,1.063,,25,,,,,,FBP-YG-18.png,0.4,1.2,53,0.25,,,,,,,,,,,,,,,,,,0,43,43,52,1,,,,,,,,,,,,,,,,,,,,,,,
,,,,,V2_002,18,Female,2024-02-27_13h25.06.663,jersey_experiment_5_v2,2023.2.2,Win32,84.03361345,,,,,,,,,,,,,,,,1113.0688,1114.9157,1114.9159,1117.6569,return,0.6665,,45.44270833,,,,,,FBP-OG-91.png,0.4,1.2,28,0.25,,,,,,,,,,,,,,,,,,0,44,44,27,1,,,,,,,,,,,,,,,,,,,,,,,
,,,,,V2_002,18,Female,2024-02-27_13h25.06.663,jersey_experiment_5_v2,2023.2.2,Win32,84.03361345,,,,,,,,,,,,,,,,1117.6571,1119.7513,1119.7515,1121.4571,return,0.682,,27.86458333,,,,,,FBP-PT-91.png,0.35,1.2,11,0.5,,,,,,,,,,,,,,,,,,0,45,45,10,1,,,,,,,,,,,,,,,,,,,,,,,
,,,,,V2_002,18,Female,2024-02-27_13h25.06.663,jersey_experiment_5_v2,2023.2.2,Win32,84.03361345,,,,,,,,,,,,,,,,1121.4572,1123.5514,1123.5517,1125.1043,return,0.6585,,68.48958333,,,,,,FBP-PT-91.png,0.45,1.2,15,0.5,,,,,,,,,,,,,,,,,,0,46,46,14,1,,,,,,,,,,,,,,,,,,,,,,,
,,,,,V2_002,18,Female,2024-02-27_13h25.06.663,jersey_experiment_5_v2,2023.2.2,Win32,84.03361345,,,,,,,,,,,,,,,,1125.1045,1126.9514,1126.9515,1129.0338,return,0.7011,,87.76041667,,,,,,FBP-YG-17.png,0.45,1.2,50,0.25,,,,,,,,,,,,,,,,,,0,47,47,49,1,,,,,,,,,,,,,,,,,,,,,,,
,,,,,V2_002,18,Female,2024-02-27_13h25.06.663,jersey_experiment_5_v2,2023.2.2,Win32,84.03361345,,,,,,,,,,,,,,,,1129.0342,1130.8811,1130.8813,1133.5986,return,0.6255,,50.26041667,,,,,,FBP-YG-19.png,0.37,1.2,57,0.25,,,,,,,,,,,,,,,,,,0,48,48,56,1,,,,,,,,,,,,,,,,,,,,,,,
,,,,,V2_002,18,Female,2024-02-27_13h25.06.663,jersey_experiment_5_v2,2023.2.2,Win32,84.03361345,,,,,,,,,,,,,,,,1133.5988,1135.7048,1135.705,1137.0224,return,0.6483,,33.72395833,,,,,,FBP-PT-71.png,0.35,1.2,1,0.5,,,,,,,,,,,,,,,,,,0,49,49,0,1,,,,,,,,,,,,,,,,,,,,,,,
,,,,,V2_002,18,Female,2024-02-27_13h25.06.663,jersey_experiment_5_v2,2023.2.2,Win32,84.03361345,,,,,,,,,,,,,,,,1137.0225,1138.8696,1138.8698,1140.7989,return,0.6493,,88.80208333,,,,,,FBP-YG-18.png,0.43,1.2,54,0.25,,,,,,,,,,,,,,,,,,0,50,50,53,1,,,,,,,,,,,,,,,,,,,,,,,
,,,,,V2_002,18,Female,2024-02-27_13h25.06.663,jersey_experiment_5_v2,2023.2.2,Win32,84.03361345,,,,,,,,,,,,,,,,1140.7991,1142.6461,1142.6463,1144.5519,return,0.8411,,77.21354167,,,,,,FBP-YG-18.png,0.45,1.2,55,0.25,,,,,,,,,,,,,,,,,,0,51,51,54,1,,,,,,,,,,,,,,,,,,,,,,,
,,,,,V2_002,18,Female,2024-02-27_13h25.06.663,jersey_experiment_5_v2,2023.2.2,Win32,84.03361345,,,,,,,,,,,,,,,,1144.552,1146.3992,1146.3993,1148.258,return,0.6835,,68.359375,,,,,,FBP-RB-91.png,0.4,1.2,43,0.25,,,,,,,,,,,,,,,,,,0,52,52,42,1,,,,,,,,,,,,,,,,,,,,,,,
,,,,,V2_002,18,Female,2024-02-27_13h25.06.663,jersey_experiment_5_v2,2023.2.2,Win32,84.03361345,,,,,,,,,,,,,,,,1148.2582,1150.1169,1150.1171,1152.5052,return,0.5955,,59.375,,,,,,FBP-OG-71.png,0.4,1.2,18,0.25,,,,,,,,,,,,,,,,,,0,53,53,17,1,,,,,,,,,,,,,,,,,,,,,,,
,,,,,V2_002,18,Female,2024-02-27_13h25.06.663,jersey_experiment_5_v2,2023.2.2,Win32,84.03361345,,,,,,,,,,,,,,,,1152.5054,1154.5994,1154.5996,1156.1524,return,0.6777,,35.41666667,,,,,,FBP-PT-81.png,0.37,1.2,7,0.5,,,,,,,,,,,,,,,,,,0,54,54,6,1,,,,,,,,,,,,,,,,,,,,,,,
,,,,,V2_002,18,Female,2024-02-27_13h25.06.663,jersey_experiment_5_v2,2023.2.2,Win32,84.03361345,,,,,,,,,,,,,,,,1156.1525,1157.9995,1157.9997,1159.7761,return,0.6827,,71.74479167,,,,,,FBP-OG-81.png,0.43,1.2,24,0.25,,,,,,,,,,,,,,,,,,0,55,55,23,1,,,,,,,,,,,,,,,,,,,,,,,
,,,,,V2_002,18,Female,2024-02-27_13h25.06.663,jersey_experiment_5_v2,2023.2.2,Win32,84.03361345,,,,,,,,,,,,,,,,1159.7762,1161.6349,1161.6351,1162.9527,return,0.6539,,71.74479167,,,,,,FBP-OG-81.png,0.4,1.2,23,0.25,,,,,,,,,,,,,,,,,,0,56,56,22,1,,,,,,,,,,,,,,,,,,,,,,,
,,,,,V2_002,18,Female,2024-02-27_13h25.06.663,jersey_experiment_5_v2,2023.2.2,Win32,84.03361345,,,,,,,,,,,,,,,,1162.9529,1164.7998,1164.8001,1166.5411,return,0.6976,,62.109375,,,,,,FBP-RB-81.png,0.4,1.2,38,0.25,,,,,,,,,,,,,,,,,,0,57,57,37,1,,,,,,,,,,,,,,,,,,,,,,,
,,,,,V2_002,18,Female,2024-02-27_13h25.06.663,jersey_experiment_5_v2,2023.2.2,Win32,84.03361345,,,,,,,,,,,,,,,,1166.5414,1168.3881,1168.3883,1171.1295,return,0.5936,,35.28645833,,,,,,FBP-YG-17.png,0.37,1.2,47,0.25,,,,,,,,,,,,,,,,,,0,58,58,46,1,,,,,,,,,,,,,,,,,,,,,,,
,,,,,V2_002,18,Female,2024-02-27_13h25.06.663,jersey_experiment_5_v2,2023.2.2,Win32,84.03361345,,,,,,,,,,,,,,,,1171.1297,1172.9766,1172.9769,1175.212,return,1.0401,,93.48958333,,,,,,FBP-RB-81.png,0.43,1.2,39,0.25,,,,,,,,,,,,,,,,,,0,59,59,38,1,,,,,,,,,,,,,,,,,,,,,,,
,,,,,V2_002,18,Female,2024-02-27_13h25.06.663,jersey_experiment_5_v2,2023.2.2,Win32,84.03361345,,,,,,,,,,,,,,,,,,,,,,,,,,,,,,,,,,,,,,,,,,,,,,,,,,,,,,,,1175.2124,1180.4949,return,5.2706,,,,,,,,,,,,,,,,,,,
,,,,,V2_002,18,Female,2024-02-27_13h25.06.663,jersey_experiment_5_v2,2023.2.2,Win32,84.03361345,,,,,,,,,,,,,,,,,,,,,,,,,,,,,,,,,,,,,,,,,,,,,,,,,,,,,,,,,,,,,1180.495,1187.8713,1,5.9558,return,1.3991,,,,,,,,,,,,
,,,,,V2_002,18,Female,2024-02-27_13h25.06.663,jersey_experiment_5_v2,2023.2.2,Win32,84.03361345,,,,,,,,,,,,,,,,,,,,,,,,,,,,,,,,,,,,,,,,,,,,,,,,,,,,,,,,,,,,,,,,,,,,1187.8715,1225.4301,No patterns,right,6.6827,,,,,,
,,,,,V2_002,18,Female,2024-02-27_13h25.06.663,jersey_experiment_5_v2,2023.2.2,Win32,84.03361345,,,,,,,,,,,,,,,,,,,,,,,,,,,,,,,,,,,,,,,,,,,,,,,,,,,,,,,,,,,,,,,,,,,,,,,,,,1225.4302,1229.3906,return,3.9431,