requirements.started,requirements.stopped,key_resp_3.keys,key_resp_3.rt,key_resp_3.duration,Subject ID,Age,Gender,date,expName,psychopyVersion,OS,frameRate,instructions1.started,instructions1.stopped,key_resp.keys,key_resp.rt,key_resp.duration,example.started,example.stopped,enter_2.keys,enter_2.rt,enter_2.duration,instructions2.started,instructions2.stopped,enter_3.keys,enter_3.rt,enter_3.duration,image.started,image.stopped,slider_2.started,slider_2.stopped,next.keys,next.rt,next.duration,slider.response,trial_block_1.thisRepN,trial_block_1.thisTrialN,trial_block_1.thisN,trial_block_1.thisIndex,trial_block_1.ran,Path,Width,Height,Index,Duration,trial_block_2.thisRepN,trial_block_2.thisTrialN,trial_block_2.thisN,trial_block_2.thisIndex,trial_block_2.ran,rest_break.started,rest_break.stopped,end_break.started,end_break.stopped,key_resp_5.keys,key_resp_5.rt,key_resp_5.duration,trial_block_3.thisRepN,trial_block_3.thisTrialN,trial_block_3.thisN,trial_block_3.thisIndex,trial_block_3.ran,trial_block_4.thisRepN,trial_block_4.thisTrialN,trial_block_4.thisN,trial_block_4.thisIndex,trial_block_4.ran,questions_intro.started,questions_intro.stopped,enter_12.keys,enter_12.rt,enter_12.duration,question2.started,question2.stopped,question_doingbest.response,question_doingbest.rt,enter_15.keys,enter_15.rt,enter_15.duration,pattern.started,pattern.stopped,pattern_2.text,enter_17.keys,enter_17.rt,enter_17.duration,thankyou.started,thankyou.stopped,enter_14.keys,enter_14.rt,enter_14.duration
0,10.8031,return,10.7999,,V2_011,21,Female,2024-03-01_14h32.09.498,jersey_experiment_5_v2,2023.2.2,Win32,85.47008547,,,,,,,,,,,,,,,,,,,,,,,,,,,,,,,,,,,,,,,,,,,,,,,,,,,,,,,,,,,,,,,,,,,,,,,,,,,,,,
,,,,,V2_011,21,Female,2024-03-01_14h32.09.498,jersey_experiment_5_v2,2023.2.2,Win32,85.47008547,10.8031,23.8825,return,13.0592,,,,,,,,,,,,,,,,,,,,,,,,,,,,,,,,,,,,,,,,,,,,,,,,,,,,,,,,,,,,,,,,,,,,,,,,,,
,,,,,V2_011,21,Female,2024-03-01_14h32.09.498,jersey_experiment_5_v2,2023.2.2,Win32,85.47008547,,,,,,23.8825,28.4472,return,4.5308,,,,,,,,,,,,,,,,,,,,,,,,,,,,,,,,,,,,,,,,,,,,,,,,,,,,,,,,,,,,,,,,,,,,,
,,,,,V2_011,21,Female,2024-03-01_14h32.09.498,jersey_experiment_5_v2,2023.2.2,Win32,85.47008547,,,,,,,,,,,28.4472,48.895,return,20.4436,,,,,,,,,,,,,,,,,,,,,,,,,,,,,,,,,,,,,,,,,,,,,,,,,,,,,,,,,,,,,,,,
,,,,,V2_011,21,Female,2024-03-01_14h32.09.498,jersey_experiment_5_v2,2023.2.2,Win32,85.47008547,,,,,,,,,,,,,,,,48.9011,51.0125,51.0125,60.4366,return,0.4968,,75.52083333,0,0,0,34,1,FBP-RB-17.png,0.45,1.2,35,0.5,,,,,,,,,,,,,,,,,,,,,,,,,,,,,,,,,,,,,,,,,,,,,
,,,,,V2_011,21,Female,2024-03-01_14h32.09.498,jersey_experiment_5_v2,2023.2.2,Win32,85.47008547,,,,,,,,,,,,,,,,60.4368,62.5305,62.5305,63.2483,return,0.2638,,75.13020833,0,1,1,49,1,FBP-YG-71.png,0.45,1.2,50,0.5,,,,,,,,,,,,,,,,,,,,,,,,,,,,,,,,,,,,,,,,,,,,,
,,,,,V2_011,21,Female,2024-03-01_14h32.09.498,jersey_experiment_5_v2,2023.2.2,Win32,85.47008547,,,,,,,,,,,,,,,,63.2484,65.3542,65.3543,67.1779,return,0.5895,,75.52083333,0,2,2,44,1,FBP-RB-19.png,0.45,1.2,45,0.5,,,,,,,,,,,,,,,,,,,,,,,,,,,,,,,,,,,,,,,,,,,,,
,,,,,V2_011,21,Female,2024-03-01_14h32.09.498,jersey_experiment_5_v2,2023.2.2,Win32,85.47008547,,,,,,,,,,,,,,,,67.1781,69.2722,69.2723,70.8956,return,0.217,,25.13020833,0,3,3,41,1,FBP-RB-19.png,0.37,1.2,42,0.5,,,,,,,,,,,,,,,,,,,,,,,,,,,,,,,,,,,,,,,,,,,,,
,,,,,V2_011,21,Female,2024-03-01_14h32.09.498,jersey_experiment_5_v2,2023.2.2,Win32,85.47008547,,,,,,,,,,,,,,,,70.8958,72.99,72.99,76.2016,return,1.821,,74.609375,0,4,4,43,1,FBP-RB-19.png,0.43,1.2,44,0.5,,,,,,,,,,,,,,,,,,,,,,,,,,,,,,,,,,,,,,,,,,,,,
,,,,,V2_011,21,Female,2024-03-01_14h32.09.498,jersey_experiment_5_v2,2023.2.2,Win32,85.47008547,,,,,,,,,,,,,,,,76.2019,78.296,78.2961,79.9547,return,0.4264,,74.34895833,0,5,5,24,1,FBP-OG-18.png,0.45,1.2,25,0.5,,,,,,,,,,,,,,,,,,,,,,,,,,,,,,,,,,,,,,,,,,,,,
,,,,,V2_011,21,Female,2024-03-01_14h32.09.498,jersey_experiment_5_v2,2023.2.2,Win32,85.47008547,,,,,,,,,,,,,,,,79.9549,82.0606,82.0607,83.8961,return,0.2354,,26.04166667,0,6,6,55,1,FBP-YG-91.png,0.35,1.2,56,0.5,,,,,,,,,,,,,,,,,,,,,,,,,,,,,,,,,,,,,,,,,,,,,
,,,,,V2_011,21,Female,2024-03-01_14h32.09.498,jersey_experiment_5_v2,2023.2.2,Win32,85.47008547,,,,,,,,,,,,,,,,83.8964,85.9903,85.9904,87.2727,return,0.1544,,75.52083333,0,7,7,48,1,FBP-YG-71.png,0.43,1.2,49,0.5,,,,,,,,,,,,,,,,,,,,,,,,,,,,,,,,,,,,,,,,,,,,,
,,,,,V2_011,21,Female,2024-03-01_14h32.09.498,jersey_experiment_5_v2,2023.2.2,Win32,85.47008547,,,,,,,,,,,,,,,,87.2729,89.3785,89.3786,90.3198,return,0.2428,,73.30729167,0,8,8,47,1,FBP-YG-71.png,0.4,1.2,48,0.5,,,,,,,,,,,,,,,,,,,,,,,,,,,,,,,,,,,,,,,,,,,,,
,,,,,V2_011,21,Female,2024-03-01_14h32.09.498,jersey_experiment_5_v2,2023.2.2,Win32,85.47008547,,,,,,,,,,,,,,,,90.32,92.414,92.414,94.7201,return,1.3724,,69.53125,0,9,9,19,1,FBP-OG-17.png,0.45,1.2,20,0.5,,,,,,,,,,,,,,,,,,,,,,,,,,,,,,,,,,,,,,,,,,,,,
,,,,,V2_011,21,Female,2024-03-01_14h32.09.498,jersey_experiment_5_v2,2023.2.2,Win32,85.47008547,,,,,,,,,,,,,,,,94.7204,96.8142,96.8142,97.9437,return,0.1884,,79.296875,0,10,10,58,1,FBP-YG-91.png,0.43,1.2,59,0.5,,,,,,,,,,,,,,,,,,,,,,,,,,,,,,,,,,,,,,,,,,,,,
,,,,,V2_011,21,Female,2024-03-01_14h32.09.498,jersey_experiment_5_v2,2023.2.2,Win32,85.47008547,,,,,,,,,,,,,,,,97.9439,100.0496,100.0496,101.3908,return,0.3132,,90.234375,0,11,11,29,1,FBP-OG-19.png,0.45,1.2,30,0.5,,,,,,,,,,,,,,,,,,,,,,,,,,,,,,,,,,,,,,,,,,,,,
,,,,,V2_011,21,Female,2024-03-01_14h32.09.498,jersey_experiment_5_v2,2023.2.2,Win32,85.47008547,,,,,,,,,,,,,,,,101.391,103.4853,103.4853,105.0262,return,0.3679,,49.08854167,0,12,12,46,1,FBP-YG-71.png,0.37,1.2,47,0.5,,,,,,,,,,,,,,,,,,,,,,,,,,,,,,,,,,,,,,,,,,,,,
,,,,,V2_011,21,Female,2024-03-01_14h32.09.498,jersey_experiment_5_v2,2023.2.2,Win32,85.47008547,,,,,,,,,,,,,,,,105.0263,107.1204,107.1204,108.8029,return,0.5576,,35.41666667,0,13,13,30,1,FBP-RB-17.png,0.35,1.2,31,0.5,,,,,,,,,,,,,,,,,,,,,,,,,,,,,,,,,,,,,,,,,,,,,
,,,,,V2_011,21,Female,2024-03-01_14h32.09.498,jersey_experiment_5_v2,2023.2.2,Win32,85.47008547,,,,,,,,,,,,,,,,108.8031,110.65,110.6501,111.5912,return,0.2352,,26.82291667,0,14,14,1,1,FBP-PT-17.png,0.37,1.2,2,0.25,,,,,,,,,,,,,,,,,,,,,,,,,,,,,,,,,,,,,,,,,,,,,
,,,,,V2_011,21,Female,2024-03-01_14h32.09.498,jersey_experiment_5_v2,2023.2.2,Win32,85.47008547,,,,,,,,,,,,,,,,111.5914,113.45,113.4501,114.0383,return,0.2232,,27.21354167,0,15,15,11,1,FBP-PT-19.png,0.37,1.2,12,0.25,,,,,,,,,,,,,,,,,,,,,,,,,,,,,,,,,,,,,,,,,,,,,
,,,,,V2_011,21,Female,2024-03-01_14h32.09.498,jersey_experiment_5_v2,2023.2.2,Win32,85.47008547,,,,,,,,,,,,,,,,114.0384,116.1445,116.1446,117.6149,return,0.2671,,55.59895833,0,16,16,22,1,FBP-OG-18.png,0.4,1.2,23,0.5,,,,,,,,,,,,,,,,,,,,,,,,,,,,,,,,,,,,,,,,,,,,,
,,,,,V2_011,21,Female,2024-03-01_14h32.09.498,jersey_experiment_5_v2,2023.2.2,Win32,85.47008547,,,,,,,,,,,,,,,,117.6151,119.7209,119.721,120.9209,return,0.5891,,54.03645833,0,17,17,51,1,FBP-YG-81.png,0.37,1.2,52,0.5,,,,,,,,,,,,,,,,,,,,,,,,,,,,,,,,,,,,,,,,,,,,,
,,,,,V2_011,21,Female,2024-03-01_14h32.09.498,jersey_experiment_5_v2,2023.2.2,Win32,85.47008547,,,,,,,,,,,,,,,,120.9211,123.0152,123.0154,124.0387,return,0.1043,,93.61979167,0,18,18,23,1,FBP-OG-18.png,0.43,1.2,24,0.5,,,,,,,,,,,,,,,,,,,,,,,,,,,,,,,,,,,,,,,,,,,,,
,,,,,V2_011,21,Female,2024-03-01_14h32.09.498,jersey_experiment_5_v2,2023.2.2,Win32,85.47008547,,,,,,,,,,,,,,,,124.0388,126.1328,126.1328,127.0388,return,0.2192,,92.83854167,0,19,19,18,1,FBP-OG-17.png,0.43,1.2,19,0.5,,,,,,,,,,,,,,,,,,,,,,,,,,,,,,,,,,,,,,,,,,,,,
,,,,,V2_011,21,Female,2024-03-01_14h32.09.498,jersey_experiment_5_v2,2023.2.2,Win32,85.47008547,,,,,,,,,,,,,,,,127.0389,129.1449,129.1449,130.133,return,0.2138,,81.640625,0,20,20,57,1,FBP-YG-91.png,0.4,1.2,58,0.5,,,,,,,,,,,,,,,,,,,,,,,,,,,,,,,,,,,,,,,,,,,,,
,,,,,V2_011,21,Female,2024-03-01_14h32.09.498,jersey_experiment_5_v2,2023.2.2,Win32,85.47008547,,,,,,,,,,,,,,,,130.1333,132.2273,132.2274,133.6038,return,0.2035,,97.78645833,0,21,21,33,1,FBP-RB-17.png,0.43,1.2,34,0.5,,,,,,,,,,,,,,,,,,,,,,,,,,,,,,,,,,,,,,,,,,,,,
,,,,,V2_011,21,Female,2024-03-01_14h32.09.498,jersey_experiment_5_v2,2023.2.2,Win32,85.47008547,,,,,,,,,,,,,,,,133.604,135.4508,135.4509,136.298,return,0.2924,,91.14583333,0,22,22,2,1,FBP-PT-17.png,0.4,1.2,3,0.25,,,,,,,,,,,,,,,,,,,,,,,,,,,,,,,,,,,,,,,,,,,,,
,,,,,V2_011,21,Female,2024-03-01_14h32.09.498,jersey_experiment_5_v2,2023.2.2,Win32,85.47008547,,,,,,,,,,,,,,,,136.2982,138.3922,138.3923,139.5569,return,0.1184,,36.19791667,0,23,23,36,1,FBP-RB-18.png,0.37,1.2,37,0.5,,,,,,,,,,,,,,,,,,,,,,,,,,,,,,,,,,,,,,,,,,,,,
,,,,,V2_011,21,Female,2024-03-01_14h32.09.498,jersey_experiment_5_v2,2023.2.2,Win32,85.47008547,,,,,,,,,,,,,,,,139.5571,141.4041,141.4041,142.3923,return,0.1745,,89.58333333,0,24,24,8,1,FBP-PT-18.png,0.43,1.2,9,0.25,,,,,,,,,,,,,,,,,,,,,,,,,,,,,,,,,,,,,,,,,,,,,
,,,,,V2_011,21,Female,2024-03-01_14h32.09.498,jersey_experiment_5_v2,2023.2.2,Win32,85.47008547,,,,,,,,,,,,,,,,142.3925,144.4865,144.4865,145.0277,return,0.1317,,88.93229167,0,25,25,42,1,FBP-RB-19.png,0.4,1.2,43,0.5,,,,,,,,,,,,,,,,,,,,,,,,,,,,,,,,,,,,,,,,,,,,,
,,,,,V2_011,21,Female,2024-03-01_14h32.09.498,jersey_experiment_5_v2,2023.2.2,Win32,85.47008547,,,,,,,,,,,,,,,,145.028,147.1339,147.1339,148.3928,return,0.2353,,33.72395833,0,26,26,21,1,FBP-OG-18.png,0.37,1.2,22,0.5,,,,,,,,,,,,,,,,,,,,,,,,,,,,,,,,,,,,,,,,,,,,,
,,,,,V2_011,21,Female,2024-03-01_14h32.09.498,jersey_experiment_5_v2,2023.2.2,Win32,85.47008547,,,,,,,,,,,,,,,,148.393,150.4868,150.4869,152.1692,return,0.5781,,24.73958333,0,27,27,25,1,FBP-OG-19.png,0.35,1.2,26,0.5,,,,,,,,,,,,,,,,,,,,,,,,,,,,,,,,,,,,,,,,,,,,,
,,,,,V2_011,21,Female,2024-03-01_14h32.09.498,jersey_experiment_5_v2,2023.2.2,Win32,85.47008547,,,,,,,,,,,,,,,,152.1693,154.2635,154.2635,155.6633,return,0.1021,,33.72395833,0,28,28,17,1,FBP-OG-17.png,0.4,1.2,18,0.5,,,,,,,,,,,,,,,,,,,,,,,,,,,,,,,,,,,,,,,,,,,,,
,,,,,V2_011,21,Female,2024-03-01_14h32.09.498,jersey_experiment_5_v2,2023.2.2,Win32,85.47008547,,,,,,,,,,,,,,,,155.6635,157.7693,157.7693,159.0872,return,0.1243,,35.80729167,0,29,29,52,1,FBP-YG-81.png,0.4,1.2,53,0.5,,,,,,,,,,,,,,,,,,,,,,,,,,,,,,,,,,,,,,,,,,,,,
,,,,,V2_011,21,Female,2024-03-01_14h32.09.498,jersey_experiment_5_v2,2023.2.2,Win32,85.47008547,,,,,,,,,,,,,,,,159.0873,161.1813,161.1814,162.1106,return,0.1026,,59.765625,0,30,30,32,1,FBP-RB-17.png,0.4,1.2,33,0.5,,,,,,,,,,,,,,,,,,,,,,,,,,,,,,,,,,,,,,,,,,,,,
,,,,,V2_011,21,Female,2024-03-01_14h32.09.498,jersey_experiment_5_v2,2023.2.2,Win32,85.47008547,,,,,,,,,,,,,,,,162.1108,164.205,164.205,165.2049,return,0.1081,,33.46354167,0,31,31,20,1,FBP-OG-18.png,0.35,1.2,21,0.5,,,,,,,,,,,,,,,,,,,,,,,,,,,,,,,,,,,,,,,,,,,,,
,,,,,V2_011,21,Female,2024-03-01_14h32.09.498,jersey_experiment_5_v2,2023.2.2,Win32,85.47008547,,,,,,,,,,,,,,,,165.2052,167.2993,167.2993,168.1934,return,0.2063,,82.94270833,0,32,32,38,1,FBP-RB-18.png,0.43,1.2,39,0.5,,,,,,,,,,,,,,,,,,,,,,,,,,,,,,,,,,,,,,,,,,,,,
,,,,,V2_011,21,Female,2024-03-01_14h32.09.498,jersey_experiment_5_v2,2023.2.2,Win32,85.47008547,,,,,,,,,,,,,,,,168.1935,170.2875,170.2876,171.2639,return,0.0885,,39.84375,0,33,33,35,1,FBP-RB-18.png,0.35,1.2,36,0.5,,,,,,,,,,,,,,,,,,,,,,,,,,,,,,,,,,,,,,,,,,,,,
,,,,,V2_011,21,Female,2024-03-01_14h32.09.498,jersey_experiment_5_v2,2023.2.2,Win32,85.47008547,,,,,,,,,,,,,,,,171.2641,173.1229,173.1229,174.8406,return,0.1508,,36.71875,0,34,34,13,1,FBP-PT-19.png,0.43,1.2,14,0.25,,,,,,,,,,,,,,,,,,,,,,,,,,,,,,,,,,,,,,,,,,,,,
,,,,,V2_011,21,Female,2024-03-01_14h32.09.498,jersey_experiment_5_v2,2023.2.2,Win32,85.47008547,,,,,,,,,,,,,,,,174.8408,176.9348,176.9348,178.2172,return,0.0603,,77.47395833,0,35,35,53,1,FBP-YG-81.png,0.43,1.2,54,0.5,,,,,,,,,,,,,,,,,,,,,,,,,,,,,,,,,,,,,,,,,,,,,
,,,,,V2_011,21,Female,2024-03-01_14h32.09.498,jersey_experiment_5_v2,2023.2.2,Win32,85.47008547,,,,,,,,,,,,,,,,178.2175,180.076,180.0761,181.4763,return,0.1206,,59.63541667,0,36,36,12,1,FBP-PT-19.png,0.4,1.2,13,0.25,,,,,,,,,,,,,,,,,,,,,,,,,,,,,,,,,,,,,,,,,,,,,
,,,,,V2_011,21,Female,2024-03-01_14h32.09.498,jersey_experiment_5_v2,2023.2.2,Win32,85.47008547,,,,,,,,,,,,,,,,181.4765,183.5704,183.5704,184.4999,return,0.166,,44.66145833,0,37,37,31,1,FBP-RB-17.png,0.37,1.2,32,0.5,,,,,,,,,,,,,,,,,,,,,,,,,,,,,,,,,,,,,,,,,,,,,
,,,,,V2_011,21,Female,2024-03-01_14h32.09.498,jersey_experiment_5_v2,2023.2.2,Win32,85.47008547,,,,,,,,,,,,,,,,184.5,186.6057,186.6057,187.3821,return,0.1046,,80.078125,0,38,38,39,1,FBP-RB-18.png,0.45,1.2,40,0.5,,,,,,,,,,,,,,,,,,,,,,,,,,,,,,,,,,,,,,,,,,,,,
,,,,,V2_011,21,Female,2024-03-01_14h32.09.498,jersey_experiment_5_v2,2023.2.2,Win32,85.47008547,,,,,,,,,,,,,,,,187.3823,189.4764,189.4764,190.3118,return,0.1079,,67.83854167,0,39,39,37,1,FBP-RB-18.png,0.4,1.2,38,0.5,,,,,,,,,,,,,,,,,,,,,,,,,,,,,,,,,,,,,,,,,,,,,
,,,,,V2_011,21,Female,2024-03-01_14h32.09.498,jersey_experiment_5_v2,2023.2.2,Win32,85.47008547,,,,,,,,,,,,,,,,190.3121,192.1708,192.1709,193.2648,return,0.1711,,87.63020833,0,40,40,3,1,FBP-PT-17.png,0.43,1.2,4,0.25,,,,,,,,,,,,,,,,,,,,,,,,,,,,,,,,,,,,,,,,,,,,,
,,,,,V2_011,21,Female,2024-03-01_14h32.09.498,jersey_experiment_5_v2,2023.2.2,Win32,85.47008547,,,,,,,,,,,,,,,,193.265,195.359,195.359,196.9826,return,0.5507,,92.44791667,0,41,41,28,1,FBP-OG-19.png,0.43,1.2,29,0.5,,,,,,,,,,,,,,,,,,,,,,,,,,,,,,,,,,,,,,,,,,,,,
,,,,,V2_011,21,Female,2024-03-01_14h32.09.498,jersey_experiment_5_v2,2023.2.2,Win32,85.47008547,,,,,,,,,,,,,,,,196.9828,198.8298,198.8299,200.4063,return,0.1306,,95.05208333,0,42,42,14,1,FBP-PT-19.png,0.45,1.2,15,0.25,,,,,,,,,,,,,,,,,,,,,,,,,,,,,,,,,,,,,,,,,,,,,
,,,,,V2_011,21,Female,2024-03-01_14h32.09.498,jersey_experiment_5_v2,2023.2.2,Win32,85.47008547,,,,,,,,,,,,,,,,200.4065,202.2533,202.2533,203.3946,return,0.1439,,79.94791667,0,43,43,6,1,FBP-PT-18.png,0.37,1.2,7,0.25,,,,,,,,,,,,,,,,,,,,,,,,,,,,,,,,,,,,,,,,,,,,,
,,,,,V2_011,21,Female,2024-03-01_14h32.09.498,jersey_experiment_5_v2,2023.2.2,Win32,85.47008547,,,,,,,,,,,,,,,,203.3949,205.5005,205.5006,207.3947,return,0.6618,,37.23958333,0,44,44,45,1,FBP-YG-71.png,0.35,1.2,46,0.5,,,,,,,,,,,,,,,,,,,,,,,,,,,,,,,,,,,,,,,,,,,,,
,,,,,V2_011,21,Female,2024-03-01_14h32.09.498,jersey_experiment_5_v2,2023.2.2,Win32,85.47008547,,,,,,,,,,,,,,,,207.395,209.5006,209.5006,210.583,return,0.2215,,93.359375,0,45,45,54,1,FBP-YG-81.png,0.45,1.2,55,0.5,,,,,,,,,,,,,,,,,,,,,,,,,,,,,,,,,,,,,,,,,,,,,
,,,,,V2_011,21,Female,2024-03-01_14h32.09.498,jersey_experiment_5_v2,2023.2.2,Win32,85.47008547,,,,,,,,,,,,,,,,210.5832,212.689,212.6891,213.842,return,0.0496,,34.89583333,0,46,46,16,1,FBP-OG-17.png,0.37,1.2,17,0.5,,,,,,,,,,,,,,,,,,,,,,,,,,,,,,,,,,,,,,,,,,,,,
,,,,,V2_011,21,Female,2024-03-01_14h32.09.498,jersey_experiment_5_v2,2023.2.2,Win32,85.47008547,,,,,,,,,,,,,,,,213.8422,215.9362,215.9363,216.8539,return,0.0374,,24.609375,0,47,47,56,1,FBP-YG-91.png,0.37,1.2,57,0.5,,,,,,,,,,,,,,,,,,,,,,,,,,,,,,,,,,,,,,,,,,,,,
,,,,,V2_011,21,Female,2024-03-01_14h32.09.498,jersey_experiment_5_v2,2023.2.2,Win32,85.47008547,,,,,,,,,,,,,,,,216.8541,218.9481,218.9481,219.7482,return,0.0483,,16.14583333,0,48,48,15,1,FBP-OG-17.png,0.35,1.2,16,0.5,,,,,,,,,,,,,,,,,,,,,,,,,,,,,,,,,,,,,,,,,,,,,
,,,,,V2_011,21,Female,2024-03-01_14h32.09.498,jersey_experiment_5_v2,2023.2.2,Win32,85.47008547,,,,,,,,,,,,,,,,219.7484,221.5953,221.5953,222.713,return,0.2125,,91.92708333,0,49,49,4,1,FBP-PT-17.png,0.45,1.2,5,0.25,,,,,,,,,,,,,,,,,,,,,,,,,,,,,,,,,,,,,,,,,,,,,
,,,,,V2_011,21,Female,2024-03-01_14h32.09.498,jersey_experiment_5_v2,2023.2.2,Win32,85.47008547,,,,,,,,,,,,,,,,222.7132,224.5718,224.5719,225.7836,return,0.1031,,58.33333333,0,50,50,10,1,FBP-PT-19.png,0.35,1.2,11,0.25,,,,,,,,,,,,,,,,,,,,,,,,,,,,,,,,,,,,,,,,,,,,,
,,,,,V2_011,21,Female,2024-03-01_14h32.09.498,jersey_experiment_5_v2,2023.2.2,Win32,85.47008547,,,,,,,,,,,,,,,,225.7838,227.8779,227.878,228.6426,return,0.0867,,40.49479167,0,51,51,50,1,FBP-YG-81.png,0.35,1.2,51,0.5,,,,,,,,,,,,,,,,,,,,,,,,,,,,,,,,,,,,,,,,,,,,,
,,,,,V2_011,21,Female,2024-03-01_14h32.09.498,jersey_experiment_5_v2,2023.2.2,Win32,85.47008547,,,,,,,,,,,,,,,,228.6428,230.737,230.737,231.8898,return,0.3231,,35.9375,0,52,52,26,1,FBP-OG-19.png,0.37,1.2,27,0.5,,,,,,,,,,,,,,,,,,,,,,,,,,,,,,,,,,,,,,,,,,,,,
,,,,,V2_011,21,Female,2024-03-01_14h32.09.498,jersey_experiment_5_v2,2023.2.2,Win32,85.47008547,,,,,,,,,,,,,,,,231.8901,233.984,233.9841,235.7017,return,0.0712,,24.609375,0,53,53,40,1,FBP-RB-19.png,0.35,1.2,41,0.5,,,,,,,,,,,,,,,,,,,,,,,,,,,,,,,,,,,,,,,,,,,,,
,,,,,V2_011,21,Female,2024-03-01_14h32.09.498,jersey_experiment_5_v2,2023.2.2,Win32,85.47008547,,,,,,,,,,,,,,,,235.7019,237.7959,237.796,239.2784,return,0.044,,71.61458333,0,54,54,27,1,FBP-OG-19.png,0.4,1.2,28,0.5,,,,,,,,,,,,,,,,,,,,,,,,,,,,,,,,,,,,,,,,,,,,,
,,,,,V2_011,21,Female,2024-03-01_14h32.09.498,jersey_experiment_5_v2,2023.2.2,Win32,85.47008547,,,,,,,,,,,,,,,,239.2787,241.1253,241.1254,241.9254,return,0.1066,,94.53125,0,55,55,9,1,FBP-PT-18.png,0.45,1.2,10,0.25,,,,,,,,,,,,,,,,,,,,,,,,,,,,,,,,,,,,,,,,,,,,,
,,,,,V2_011,21,Female,2024-03-01_14h32.09.498,jersey_experiment_5_v2,2023.2.2,Win32,85.47008547,,,,,,,,,,,,,,,,241.9256,244.0195,244.0195,244.5491,return,0.0237,,96.22395833,0,56,56,59,1,FBP-YG-91.png,0.45,1.2,60,0.5,,,,,,,,,,,,,,,,,,,,,,,,,,,,,,,,,,,,,,,,,,,,,
,,,,,V2_011,21,Female,2024-03-01_14h32.09.498,jersey_experiment_5_v2,2023.2.2,Win32,85.47008547,,,,,,,,,,,,,,,,244.5493,246.3963,246.3963,247.5138,return,0.0937,,39.32291667,0,57,57,5,1,FBP-PT-18.png,0.35,1.2,6,0.25,,,,,,,,,,,,,,,,,,,,,,,,,,,,,,,,,,,,,,,,,,,,,
,,,,,V2_011,21,Female,2024-03-01_14h32.09.498,jersey_experiment_5_v2,2023.2.2,Win32,85.47008547,,,,,,,,,,,,,,,,247.5139,249.3609,249.3611,250.3256,return,0.0483,,73.046875,0,58,58,7,1,FBP-PT-18.png,0.4,1.2,8,0.25,,,,,,,,,,,,,,,,,,,,,,,,,,,,,,,,,,,,,,,,,,,,,
,,,,,V2_011,21,Female,2024-03-01_14h32.09.498,jersey_experiment_5_v2,2023.2.2,Win32,85.47008547,,,,,,,,,,,,,,,,250.3259,252.1729,252.1729,253.3611,return,0.1004,,32.94270833,0,59,59,0,1,FBP-PT-17.png,0.35,1.2,1,0.25,,,,,,,,,,,,,,,,,,,,,,,,,,,,,,,,,,,,,,,,,,,,,
,,,,,V2_011,21,Female,2024-03-01_14h32.09.498,jersey_experiment_5_v2,2023.2.2,Win32,85.47008547,,,,,,,,,,,,,,,,253.3635,255.4672,255.4672,256.7022,return,0.2314,,33.07291667,,,,,,FBP-RB-91.png,0.37,1.2,42,0.5,0,0,0,41,1,,,,,,,,,,,,,,,,,,,,,,,,,,,,,,,,,,,,,,,,
,,,,,V2_011,21,Female,2024-03-01_14h32.09.498,jersey_experiment_5_v2,2023.2.2,Win32,85.47008547,,,,,,,,,,,,,,,,256.7025,258.5498,258.5498,259.2086,return,0.1642,,64.97395833,,,,,,FBP-PT-71.png,0.4,1.2,3,0.25,0,1,1,2,1,,,,,,,,,,,,,,,,,,,,,,,,,,,,,,,,,,,,,,,,
,,,,,V2_011,21,Female,2024-03-01_14h32.09.498,jersey_experiment_5_v2,2023.2.2,Win32,85.47008547,,,,,,,,,,,,,,,,259.2088,261.3144,261.3144,261.9024,return,0.1028,,75.26041667,,,,,,FBP-YG-17.png,0.43,1.2,49,0.5,0,2,2,48,1,,,,,,,,,,,,,,,,,,,,,,,,,,,,,,,,,,,,,,,,
,,,,,V2_011,21,Female,2024-03-01_14h32.09.498,jersey_experiment_5_v2,2023.2.2,Win32,85.47008547,,,,,,,,,,,,,,,,261.9025,264.0086,264.0086,264.7851,return,0.0887,,95.703125,,,,,,FBP-YG-19.png,0.43,1.2,59,0.5,0,3,3,58,1,,,,,,,,,,,,,,,,,,,,,,,,,,,,,,,,,,,,,,,,
,,,,,V2_011,21,Female,2024-03-01_14h32.09.498,jersey_experiment_5_v2,2023.2.2,Win32,85.47008547,,,,,,,,,,,,,,,,264.7853,266.6322,266.6322,267.2204,return,0.1909,,95.703125,,,,,,FBP-PT-81.png,0.43,1.2,9,0.25,0,4,4,8,1,,,,,,,,,,,,,,,,,,,,,,,,,,,,,,,,,,,,,,,,
,,,,,V2_011,21,Female,2024-03-01_14h32.09.498,jersey_experiment_5_v2,2023.2.2,Win32,85.47008547,,,,,,,,,,,,,,,,267.2206,269.3265,269.3265,269.9852,return,0.2529,,98.046875,,,,,,FBP-YG-19.png,0.45,1.2,60,0.5,0,5,5,59,1,,,,,,,,,,,,,,,,,,,,,,,,,,,,,,,,,,,,,,,,
,,,,,V2_011,21,Female,2024-03-01_14h32.09.498,jersey_experiment_5_v2,2023.2.2,Win32,85.47008547,,,,,,,,,,,,,,,,269.9855,272.0795,272.0796,272.7736,return,0.0252,,24.609375,,,,,,FBP-YG-17.png,0.35,1.2,46,0.5,0,6,6,45,1,,,,,,,,,,,,,,,,,,,,,,,,,,,,,,,,,,,,,,,,
,,,,,V2_011,21,Female,2024-03-01_14h32.09.498,jersey_experiment_5_v2,2023.2.2,Win32,85.47008547,,,,,,,,,,,,,,,,272.7738,274.6325,274.6325,275.762,return,0.1468,,35.02604167,,,,,,FBP-PT-91.png,0.37,1.2,12,0.25,0,7,7,11,1,,,,,,,,,,,,,,,,,,,,,,,,,,,,,,,,,,,,,,,,
,,,,,V2_011,21,Female,2024-03-01_14h32.09.498,jersey_experiment_5_v2,2023.2.2,Win32,85.47008547,,,,,,,,,,,,,,,,275.7621,277.6208,277.6209,278.2561,return,0.1716,,39.71354167,,,,,,FBP-PT-81.png,0.35,1.2,6,0.25,0,8,8,5,1,,,,,,,,,,,,,,,,,,,,,,,,,,,,,,,,,,,,,,,,
,,,,,V2_011,21,Female,2024-03-01_14h32.09.498,jersey_experiment_5_v2,2023.2.2,Win32,85.47008547,,,,,,,,,,,,,,,,278.2564,280.3504,280.3504,280.7504,return,0.1266,,39.71354167,,,,,,FBP-YG-18.png,0.37,1.2,52,0.5,0,9,9,51,1,,,,,,,,,,,,,,,,,,,,,,,,,,,,,,,,,,,,,,,,
,,,,,V2_011,21,Female,2024-03-01_14h32.09.498,jersey_experiment_5_v2,2023.2.2,Win32,85.47008547,,,,,,,,,,,,,,,,280.7506,282.5977,282.5977,283.3858,return,0.0708,,78.25520833,,,,,,FBP-PT-91.png,0.43,1.2,14,0.25,0,10,10,13,1,,,,,,,,,,,,,,,,,,,,,,,,,,,,,,,,,,,,,,,,
,,,,,V2_011,21,Female,2024-03-01_14h32.09.498,jersey_experiment_5_v2,2023.2.2,Win32,85.47008547,,,,,,,,,,,,,,,,283.3861,285.48,285.48,286.08,return,0.0425,,96.35416667,,,,,,FBP-YG-18.png,0.45,1.2,55,0.5,0,11,11,54,1,,,,,,,,,,,,,,,,,,,,,,,,,,,,,,,,,,,,,,,,
,,,,,V2_011,21,Female,2024-03-01_14h32.09.498,jersey_experiment_5_v2,2023.2.2,Win32,85.47008547,,,,,,,,,,,,,,,,286.0802,288.1741,288.1742,288.8565,return,0.1187,,85.15625,,,,,,FBP-OG-71.png,0.4,1.2,18,0.5,0,12,12,17,1,,,,,,,,,,,,,,,,,,,,,,,,,,,,,,,,,,,,,,,,
,,,,,V2_011,21,Female,2024-03-01_14h32.09.498,jersey_experiment_5_v2,2023.2.2,Win32,85.47008547,,,,,,,,,,,,,,,,288.8567,290.9509,290.9509,291.9389,return,0.1574,,94.140625,,,,,,FBP-RB-91.png,0.45,1.2,45,0.5,0,13,13,44,1,,,,,,,,,,,,,,,,,,,,,,,,,,,,,,,,,,,,,,,,
,,,,,V2_011,21,Female,2024-03-01_14h32.09.498,jersey_experiment_5_v2,2023.2.2,Win32,85.47008547,,,,,,,,,,,,,,,,291.9392,294.0449,294.0449,294.5273,return,0.0538,,91.14583333,,,,,,FBP-OG-71.png,0.45,1.2,20,0.5,0,14,14,19,1,,,,,,,,,,,,,,,,,,,,,,,,,,,,,,,,,,,,,,,,
,,,,,V2_011,21,Female,2024-03-01_14h32.09.498,jersey_experiment_5_v2,2023.2.2,Win32,85.47008547,,,,,,,,,,,,,,,,294.5275,296.3744,296.3745,297.8099,return,0.1232,,78.64583333,,,,,,FBP-PT-71.png,0.43,1.2,4,0.25,0,15,15,3,1,,,,,,,,,,,,,,,,,,,,,,,,,,,,,,,,,,,,,,,,
,,,,,V2_011,21,Female,2024-03-01_14h32.09.498,jersey_experiment_5_v2,2023.2.2,Win32,85.47008547,,,,,,,,,,,,,,,,297.81,299.9158,299.9158,300.6452,return,0.1182,,93.22916667,,,,,,FBP-YG-17.png,0.45,1.2,50,0.5,0,16,16,49,1,,,,,,,,,,,,,,,,,,,,,,,,,,,,,,,,,,,,,,,,
,,,,,V2_011,21,Female,2024-03-01_14h32.09.498,jersey_experiment_5_v2,2023.2.2,Win32,85.47008547,,,,,,,,,,,,,,,,300.6454,302.5041,302.5041,304.4571,return,0.0844,,39.19270833,,,,,,FBP-PT-81.png,0.37,1.2,7,0.25,0,17,17,6,1,,,,,,,,,,,,,,,,,,,,,,,,,,,,,,,,,,,,,,,,
,,,,,V2_011,21,Female,2024-03-01_14h32.09.498,jersey_experiment_5_v2,2023.2.2,Win32,85.47008547,,,,,,,,,,,,,,,,304.4574,306.5514,306.5514,307.5983,return,0.1137,,95.3125,,,,,,FBP-RB-71.png,0.45,1.2,35,0.5,0,18,18,34,1,,,,,,,,,,,,,,,,,,,,,,,,,,,,,,,,,,,,,,,,
,,,,,V2_011,21,Female,2024-03-01_14h32.09.498,jersey_experiment_5_v2,2023.2.2,Win32,85.47008547,,,,,,,,,,,,,,,,307.5984,309.6926,309.6926,310.9163,return,0.1545,,44.40104167,,,,,,FBP-YG-17.png,0.4,1.2,48,0.5,0,19,19,47,1,,,,,,,,,,,,,,,,,,,,,,,,,,,,,,,,,,,,,,,,
,,,,,V2_011,21,Female,2024-03-01_14h32.09.498,jersey_experiment_5_v2,2023.2.2,Win32,85.47008547,,,,,,,,,,,,,,,,310.9165,313.0105,313.0105,313.928,return,0.1883,,34.50520833,,,,,,FBP-YG-19.png,0.4,1.2,58,0.5,0,20,20,57,1,,,,,,,,,,,,,,,,,,,,,,,,,,,,,,,,,,,,,,,,
,,,,,V2_011,21,Female,2024-03-01_14h32.09.498,jersey_experiment_5_v2,2023.2.2,Win32,85.47008547,,,,,,,,,,,,,,,,313.9283,316.0223,316.0223,316.787,return,0.0632,,42.05729167,,,,,,FBP-OG-81.png,0.43,1.2,24,0.5,0,21,21,23,1,,,,,,,,,,,,,,,,,,,,,,,,,,,,,,,,,,,,,,,,
,,,,,V2_011,21,Female,2024-03-01_14h32.09.498,jersey_experiment_5_v2,2023.2.2,Win32,85.47008547,,,,,,,,,,,,,,,,316.7872,318.8929,318.8929,321.1989,return,0.0653,,42.1875,,,,,,FBP-OG-81.png,0.37,1.2,22,0.5,0,22,22,21,1,,,,,,,,,,,,,,,,,,,,,,,,,,,,,,,,,,,,,,,,
,,,,,V2_011,21,Female,2024-03-01_14h32.09.498,jersey_experiment_5_v2,2023.2.2,Win32,85.47008547,,,,,,,,,,,,,,,,321.1991,323.0462,323.0463,324.2225,return,0.1379,,7.942708333,,,,,,FBP-PT-71.png,0.35,1.2,1,0.25,0,23,23,0,1,,,,,,,,,,,,,,,,,,,,,,,,,,,,,,,,,,,,,,,,
,,,,,V2_011,21,Female,2024-03-01_14h32.09.498,jersey_experiment_5_v2,2023.2.2,Win32,85.47008547,,,,,,,,,,,,,,,,324.2226,326.3168,326.3169,327.0933,return,0.1076,,6.510416667,,,,,,FBP-YG-19.png,0.37,1.2,57,0.5,0,24,24,56,1,,,,,,,,,,,,,,,,,,,,,,,,,,,,,,,,,,,,,,,,
,,,,,V2_011,21,Female,2024-03-01_14h32.09.498,jersey_experiment_5_v2,2023.2.2,Win32,85.47008547,,,,,,,,,,,,,,,,327.0935,329.1992,329.1992,329.9051,return,0.0767,,8.984375,,,,,,FBP-OG-71.png,0.37,1.2,17,0.5,0,25,25,16,1,,,,,,,,,,,,,,,,,,,,,,,,,,,,,,,,,,,,,,,,
,,,,,V2_011,21,Female,2024-03-01_14h32.09.498,jersey_experiment_5_v2,2023.2.2,Win32,85.47008547,,,,,,,,,,,,,,,,329.9053,331.9993,331.9994,332.7758,return,0.1885,,8.984375,,,,,,FBP-RB-71.png,0.35,1.2,31,0.5,0,26,26,30,1,,,,,,,,,,,,,,,,,,,,,,,,,,,,,,,,,,,,,,,,
,,,,,V2_011,21,Female,2024-03-01_14h32.09.498,jersey_experiment_5_v2,2023.2.2,Win32,85.47008547,,,,,,,,,,,,,,,,332.776,334.6231,334.6232,336.176,return,0.0295,,28.25520833,,,,,,FBP-PT-91.png,0.4,1.2,13,0.25,0,27,27,12,1,,,,,,,,,,,,,,,,,,,,,,,,,,,,,,,,,,,,,,,,
,,,,,V2_011,21,Female,2024-03-01_14h32.09.498,jersey_experiment_5_v2,2023.2.2,Win32,85.47008547,,,,,,,,,,,,,,,,336.1763,338.0232,338.0232,339.0466,return,0.0947,,3.645833333,,,,,,FBP-PT-91.png,0.35,1.2,11,0.25,0,28,28,10,1,,,,,,,,,,,,,,,,,,,,,,,,,,,,,,,,,,,,,,,,
,,,,,V2_011,21,Female,2024-03-01_14h32.09.498,jersey_experiment_5_v2,2023.2.2,Win32,85.47008547,,,,,,,,,,,,,,,,339.0469,341.1526,341.1526,341.8231,return,0.1375,,11.84895833,,,,,,FBP-OG-81.png,0.35,1.2,21,0.5,0,29,29,20,1,,,,,,,,,,,,,,,,,,,,,,,,,,,,,,,,,,,,,,,,
,,,,,V2_011,21,Female,2024-03-01_14h32.09.498,jersey_experiment_5_v2,2023.2.2,Win32,85.47008547,,,,,,,,,,,,,,,,341.8234,343.9176,343.9177,344.5645,return,0.0262,,59.63541667,,,,,,FBP-RB-91.png,0.4,1.2,43,0.5,0,30,30,42,1,,,,,,,,,,,,,,,,,,,,,,,,,,,,,,,,,,,,,,,,
,,,,,V2_011,21,Female,2024-03-01_14h32.09.498,jersey_experiment_5_v2,2023.2.2,Win32,85.47008547,,,,,,,,,,,,,,,,344.5647,346.6587,346.6587,347.3998,return,0.1415,,32.94270833,,,,,,FBP-RB-81.png,0.37,1.2,37,0.5,0,31,31,36,1,,,,,,,,,,,,,,,,,,,,,,,,,,,,,,,,,,,,,,,,
,,,,,V2_011,21,Female,2024-03-01_14h32.09.498,jersey_experiment_5_v2,2023.2.2,Win32,85.47008547,,,,,,,,,,,,,,,,347.4001,349.5058,349.5058,350.5765,return,0.0996,,73.046875,,,,,,FBP-YG-18.png,0.43,1.2,54,0.5,0,32,32,53,1,,,,,,,,,,,,,,,,,,,,,,,,,,,,,,,,,,,,,,,,
,,,,,V2_011,21,Female,2024-03-01_14h32.09.498,jersey_experiment_5_v2,2023.2.2,Win32,85.47008547,,,,,,,,,,,,,,,,350.5767,352.6708,352.6708,354.5648,return,0.2006,,37.76041667,,,,,,FBP-OG-91.png,0.35,1.2,26,0.5,0,33,33,25,1,,,,,,,,,,,,,,,,,,,,,,,,,,,,,,,,,,,,,,,,
,,,,,V2_011,21,Female,2024-03-01_14h32.09.498,jersey_experiment_5_v2,2023.2.2,Win32,85.47008547,,,,,,,,,,,,,,,,354.5649,356.659,356.6591,357.3297,return,0.3324,,40.234375,,,,,,FBP-YG-18.png,0.35,1.2,51,0.5,0,34,34,50,1,,,,,,,,,,,,,,,,,,,,,,,,,,,,,,,,,,,,,,,,
,,,,,V2_011,21,Female,2024-03-01_14h32.09.498,jersey_experiment_5_v2,2023.2.2,Win32,85.47008547,,,,,,,,,,,,,,,,357.3299,359.4241,359.4241,360.1296,return,0.0881,,34.63541667,,,,,,FBP-YG-19.png,0.35,1.2,56,0.5,0,35,35,55,1,,,,,,,,,,,,,,,,,,,,,,,,,,,,,,,,,,,,,,,,
,,,,,V2_011,21,Female,2024-03-01_14h32.09.498,jersey_experiment_5_v2,2023.2.2,Win32,85.47008547,,,,,,,,,,,,,,,,360.1299,362.2241,362.2241,363.1299,return,0.0941,,92.578125,,,,,,FBP-OG-91.png,0.45,1.2,30,0.5,0,36,36,29,1,,,,,,,,,,,,,,,,,,,,,,,,,,,,,,,,,,,,,,,,
,,,,,V2_011,21,Female,2024-03-01_14h32.09.498,jersey_experiment_5_v2,2023.2.2,Win32,85.47008547,,,,,,,,,,,,,,,,363.1302,365.2242,365.2242,366.0711,return,0.2356,,64.0625,,,,,,FBP-YG-17.png,0.37,1.2,47,0.5,0,37,37,46,1,,,,,,,,,,,,,,,,,,,,,,,,,,,,,,,,,,,,,,,,
,,,,,V2_011,21,Female,2024-03-01_14h32.09.498,jersey_experiment_5_v2,2023.2.2,Win32,85.47008547,,,,,,,,,,,,,,,,366.0714,368.1772,368.1772,369.1065,return,0.0518,,44.66145833,,,,,,FBP-RB-71.png,0.37,1.2,32,0.5,0,38,38,31,1,,,,,,,,,,,,,,,,,,,,,,,,,,,,,,,,,,,,,,,,
,,,,,V2_011,21,Female,2024-03-01_14h32.09.498,jersey_experiment_5_v2,2023.2.2,Win32,85.47008547,,,,,,,,,,,,,,,,369.1068,370.9655,370.9655,371.8125,return,0.1293,,91.27604167,,,,,,FBP-PT-91.png,0.45,1.2,15,0.25,0,39,39,14,1,,,,,,,,,,,,,,,,,,,,,,,,,,,,,,,,,,,,,,,,
,,,,,V2_011,21,Female,2024-03-01_14h32.09.498,jersey_experiment_5_v2,2023.2.2,Win32,85.47008547,,,,,,,,,,,,,,,,371.8127,373.9067,373.9067,374.3891,return,0.1186,,86.58854167,,,,,,FBP-RB-81.png,0.43,1.2,39,0.5,0,40,40,38,1,,,,,,,,,,,,,,,,,,,,,,,,,,,,,,,,,,,,,,,,
,,,,,V2_011,21,Female,2024-03-01_14h32.09.498,jersey_experiment_5_v2,2023.2.2,Win32,85.47008547,,,,,,,,,,,,,,,,374.3895,376.2362,376.2362,376.7775,return,0.0468,,88.80208333,,,,,,FBP-PT-81.png,0.4,1.2,8,0.25,0,41,41,7,1,,,,,,,,,,,,,,,,,,,,,,,,,,,,,,,,,,,,,,,,
,,,,,V2_011,21,Female,2024-03-01_14h32.09.498,jersey_experiment_5_v2,2023.2.2,Win32,85.47008547,,,,,,,,,,,,,,,,376.7776,378.8717,378.8717,379.7305,return,0.0507,,32.94270833,,,,,,FBP-OG-91.png,0.37,1.2,27,0.5,0,42,42,26,1,,,,,,,,,,,,,,,,,,,,,,,,,,,,,,,,,,,,,,,,
,,,,,V2_011,21,Female,2024-03-01_14h32.09.498,jersey_experiment_5_v2,2023.2.2,Win32,85.47008547,,,,,,,,,,,,,,,,379.7307,381.8247,381.8247,382.5422,return,0.1369,,32.94270833,,,,,,FBP-RB-71.png,0.4,1.2,33,0.5,0,43,43,32,1,,,,,,,,,,,,,,,,,,,,,,,,,,,,,,,,,,,,,,,,
,,,,,V2_011,21,Female,2024-03-01_14h32.09.498,jersey_experiment_5_v2,2023.2.2,Win32,85.47008547,,,,,,,,,,,,,,,,382.5423,384.6365,384.6365,385.4014,return,0.1418,,36.97916667,,,,,,FBP-OG-71.png,0.35,1.2,16,0.5,0,44,44,15,1,,,,,,,,,,,,,,,,,,,,,,,,,,,,,,,,,,,,,,,,
,,,,,V2_011,21,Female,2024-03-01_14h32.09.498,jersey_experiment_5_v2,2023.2.2,Win32,85.47008547,,,,,,,,,,,,,,,,385.4016,387.4956,387.4956,388.2014,return,0.072,,66.66666667,,,,,,FBP-YG-18.png,0.4,1.2,53,0.5,0,45,45,52,1,,,,,,,,,,,,,,,,,,,,,,,,,,,,,,,,,,,,,,,,
,,,,,V2_011,21,Female,2024-03-01_14h32.09.498,jersey_experiment_5_v2,2023.2.2,Win32,85.47008547,,,,,,,,,,,,,,,,388.2016,390.3073,390.3074,390.825,return,0.2823,,66.796875,,,,,,FBP-OG-91.png,0.4,1.2,28,0.5,0,46,46,27,1,,,,,,,,,,,,,,,,,,,,,,,,,,,,,,,,,,,,,,,,
,,,,,V2_011,21,Female,2024-03-01_14h32.09.498,jersey_experiment_5_v2,2023.2.2,Win32,85.47008547,,,,,,,,,,,,,,,,390.8253,392.6722,392.6722,393.1545,return,0.0521,,86.84895833,,,,,,FBP-PT-71.png,0.45,1.2,5,0.25,0,47,47,4,1,,,,,,,,,,,,,,,,,,,,,,,,,,,,,,,,,,,,,,,,
,,,,,V2_011,21,Female,2024-03-01_14h32.09.498,jersey_experiment_5_v2,2023.2.2,Win32,85.47008547,,,,,,,,,,,,,,,,393.1547,395.0016,395.0017,397.3783,return,1.8754,,94.921875,,,,,,FBP-PT-81.png,0.45,1.2,10,0.25,0,48,48,9,1,,,,,,,,,,,,,,,,,,,,,,,,,,,,,,,,,,,,,,,,
,,,,,V2_011,21,Female,2024-03-01_14h32.09.498,jersey_experiment_5_v2,2023.2.2,Win32,85.47008547,,,,,,,,,,,,,,,,397.3784,399.4841,399.4841,400.39,return,0.1404,,94.40104167,,,,,,FBP-RB-81.png,0.45,1.2,40,0.5,0,49,49,39,1,,,,,,,,,,,,,,,,,,,,,,,,,,,,,,,,,,,,,,,,
,,,,,V2_011,21,Female,2024-03-01_14h32.09.498,jersey_experiment_5_v2,2023.2.2,Win32,85.47008547,,,,,,,,,,,,,,,,400.3901,402.4843,402.4843,403.4021,return,0.0469,,32.68229167,,,,,,FBP-OG-81.png,0.4,1.2,23,0.5,0,50,50,22,1,,,,,,,,,,,,,,,,,,,,,,,,,,,,,,,,,,,,,,,,
,,,,,V2_011,21,Female,2024-03-01_14h32.09.498,jersey_experiment_5_v2,2023.2.2,Win32,85.47008547,,,,,,,,,,,,,,,,403.4023,405.5078,405.5078,406.2492,return,0.084,,72.13541667,,,,,,FBP-OG-91.png,0.43,1.2,29,0.5,0,51,51,28,1,,,,,,,,,,,,,,,,,,,,,,,,,,,,,,,,,,,,,,,,
,,,,,V2_011,21,Female,2024-03-01_14h32.09.498,jersey_experiment_5_v2,2023.2.2,Win32,85.47008547,,,,,,,,,,,,,,,,406.2494,408.3554,408.3554,409.0492,return,0.1415,,95.44270833,,,,,,FBP-OG-81.png,0.45,1.2,25,0.5,0,52,52,24,1,,,,,,,,,,,,,,,,,,,,,,,,,,,,,,,,,,,,,,,,
,,,,,V2_011,21,Female,2024-03-01_14h32.09.498,jersey_experiment_5_v2,2023.2.2,Win32,85.47008547,,,,,,,,,,,,,,,,409.0494,410.8964,410.8964,412.3435,return,0.1423,,37.23958333,,,,,,FBP-PT-71.png,0.37,1.2,2,0.25,0,53,53,1,1,,,,,,,,,,,,,,,,,,,,,,,,,,,,,,,,,,,,,,,,
,,,,,V2_011,21,Female,2024-03-01_14h32.09.498,jersey_experiment_5_v2,2023.2.2,Win32,85.47008547,,,,,,,,,,,,,,,,412.3436,414.4377,414.4378,415.8965,return,0.155,,33.59375,,,,,,FBP-RB-81.png,0.35,1.2,36,0.5,0,54,54,35,1,,,,,,,,,,,,,,,,,,,,,,,,,,,,,,,,,,,,,,,,
,,,,,V2_011,21,Female,2024-03-01_14h32.09.498,jersey_experiment_5_v2,2023.2.2,Win32,85.47008547,,,,,,,,,,,,,,,,415.8967,417.9908,417.9908,419.2849,return,0.1789,,33.07291667,,,,,,FBP-RB-91.png,0.35,1.2,41,0.5,0,55,55,40,1,,,,,,,,,,,,,,,,,,,,,,,,,,,,,,,,,,,,,,,,
,,,,,V2_011,21,Female,2024-03-01_14h32.09.498,jersey_experiment_5_v2,2023.2.2,Win32,85.47008547,,,,,,,,,,,,,,,,419.2851,421.3791,421.3792,422.4025,return,0.0988,,62.890625,,,,,,FBP-RB-91.png,0.43,1.2,44,0.5,0,56,56,43,1,,,,,,,,,,,,,,,,,,,,,,,,,,,,,,,,,,,,,,,,
,,,,,V2_011,21,Female,2024-03-01_14h32.09.498,jersey_experiment_5_v2,2023.2.2,Win32,85.47008547,,,,,,,,,,,,,,,,422.4027,424.4969,424.497,426.3086,return,1.226,,70.44270833,,,,,,FBP-RB-81.png,0.4,1.2,38,0.5,0,57,57,37,1,,,,,,,,,,,,,,,,,,,,,,,,,,,,,,,,,,,,,,,,
,,,,,V2_011,21,Female,2024-03-01_14h32.09.498,jersey_experiment_5_v2,2023.2.2,Win32,85.47008547,,,,,,,,,,,,,,,,426.3089,428.4029,428.4029,429.2145,return,0.2085,,76.69270833,,,,,,FBP-RB-71.png,0.43,1.2,34,0.5,0,58,58,33,1,,,,,,,,,,,,,,,,,,,,,,,,,,,,,,,,,,,,,,,,
,,,,,V2_011,21,Female,2024-03-01_14h32.09.498,jersey_experiment_5_v2,2023.2.2,Win32,85.47008547,,,,,,,,,,,,,,,,429.2148,431.3206,431.3206,432.05,return,0.0992,,84.63541667,,,,,,FBP-OG-71.png,0.43,1.2,19,0.5,0,59,59,18,1,,,,,,,,,,,,,,,,,,,,,,,,,,,,,,,,,,,,,,,,
,,,,,V2_011,21,Female,2024-03-01_14h32.09.498,jersey_experiment_5_v2,2023.2.2,Win32,85.47008547,,,,,,,,,,,,,,,,,,,,,,,,,,,,,,,,,,,,,,,432.0505,552.0429,,,,,,,,,,,,,,,,,,,,,,,,,,,,,,,,,,,,,,
,,,,,V2_011,21,Female,2024-03-01_14h32.09.498,jersey_experiment_5_v2,2023.2.2,Win32,85.47008547,,,,,,,,,,,,,,,,,,,,,,,,,,,,,,,,,,,,,,,,,552.043,553.8429,return,1.7925,,,,,,,,,,,,,,,,,,,,,,,,,,,,,,,,,,
,,,,,V2_011,21,Female,2024-03-01_14h32.09.498,jersey_experiment_5_v2,2023.2.2,Win32,85.47008547,,,,,,,,,,,,,,,,553.8494,555.9606,555.9607,558.1016,return,1.0698,,79.42708333,,,,,,FBP-PT-19.png,0.45,1.2,15,0.5,,,,,,,,,,,,,0,0,0,14,1,,,,,,,,,,,,,,,,,,,,,,,,,,,,
,,,,,V2_011,21,Female,2024-03-01_14h32.09.498,jersey_experiment_5_v2,2023.2.2,Win32,85.47008547,,,,,,,,,,,,,,,,558.1019,559.949,559.9491,561.0549,return,0.1245,,33.72395833,,,,,,FBP-OG-19.png,0.4,1.2,28,0.25,,,,,,,,,,,,,0,1,1,27,1,,,,,,,,,,,,,,,,,,,,,,,,,,,,
,,,,,V2_011,21,Female,2024-03-01_14h32.09.498,jersey_experiment_5_v2,2023.2.2,Win32,85.47008547,,,,,,,,,,,,,,,,561.0551,562.902,562.902,563.6314,return,0.1362,,63.54166667,,,,,,FBP-OG-19.png,0.43,1.2,29,0.25,,,,,,,,,,,,,0,2,2,28,1,,,,,,,,,,,,,,,,,,,,,,,,,,,,
,,,,,V2_011,21,Female,2024-03-01_14h32.09.498,jersey_experiment_5_v2,2023.2.2,Win32,85.47008547,,,,,,,,,,,,,,,,563.6315,565.7374,565.7374,566.2431,return,0.0618,,64.97395833,,,,,,FBP-PT-18.png,0.43,1.2,9,0.5,,,,,,,,,,,,,0,3,3,8,1,,,,,,,,,,,,,,,,,,,,,,,,,,,,
,,,,,V2_011,21,Female,2024-03-01_14h32.09.498,jersey_experiment_5_v2,2023.2.2,Win32,85.47008547,,,,,,,,,,,,,,,,566.2432,568.0905,568.0906,569.0433,return,0.0509,,33.46354167,,,,,,FBP-OG-19.png,0.37,1.2,27,0.25,,,,,,,,,,,,,0,4,4,26,1,,,,,,,,,,,,,,,,,,,,,,,,,,,,
,,,,,V2_011,21,Female,2024-03-01_14h32.09.498,jersey_experiment_5_v2,2023.2.2,Win32,85.47008547,,,,,,,,,,,,,,,,569.0435,571.1493,571.1494,571.7493,return,0.2005,,32.16145833,,,,,,FBP-PT-18.png,0.37,1.2,7,0.5,,,,,,,,,,,,,0,5,5,6,1,,,,,,,,,,,,,,,,,,,,,,,,,,,,
,,,,,V2_011,21,Female,2024-03-01_14h32.09.498,jersey_experiment_5_v2,2023.2.2,Win32,85.47008547,,,,,,,,,,,,,,,,571.7494,573.6082,573.6082,574.7729,return,0.155,,90.49479167,,,,,,FBP-RB-17.png,0.45,1.2,35,0.25,,,,,,,,,,,,,0,6,6,34,1,,,,,,,,,,,,,,,,,,,,,,,,,,,,
,,,,,V2_011,21,Female,2024-03-01_14h32.09.498,jersey_experiment_5_v2,2023.2.2,Win32,85.47008547,,,,,,,,,,,,,,,,574.7732,576.6201,576.6201,577.1024,return,0.1018,,90.49479167,,,,,,FBP-YG-71.png,0.45,1.2,50,0.25,,,,,,,,,,,,,0,7,7,49,1,,,,,,,,,,,,,,,,,,,,,,,,,,,,
,,,,,V2_011,21,Female,2024-03-01_14h32.09.498,jersey_experiment_5_v2,2023.2.2,Win32,85.47008547,,,,,,,,,,,,,,,,577.1026,578.9496,578.9496,579.5024,return,0.0206,,83.59375,,,,,,FBP-OG-17.png,0.45,1.2,20,0.25,,,,,,,,,,,,,0,8,8,19,1,,,,,,,,,,,,,,,,,,,,,,,,,,,,
,,,,,V2_011,21,Female,2024-03-01_14h32.09.498,jersey_experiment_5_v2,2023.2.2,Win32,85.47008547,,,,,,,,,,,,,,,,579.5026,581.3614,581.3615,582.0674,return,0.0497,,85.15625,,,,,,FBP-OG-18.png,0.45,1.2,25,0.25,,,,,,,,,,,,,0,9,9,24,1,,,,,,,,,,,,,,,,,,,,,,,,,,,,
,,,,,V2_011,21,Female,2024-03-01_14h32.09.498,jersey_experiment_5_v2,2023.2.2,Win32,85.47008547,,,,,,,,,,,,,,,,582.0676,583.9263,583.9263,584.6438,return,0.074,,76.953125,,,,,,FBP-YG-81.png,0.43,1.2,54,0.25,,,,,,,,,,,,,0,10,10,53,1,,,,,,,,,,,,,,,,,,,,,,,,,,,,
,,,,,V2_011,21,Female,2024-03-01_14h32.09.498,jersey_experiment_5_v2,2023.2.2,Win32,85.47008547,,,,,,,,,,,,,,,,584.6439,586.7382,586.7383,589.5852,return,0.0767,,38.28125,,,,,,FBP-PT-19.png,0.37,1.2,12,0.5,,,,,,,,,,,,,0,11,11,11,1,,,,,,,,,,,,,,,,,,,,,,,,,,,,
,,,,,V2_011,21,Female,2024-03-01_14h32.09.498,jersey_experiment_5_v2,2023.2.2,Win32,85.47008547,,,,,,,,,,,,,,,,589.5854,591.6795,591.6795,592.3736,return,0.1075,,30.20833333,,,,,,FBP-PT-19.png,0.35,1.2,11,0.5,,,,,,,,,,,,,0,12,12,10,1,,,,,,,,,,,,,,,,,,,,,,,,,,,,
,,,,,V2_011,21,Female,2024-03-01_14h32.09.498,jersey_experiment_5_v2,2023.2.2,Win32,85.47008547,,,,,,,,,,,,,,,,592.3738,594.2208,594.2208,595.3265,return,0.2439,,85.41666667,,,,,,FBP-RB-19.png,0.43,1.2,44,0.25,,,,,,,,,,,,,0,13,13,43,1,,,,,,,,,,,,,,,,,,,,,,,,,,,,
,,,,,V2_011,21,Female,2024-03-01_14h32.09.498,jersey_experiment_5_v2,2023.2.2,Win32,85.47008547,,,,,,,,,,,,,,,,595.3268,597.1856,597.1856,597.715,return,0.0964,,78.77604167,,,,,,FBP-YG-91.png,0.45,1.2,60,0.25,,,,,,,,,,,,,0,14,14,59,1,,,,,,,,,,,,,,,,,,,,,,,,,,,,
,,,,,V2_011,21,Female,2024-03-01_14h32.09.498,jersey_experiment_5_v2,2023.2.2,Win32,85.47008547,,,,,,,,,,,,,,,,597.7152,599.5622,599.5622,600.2444,return,0.0497,,75.65104167,,,,,,FBP-RB-17.png,0.4,1.2,33,0.25,,,,,,,,,,,,,0,15,15,32,1,,,,,,,,,,,,,,,,,,,,,,,,,,,,
,,,,,V2_011,21,Female,2024-03-01_14h32.09.498,jersey_experiment_5_v2,2023.2.2,Win32,85.47008547,,,,,,,,,,,,,,,,600.2446,602.1035,602.1036,602.9505,return,0.0472,,95.44270833,,,,,,FBP-OG-19.png,0.45,1.2,30,0.25,,,,,,,,,,,,,0,16,16,29,1,,,,,,,,,,,,,,,,,,,,,,,,,,,,
,,,,,V2_011,21,Female,2024-03-01_14h32.09.498,jersey_experiment_5_v2,2023.2.2,Win32,85.47008547,,,,,,,,,,,,,,,,602.9507,605.0566,605.0566,605.7037,return,0.0335,,92.578125,,,,,,FBP-PT-17.png,0.45,1.2,5,0.5,,,,,,,,,,,,,0,17,17,4,1,,,,,,,,,,,,,,,,,,,,,,,,,,,,
,,,,,V2_011,21,Female,2024-03-01_14h32.09.498,jersey_experiment_5_v2,2023.2.2,Win32,85.47008547,,,,,,,,,,,,,,,,605.7039,607.5507,607.5508,608.3037,return,0.0531,,76.69270833,,,,,,FBP-OG-18.png,0.4,1.2,23,0.25,,,,,,,,,,,,,0,18,18,22,1,,,,,,,,,,,,,,,,,,,,,,,,,,,,
,,,,,V2_011,21,Female,2024-03-01_14h32.09.498,jersey_experiment_5_v2,2023.2.2,Win32,85.47008547,,,,,,,,,,,,,,,,608.3038,610.4095,610.4095,610.8566,return,0.0231,,72.265625,,,,,,FBP-PT-17.png,0.37,1.2,2,0.5,,,,,,,,,,,,,0,19,19,1,1,,,,,,,,,,,,,,,,,,,,,,,,,,,,
,,,,,V2_011,21,Female,2024-03-01_14h32.09.498,jersey_experiment_5_v2,2023.2.2,Win32,85.47008547,,,,,,,,,,,,,,,,610.8569,612.7155,612.7155,613.2214,return,0.1308,,71.22395833,,,,,,FBP-OG-18.png,0.37,1.2,22,0.25,,,,,,,,,,,,,0,20,20,21,1,,,,,,,,,,,,,,,,,,,,,,,,,,,,
,,,,,V2_011,21,Female,2024-03-01_14h32.09.498,jersey_experiment_5_v2,2023.2.2,Win32,85.47008547,,,,,,,,,,,,,,,,613.2216,615.0686,615.0686,615.7629,return,0.0402,,91.14583333,,,,,,FBP-RB-19.png,0.45,1.2,45,0.25,,,,,,,,,,,,,0,21,21,44,1,,,,,,,,,,,,,,,,,,,,,,,,,,,,
,,,,,V2_011,21,Female,2024-03-01_14h32.09.498,jersey_experiment_5_v2,2023.2.2,Win32,85.47008547,,,,,,,,,,,,,,,,615.7631,617.6097,617.6098,618.7512,return,0.0064,,46.09375,,,,,,FBP-YG-71.png,0.37,1.2,47,0.25,,,,,,,,,,,,,0,22,22,46,1,,,,,,,,,,,,,,,,,,,,,,,,,,,,
,,,,,V2_011,21,Female,2024-03-01_14h32.09.498,jersey_experiment_5_v2,2023.2.2,Win32,85.47008547,,,,,,,,,,,,,,,,618.7515,620.61,620.61,621.3039,return,0.0098,,32.03125,,,,,,FBP-YG-71.png,0.35,1.2,46,0.25,,,,,,,,,,,,,0,23,23,45,1,,,,,,,,,,,,,,,,,,,,,,,,,,,,
,,,,,V2_011,21,Female,2024-03-01_14h32.09.498,jersey_experiment_5_v2,2023.2.2,Win32,85.47008547,,,,,,,,,,,,,,,,621.3041,623.1513,623.1513,623.6806,return,0.1478,,33.59375,,,,,,FBP-RB-19.png,0.35,1.2,41,0.25,,,,,,,,,,,,,0,24,24,40,1,,,,,,,,,,,,,,,,,,,,,,,,,,,,
,,,,,V2_011,21,Female,2024-03-01_14h32.09.498,jersey_experiment_5_v2,2023.2.2,Win32,85.47008547,,,,,,,,,,,,,,,,623.6808,625.5279,625.5279,626.1513,return,0.1176,,64.84375,,,,,,FBP-RB-18.png,0.4,1.2,38,0.25,,,,,,,,,,,,,0,25,25,37,1,,,,,,,,,,,,,,,,,,,,,,,,,,,,
,,,,,V2_011,21,Female,2024-03-01_14h32.09.498,jersey_experiment_5_v2,2023.2.2,Win32,85.47008547,,,,,,,,,,,,,,,,626.1515,628.0103,628.0104,629.8337,return,0.721,,74.47916667,,,,,,FBP-OG-18.png,0.43,1.2,24,0.25,,,,,,,,,,,,,0,26,26,23,1,,,,,,,,,,,,,,,,,,,,,,,,,,,,
,,,,,V2_011,21,Female,2024-03-01_14h32.09.498,jersey_experiment_5_v2,2023.2.2,Win32,85.47008547,,,,,,,,,,,,,,,,629.834,631.681,631.6811,632.3868,return,0.0148,,42.70833333,,,,,,FBP-YG-91.png,0.37,1.2,57,0.25,,,,,,,,,,,,,0,27,27,56,1,,,,,,,,,,,,,,,,,,,,,,,,,,,,
,,,,,V2_011,21,Female,2024-03-01_14h32.09.498,jersey_experiment_5_v2,2023.2.2,Win32,85.47008547,,,,,,,,,,,,,,,,632.3871,634.2459,634.2459,636.5752,return,0.8645,,63.28125,,,,,,FBP-RB-17.png,0.43,1.2,34,0.25,,,,,,,,,,,,,0,28,28,33,1,,,,,,,,,,,,,,,,,,,,,,,,,,,,
,,,,,V2_011,21,Female,2024-03-01_14h32.09.498,jersey_experiment_5_v2,2023.2.2,Win32,85.47008547,,,,,,,,,,,,,,,,636.5755,638.6813,638.6813,639.3989,return,0.0475,,44.79166667,,,,,,FBP-PT-17.png,0.35,1.2,1,0.5,,,,,,,,,,,,,0,29,29,0,1,,,,,,,,,,,,,,,,,,,,,,,,,,,,
,,,,,V2_011,21,Female,2024-03-01_14h32.09.498,jersey_experiment_5_v2,2023.2.2,Win32,85.47008547,,,,,,,,,,,,,,,,639.399,641.2577,641.2578,642.1167,return,0.0143,,93.61979167,,,,,,FBP-YG-81.png,0.45,1.2,55,0.25,,,,,,,,,,,,,0,30,30,54,1,,,,,,,,,,,,,,,,,,,,,,,,,,,,
,,,,,V2_011,21,Female,2024-03-01_14h32.09.498,jersey_experiment_5_v2,2023.2.2,Win32,85.47008547,,,,,,,,,,,,,,,,642.1168,643.9755,643.9756,644.7873,return,0.0744,,46.22395833,,,,,,FBP-RB-18.png,0.35,1.2,36,0.25,,,,,,,,,,,,,0,31,31,35,1,,,,,,,,,,,,,,,,,,,,,,,,,,,,
,,,,,V2_011,21,Female,2024-03-01_14h32.09.498,jersey_experiment_5_v2,2023.2.2,Win32,85.47008547,,,,,,,,,,,,,,,,644.7875,646.8933,646.8933,648.2933,return,0.6238,,94.27083333,,,,,,FBP-PT-18.png,0.45,1.2,10,0.5,,,,,,,,,,,,,0,32,32,9,1,,,,,,,,,,,,,,,,,,,,,,,,,,,,
,,,,,V2_011,21,Female,2024-03-01_14h32.09.498,jersey_experiment_5_v2,2023.2.2,Win32,85.47008547,,,,,,,,,,,,,,,,648.2935,650.1407,650.1408,650.6582,return,0.0167,,82.03125,,,,,,FBP-YG-91.png,0.4,1.2,58,0.25,,,,,,,,,,,,,0,33,33,57,1,,,,,,,,,,,,,,,,,,,,,,,,,,,,
,,,,,V2_011,21,Female,2024-03-01_14h32.09.498,jersey_experiment_5_v2,2023.2.2,Win32,85.47008547,,,,,,,,,,,,,,,,650.6583,652.5053,652.5054,653.2347,return,0.062,,78.25520833,,,,,,FBP-OG-17.png,0.37,1.2,17,0.25,,,,,,,,,,,,,0,34,34,16,1,,,,,,,,,,,,,,,,,,,,,,,,,,,,
,,,,,V2_011,21,Female,2024-03-01_14h32.09.498,jersey_experiment_5_v2,2023.2.2,Win32,85.47008547,,,,,,,,,,,,,,,,653.2349,655.0818,655.0819,655.6818,return,0.0994,,84.63541667,,,,,,FBP-RB-18.png,0.43,1.2,39,0.25,,,,,,,,,,,,,0,35,35,38,1,,,,,,,,,,,,,,,,,,,,,,,,,,,,
,,,,,V2_011,21,Female,2024-03-01_14h32.09.498,jersey_experiment_5_v2,2023.2.2,Win32,85.47008547,,,,,,,,,,,,,,,,655.682,657.5291,657.5291,657.823,return,0.0889,,87.890625,,,,,,FBP-YG-81.png,0.4,1.2,53,0.25,,,,,,,,,,,,,0,36,36,52,1,,,,,,,,,,,,,,,,,,,,,,,,,,,,
,,,,,V2_011,21,Female,2024-03-01_14h32.09.498,jersey_experiment_5_v2,2023.2.2,Win32,85.47008547,,,,,,,,,,,,,,,,657.8231,659.9291,659.9291,660.529,return,0.1706,,89.71354167,,,,,,FBP-PT-17.png,0.43,1.2,4,0.5,,,,,,,,,,,,,0,37,37,3,1,,,,,,,,,,,,,,,,,,,,,,,,,,,,
,,,,,V2_011,21,Female,2024-03-01_14h32.09.498,jersey_experiment_5_v2,2023.2.2,Win32,85.47008547,,,,,,,,,,,,,,,,660.5292,662.3879,662.3879,662.8703,return,0.1188,,91.015625,,,,,,FBP-OG-17.png,0.43,1.2,19,0.25,,,,,,,,,,,,,0,38,38,18,1,,,,,,,,,,,,,,,,,,,,,,,,,,,,
,,,,,V2_011,21,Female,2024-03-01_14h32.09.498,jersey_experiment_5_v2,2023.2.2,Win32,85.47008547,,,,,,,,,,,,,,,,662.8706,664.7175,664.7175,665.6233,return,0.0004,,36.71875,,,,,,FBP-RB-17.png,0.35,1.2,31,0.25,,,,,,,,,,,,,0,39,39,30,1,,,,,,,,,,,,,,,,,,,,,,,,,,,,
,,,,,V2_011,21,Female,2024-03-01_14h32.09.498,jersey_experiment_5_v2,2023.2.2,Win32,85.47008547,,,,,,,,,,,,,,,,665.6236,667.4823,667.4823,668.5528,return,0.4569,,31.51041667,,,,,,FBP-RB-18.png,0.37,1.2,37,0.25,,,,,,,,,,,,,0,40,40,36,1,,,,,,,,,,,,,,,,,,,,,,,,,,,,
,,,,,V2_011,21,Female,2024-03-01_14h32.09.498,jersey_experiment_5_v2,2023.2.2,Win32,85.47008547,,,,,,,,,,,,,,,,668.5529,670.3999,670.3999,670.8942,return,0.1854,,32.03125,,,,,,FBP-OG-19.png,0.35,1.2,26,0.25,,,,,,,,,,,,,0,41,41,25,1,,,,,,,,,,,,,,,,,,,,,,,,,,,,
,,,,,V2_011,21,Female,2024-03-01_14h32.09.498,jersey_experiment_5_v2,2023.2.2,Win32,85.47008547,,,,,,,,,,,,,,,,670.8944,672.9886,672.9886,673.8118,return,0.2265,,32.55208333,,,,,,FBP-PT-18.png,0.35,1.2,6,0.5,,,,,,,,,,,,,0,42,42,5,1,,,,,,,,,,,,,,,,,,,,,,,,,,,,
,,,,,V2_011,21,Female,2024-03-01_14h32.09.498,jersey_experiment_5_v2,2023.2.2,Win32,85.47008547,,,,,,,,,,,,,,,,673.812,675.659,675.6591,676.1651,return,0.0375,,64.58333333,,,,,,FBP-RB-19.png,0.4,1.2,43,0.25,,,,,,,,,,,,,0,43,43,42,1,,,,,,,,,,,,,,,,,,,,,,,,,,,,
,,,,,V2_011,21,Female,2024-03-01_14h32.09.498,jersey_experiment_5_v2,2023.2.2,Win32,85.47008547,,,,,,,,,,,,,,,,676.1656,678.2709,678.2709,679.2825,return,0.0988,,89.453125,,,,,,FBP-PT-19.png,0.43,1.2,14,0.5,,,,,,,,,,,,,0,44,44,13,1,,,,,,,,,,,,,,,,,,,,,,,,,,,,
,,,,,V2_011,21,Female,2024-03-01_14h32.09.498,jersey_experiment_5_v2,2023.2.2,Win32,85.47008547,,,,,,,,,,,,,,,,679.2827,681.1416,681.1416,683.7533,return,1.4354,,39.453125,,,,,,FBP-OG-17.png,0.35,1.2,16,0.25,,,,,,,,,,,,,0,45,45,15,1,,,,,,,,,,,,,,,,,,,,,,,,,,,,
,,,,,V2_011,21,Female,2024-03-01_14h32.09.498,jersey_experiment_5_v2,2023.2.2,Win32,85.47008547,,,,,,,,,,,,,,,,683.7535,685.6006,685.6006,687.5067,return,0.0266,,58.07291667,,,,,,FBP-YG-81.png,0.37,1.2,52,0.25,,,,,,,,,,,,,0,46,46,51,1,,,,,,,,,,,,,,,,,,,,,,,,,,,,
,,,,,V2_011,21,Female,2024-03-01_14h32.09.498,jersey_experiment_5_v2,2023.2.2,Win32,85.47008547,,,,,,,,,,,,,,,,687.5069,689.6007,689.6008,690.4831,return,0.0612,,68.359375,,,,,,FBP-PT-17.png,0.4,1.2,3,0.5,,,,,,,,,,,,,0,47,47,2,1,,,,,,,,,,,,,,,,,,,,,,,,,,,,
,,,,,V2_011,21,Female,2024-03-01_14h32.09.498,jersey_experiment_5_v2,2023.2.2,Win32,85.47008547,,,,,,,,,,,,,,,,690.4833,692.3304,692.3304,693.1183,return,0.0425,,42.31770833,,,,,,FBP-RB-19.png,0.37,1.2,42,0.25,,,,,,,,,,,,,0,48,48,41,1,,,,,,,,,,,,,,,,,,,,,,,,,,,,
,,,,,V2_011,21,Female,2024-03-01_14h32.09.498,jersey_experiment_5_v2,2023.2.2,Win32,85.47008547,,,,,,,,,,,,,,,,693.1186,694.9775,694.9775,695.6833,return,0.1686,,34.89583333,,,,,,FBP-RB-17.png,0.37,1.2,32,0.25,,,,,,,,,,,,,0,49,49,31,1,,,,,,,,,,,,,,,,,,,,,,,,,,,,
,,,,,V2_011,21,Female,2024-03-01_14h32.09.498,jersey_experiment_5_v2,2023.2.2,Win32,85.47008547,,,,,,,,,,,,,,,,695.6836,697.5421,697.5422,698.1657,return,0.1073,,83.33333333,,,,,,FBP-RB-18.png,0.45,1.2,40,0.25,,,,,,,,,,,,,0,50,50,39,1,,,,,,,,,,,,,,,,,,,,,,,,,,,,
,,,,,V2_011,21,Female,2024-03-01_14h32.09.498,jersey_experiment_5_v2,2023.2.2,Win32,85.47008547,,,,,,,,,,,,,,,,698.1659,700.0246,700.0247,700.8482,return,0.0655,,80.859375,,,,,,FBP-YG-71.png,0.4,1.2,48,0.25,,,,,,,,,,,,,0,51,51,47,1,,,,,,,,,,,,,,,,,,,,,,,,,,,,
,,,,,V2_011,21,Female,2024-03-01_14h32.09.498,jersey_experiment_5_v2,2023.2.2,Win32,85.47008547,,,,,,,,,,,,,,,,700.8484,702.7073,702.7073,703.4011,return,0.0106,,45.57291667,,,,,,FBP-OG-18.png,0.35,1.2,21,0.25,,,,,,,,,,,,,0,52,52,20,1,,,,,,,,,,,,,,,,,,,,,,,,,,,,
,,,,,V2_011,21,Female,2024-03-01_14h32.09.498,jersey_experiment_5_v2,2023.2.2,Win32,85.47008547,,,,,,,,,,,,,,,,703.4014,705.2485,705.2486,706.2484,return,0.0705,,90.234375,,,,,,FBP-YG-91.png,0.43,1.2,59,0.25,,,,,,,,,,,,,0,53,53,58,1,,,,,,,,,,,,,,,,,,,,,,,,,,,,
,,,,,V2_011,21,Female,2024-03-01_14h32.09.498,jersey_experiment_5_v2,2023.2.2,Win32,85.47008547,,,,,,,,,,,,,,,,706.2486,708.1072,708.1072,708.7075,return,0.1438,,80.59895833,,,,,,FBP-YG-81.png,0.35,1.2,51,0.25,,,,,,,,,,,,,0,54,54,50,1,,,,,,,,,,,,,,,,,,,,,,,,,,,,
,,,,,V2_011,21,Female,2024-03-01_14h32.09.498,jersey_experiment_5_v2,2023.2.2,Win32,85.47008547,,,,,,,,,,,,,,,,708.7077,710.5662,710.5663,711.1545,return,0.0272,,87.890625,,,,,,FBP-YG-71.png,0.43,1.2,49,0.25,,,,,,,,,,,,,0,55,55,48,1,,,,,,,,,,,,,,,,,,,,,,,,,,,,
,,,,,V2_011,21,Female,2024-03-01_14h32.09.498,jersey_experiment_5_v2,2023.2.2,Win32,85.47008547,,,,,,,,,,,,,,,,711.1547,713.0016,713.0017,714.531,return,0.7666,,42.578125,,,,,,FBP-YG-91.png,0.35,1.2,56,0.25,,,,,,,,,,,,,0,56,56,55,1,,,,,,,,,,,,,,,,,,,,,,,,,,,,
,,,,,V2_011,21,Female,2024-03-01_14h32.09.498,jersey_experiment_5_v2,2023.2.2,Win32,85.47008547,,,,,,,,,,,,,,,,714.5312,716.6372,716.6372,717.2253,return,0.0139,,66.015625,,,,,,FBP-PT-19.png,0.4,1.2,13,0.5,,,,,,,,,,,,,0,57,57,12,1,,,,,,,,,,,,,,,,,,,,,,,,,,,,
,,,,,V2_011,21,Female,2024-03-01_14h32.09.498,jersey_experiment_5_v2,2023.2.2,Win32,85.47008547,,,,,,,,,,,,,,,,717.2255,719.0724,719.0724,719.5429,return,0.0236,,71.22395833,,,,,,FBP-OG-17.png,0.4,1.2,18,0.25,,,,,,,,,,,,,0,58,58,17,1,,,,,,,,,,,,,,,,,,,,,,,,,,,,
,,,,,V2_011,21,Female,2024-03-01_14h32.09.498,jersey_experiment_5_v2,2023.2.2,Win32,85.47008547,,,,,,,,,,,,,,,,719.5432,721.6372,721.6372,722.1784,return,0.146,,69.921875,,,,,,FBP-PT-18.png,0.4,1.2,8,0.5,,,,,,,,,,,,,0,59,59,7,1,,,,,,,,,,,,,,,,,,,,,,,,,,,,
,,,,,V2_011,21,Female,2024-03-01_14h32.09.498,jersey_experiment_5_v2,2023.2.2,Win32,85.47008547,,,,,,,,,,,,,,,,722.1806,724.0371,724.0372,726.0962,return,0.3951,,70.44270833,,,,,,FBP-OG-91.png,0.45,1.2,30,0.25,,,,,,,,,,,,,,,,,,0,0,0,29,1,,,,,,,,,,,,,,,,,,,,,,,
,,,,,V2_011,21,Female,2024-03-01_14h32.09.498,jersey_experiment_5_v2,2023.2.2,Win32,85.47008547,,,,,,,,,,,,,,,,726.0964,727.9432,727.9433,731.3315,return,0.5553,,63.93229167,,,,,,FBP-OG-81.png,0.43,1.2,24,0.25,,,,,,,,,,,,,,,,,,0,1,1,23,1,,,,,,,,,,,,,,,,,,,,,,,
,,,,,V2_011,21,Female,2024-03-01_14h32.09.498,jersey_experiment_5_v2,2023.2.2,Win32,85.47008547,,,,,,,,,,,,,,,,731.3317,733.4258,733.4258,734.5671,return,0.5179,,80.46875,,,,,,FBP-PT-71.png,0.43,1.2,4,0.5,,,,,,,,,,,,,,,,,,0,2,2,3,1,,,,,,,,,,,,,,,,,,,,,,,
,,,,,V2_011,21,Female,2024-03-01_14h32.09.498,jersey_experiment_5_v2,2023.2.2,Win32,85.47008547,,,,,,,,,,,,,,,,734.5673,736.4142,736.4142,737.9909,return,0.9523,,44.01041667,,,,,,FBP-RB-91.png,0.4,1.2,43,0.25,,,,,,,,,,,,,,,,,,0,3,3,42,1,,,,,,,,,,,,,,,,,,,,,,,
,,,,,V2_011,21,Female,2024-03-01_14h32.09.498,jersey_experiment_5_v2,2023.2.2,Win32,85.47008547,,,,,,,,,,,,,,,,737.9911,740.0848,740.085,740.9673,return,0.0707,,31.38020833,,,,,,FBP-PT-81.png,0.37,1.2,7,0.5,,,,,,,,,,,,,,,,,,0,4,4,6,1,,,,,,,,,,,,,,,,,,,,,,,
,,,,,V2_011,21,Female,2024-03-01_14h32.09.498,jersey_experiment_5_v2,2023.2.2,Win32,85.47008547,,,,,,,,,,,,,,,,740.9676,742.8263,742.8263,743.7792,return,0.0378,,88.15104167,,,,,,FBP-RB-71.png,0.43,1.2,34,0.25,,,,,,,,,,,,,,,,,,0,5,5,33,1,,,,,,,,,,,,,,,,,,,,,,,
,,,,,V2_011,21,Female,2024-03-01_14h32.09.498,jersey_experiment_5_v2,2023.2.2,Win32,85.47008547,,,,,,,,,,,,,,,,743.7794,745.6265,745.6265,747.2735,return,0.4129,,45.83333333,,,,,,FBP-YG-19.png,0.35,1.2,56,0.25,,,,,,,,,,,,,,,,,,0,6,6,55,1,,,,,,,,,,,,,,,,,,,,,,,
,,,,,V2_011,21,Female,2024-03-01_14h32.09.498,jersey_experiment_5_v2,2023.2.2,Win32,85.47008547,,,,,,,,,,,,,,,,747.2736,749.1323,749.1324,749.7794,return,0.202,,41.66666667,,,,,,FBP-OG-81.png,0.37,1.2,22,0.25,,,,,,,,,,,,,,,,,,0,7,7,21,1,,,,,,,,,,,,,,,,,,,,,,,
,,,,,V2_011,21,Female,2024-03-01_14h32.09.498,jersey_experiment_5_v2,2023.2.2,Win32,85.47008547,,,,,,,,,,,,,,,,749.7796,751.6382,751.6382,752.9324,return,0.0498,,23.30729167,,,,,,FBP-RB-91.png,0.35,1.2,41,0.25,,,,,,,,,,,,,,,,,,0,8,8,40,1,,,,,,,,,,,,,,,,,,,,,,,
,,,,,V2_011,21,Female,2024-03-01_14h32.09.498,jersey_experiment_5_v2,2023.2.2,Win32,85.47008547,,,,,,,,,,,,,,,,752.9327,755.0384,755.0385,756.2973,return,0.071,,88.02083333,,,,,,FBP-PT-81.png,0.45,1.2,10,0.5,,,,,,,,,,,,,,,,,,0,9,9,9,1,,,,,,,,,,,,,,,,,,,,,,,
,,,,,V2_011,21,Female,2024-03-01_14h32.09.498,jersey_experiment_5_v2,2023.2.2,Win32,85.47008547,,,,,,,,,,,,,,,,756.2974,758.1445,758.1446,759.2031,return,0.3791,,32.421875,,,,,,FBP-OG-71.png,0.35,1.2,16,0.25,,,,,,,,,,,,,,,,,,0,10,10,15,1,,,,,,,,,,,,,,,,,,,,,,,
,,,,,V2_011,21,Female,2024-03-01_14h32.09.498,jersey_experiment_5_v2,2023.2.2,Win32,85.47008547,,,,,,,,,,,,,,,,759.2033,761.0504,761.0504,761.5562,return,0.0235,,28.125,,,,,,FBP-YG-17.png,0.35,1.2,46,0.25,,,,,,,,,,,,,,,,,,0,11,11,45,1,,,,,,,,,,,,,,,,,,,,,,,
,,,,,V2_011,21,Female,2024-03-01_14h32.09.498,jersey_experiment_5_v2,2023.2.2,Win32,85.47008547,,,,,,,,,,,,,,,,761.5564,763.4035,763.4035,764.4977,return,0.2528,,25.26041667,,,,,,FBP-YG-17.png,0.37,1.2,47,0.25,,,,,,,,,,,,,,,,,,0,12,12,46,1,,,,,,,,,,,,,,,,,,,,,,,
,,,,,V2_011,21,Female,2024-03-01_14h32.09.498,jersey_experiment_5_v2,2023.2.2,Win32,85.47008547,,,,,,,,,,,,,,,,764.4977,766.3565,766.3565,767.0153,return,0.0364,,19.01041667,,,,,,FBP-YG-17.png,0.4,1.2,48,0.25,,,,,,,,,,,,,,,,,,0,13,13,47,1,,,,,,,,,,,,,,,,,,,,,,,
,,,,,V2_011,21,Female,2024-03-01_14h32.09.498,jersey_experiment_5_v2,2023.2.2,Win32,85.47008547,,,,,,,,,,,,,,,,767.0154,769.1098,769.1098,771.2039,return,0.1566,,92.44791667,,,,,,FBP-PT-81.png,0.43,1.2,9,0.5,,,,,,,,,,,,,,,,,,0,14,14,8,1,,,,,,,,,,,,,,,,,,,,,,,
,,,,,V2_011,21,Female,2024-03-01_14h32.09.498,jersey_experiment_5_v2,2023.2.2,Win32,85.47008547,,,,,,,,,,,,,,,,771.2041,773.0626,773.0627,775.0156,return,1.2834,,37.109375,,,,,,FBP-RB-71.png,0.35,1.2,31,0.25,,,,,,,,,,,,,,,,,,0,15,15,30,1,,,,,,,,,,,,,,,,,,,,,,,
,,,,,V2_011,21,Female,2024-03-01_14h32.09.498,jersey_experiment_5_v2,2023.2.2,Win32,85.47008547,,,,,,,,,,,,,,,,775.0158,776.8628,776.8628,777.4393,return,0.067,,80.72916667,,,,,,FBP-YG-18.png,0.4,1.2,53,0.25,,,,,,,,,,,,,,,,,,0,16,16,52,1,,,,,,,,,,,,,,,,,,,,,,,
,,,,,V2_011,21,Female,2024-03-01_14h32.09.498,jersey_experiment_5_v2,2023.2.2,Win32,85.47008547,,,,,,,,,,,,,,,,777.4395,779.2983,779.2984,780.0394,return,0.0108,,40.49479167,,,,,,FBP-YG-18.png,0.35,1.2,51,0.25,,,,,,,,,,,,,,,,,,0,17,17,50,1,,,,,,,,,,,,,,,,,,,,,,,
,,,,,V2_011,21,Female,2024-03-01_14h32.09.498,jersey_experiment_5_v2,2023.2.2,Win32,85.47008547,,,,,,,,,,,,,,,,780.0396,781.8983,781.8984,783.0395,return,0.1841,,92.44791667,,,,,,FBP-YG-17.png,0.43,1.2,49,0.25,,,,,,,,,,,,,,,,,,0,18,18,48,1,,,,,,,,,,,,,,,,,,,,,,,
,,,,,V2_011,21,Female,2024-03-01_14h32.09.498,jersey_experiment_5_v2,2023.2.2,Win32,85.47008547,,,,,,,,,,,,,,,,783.0397,785.1336,785.1337,786.7454,return,0.0471,,99.73958333,,,,,,FBP-PT-71.png,0.45,1.2,5,0.5,,,,,,,,,,,,,,,,,,0,19,19,4,1,,,,,,,,,,,,,,,,,,,,,,,
,,,,,V2_011,21,Female,2024-03-01_14h32.09.498,jersey_experiment_5_v2,2023.2.2,Win32,85.47008547,,,,,,,,,,,,,,,,786.7457,788.5928,788.5929,789.6985,return,0.4268,,81.51041667,,,,,,FBP-OG-81.png,0.4,1.2,23,0.25,,,,,,,,,,,,,,,,,,0,20,20,22,1,,,,,,,,,,,,,,,,,,,,,,,
,,,,,V2_011,21,Female,2024-03-01_14h32.09.498,jersey_experiment_5_v2,2023.2.2,Win32,85.47008547,,,,,,,,,,,,,,,,789.6988,791.8048,791.8048,792.7457,return,0.0236,,63.93229167,,,,,,FBP-PT-71.png,0.37,1.2,2,0.5,,,,,,,,,,,,,,,,,,0,21,21,1,1,,,,,,,,,,,,,,,,,,,,,,,
,,,,,V2_011,21,Female,2024-03-01_14h32.09.498,jersey_experiment_5_v2,2023.2.2,Win32,85.47008547,,,,,,,,,,,,,,,,792.7459,794.8516,794.8516,795.9458,return,0.4567,,24.86979167,,,,,,FBP-PT-71.png,0.35,1.2,1,0.5,,,,,,,,,,,,,,,,,,0,22,22,0,1,,,,,,,,,,,,,,,,,,,,,,,
,,,,,V2_011,21,Female,2024-03-01_14h32.09.498,jersey_experiment_5_v2,2023.2.2,Win32,85.47008547,,,,,,,,,,,,,,,,795.9459,797.7929,797.7929,798.4989,return,0.2278,,25.65104167,,,,,,FBP-OG-91.png,0.37,1.2,27,0.25,,,,,,,,,,,,,,,,,,0,23,23,26,1,,,,,,,,,,,,,,,,,,,,,,,
,,,,,V2_011,21,Female,2024-03-01_14h32.09.498,jersey_experiment_5_v2,2023.2.2,Win32,85.47008547,,,,,,,,,,,,,,,,798.499,800.3459,800.346,802.1696,return,0.2821,,63.28125,,,,,,FBP-YG-19.png,0.43,1.2,59,0.25,,,,,,,,,,,,,,,,,,0,24,24,58,1,,,,,,,,,,,,,,,,,,,,,,,
,,,,,V2_011,21,Female,2024-03-01_14h32.09.498,jersey_experiment_5_v2,2023.2.2,Win32,85.47008547,,,,,,,,,,,,,,,,802.1698,804.0168,804.0168,804.9813,return,0.1662,,95.18229167,,,,,,FBP-YG-18.png,0.43,1.2,54,0.25,,,,,,,,,,,,,,,,,,0,25,25,53,1,,,,,,,,,,,,,,,,,,,,,,,
,,,,,V2_011,21,Female,2024-03-01_14h32.09.498,jersey_experiment_5_v2,2023.2.2,Win32,85.47008547,,,,,,,,,,,,,,,,804.9816,806.8402,806.8402,807.4169,return,0.0936,,97.78645833,,,,,,FBP-RB-81.png,0.45,1.2,40,0.25,,,,,,,,,,,,,,,,,,0,26,26,39,1,,,,,,,,,,,,,,,,,,,,,,,
,,,,,V2_011,21,Female,2024-03-01_14h32.09.498,jersey_experiment_5_v2,2023.2.2,Win32,85.47008547,,,,,,,,,,,,,,,,807.417,809.2757,809.2757,810.0523,return,0.0854,,85.80729167,,,,,,FBP-YG-19.png,0.37,1.2,57,0.25,,,,,,,,,,,,,,,,,,0,27,27,56,1,,,,,,,,,,,,,,,,,,,,,,,
,,,,,V2_011,21,Female,2024-03-01_14h32.09.498,jersey_experiment_5_v2,2023.2.2,Win32,85.47008547,,,,,,,,,,,,,,,,810.0526,811.9111,811.9112,812.6641,return,0.2251,,85.546875,,,,,,FBP-OG-71.png,0.43,1.2,19,0.25,,,,,,,,,,,,,,,,,,0,28,28,18,1,,,,,,,,,,,,,,,,,,,,,,,
,,,,,V2_011,21,Female,2024-03-01_14h32.09.498,jersey_experiment_5_v2,2023.2.2,Win32,85.47008547,,,,,,,,,,,,,,,,812.6643,814.5231,814.5231,815.7112,return,0.149,,34.24479167,,,,,,FBP-YG-18.png,0.37,1.2,52,0.25,,,,,,,,,,,,,,,,,,0,29,29,51,1,,,,,,,,,,,,,,,,,,,,,,,
,,,,,V2_011,21,Female,2024-03-01_14h32.09.498,jersey_experiment_5_v2,2023.2.2,Win32,85.47008547,,,,,,,,,,,,,,,,815.7114,817.8172,817.8172,818.4996,return,0.1432,,61.97916667,,,,,,FBP-PT-71.png,0.4,1.2,3,0.5,,,,,,,,,,,,,,,,,,0,30,30,2,1,,,,,,,,,,,,,,,,,,,,,,,
,,,,,V2_011,21,Female,2024-03-01_14h32.09.498,jersey_experiment_5_v2,2023.2.2,Win32,85.47008547,,,,,,,,,,,,,,,,818.4999,820.5938,820.5938,821.6055,return,0.3531,,92.70833333,,,,,,FBP-PT-91.png,0.45,1.2,15,0.5,,,,,,,,,,,,,,,,,,0,31,31,14,1,,,,,,,,,,,,,,,,,,,,,,,
,,,,,V2_011,21,Female,2024-03-01_14h32.09.498,jersey_experiment_5_v2,2023.2.2,Win32,85.47008547,,,,,,,,,,,,,,,,821.6057,823.4645,823.4646,824.0174,return,0.0629,,69.921875,,,,,,FBP-RB-71.png,0.37,1.2,32,0.25,,,,,,,,,,,,,,,,,,0,32,32,31,1,,,,,,,,,,,,,,,,,,,,,,,
,,,,,V2_011,21,Female,2024-03-01_14h32.09.498,jersey_experiment_5_v2,2023.2.2,Win32,85.47008547,,,,,,,,,,,,,,,,824.0176,825.8646,825.8646,826.794,return,0.2451,,70.96354167,,,,,,FBP-YG-19.png,0.4,1.2,58,0.25,,,,,,,,,,,,,,,,,,0,33,33,57,1,,,,,,,,,,,,,,,,,,,,,,,
,,,,,V2_011,21,Female,2024-03-01_14h32.09.498,jersey_experiment_5_v2,2023.2.2,Win32,85.47008547,,,,,,,,,,,,,,,,826.7942,828.6528,828.6529,829.1823,return,0.077,,84.63541667,,,,,,FBP-RB-81.png,0.43,1.2,39,0.25,,,,,,,,,,,,,,,,,,0,34,34,38,1,,,,,,,,,,,,,,,,,,,,,,,
,,,,,V2_011,21,Female,2024-03-01_14h32.09.498,jersey_experiment_5_v2,2023.2.2,Win32,85.47008547,,,,,,,,,,,,,,,,829.1826,831.0413,831.0413,831.7588,return,0.1966,,86.19791667,,,,,,FBP-OG-71.png,0.4,1.2,18,0.25,,,,,,,,,,,,,,,,,,0,35,35,17,1,,,,,,,,,,,,,,,,,,,,,,,
,,,,,V2_011,21,Female,2024-03-01_14h32.09.498,jersey_experiment_5_v2,2023.2.2,Win32,85.47008547,,,,,,,,,,,,,,,,831.759,833.8649,833.8649,834.6649,return,0.1656,,32.55208333,,,,,,FBP-PT-91.png,0.35,1.2,11,0.5,,,,,,,,,,,,,,,,,,0,36,36,10,1,,,,,,,,,,,,,,,,,,,,,,,
,,,,,V2_011,21,Female,2024-03-01_14h32.09.498,jersey_experiment_5_v2,2023.2.2,Win32,85.47008547,,,,,,,,,,,,,,,,834.6652,836.5239,836.524,837.065,return,0.117,,42.70833333,,,,,,FBP-OG-71.png,0.37,1.2,17,0.25,,,,,,,,,,,,,,,,,,0,37,37,16,1,,,,,,,,,,,,,,,,,,,,,,,
,,,,,V2_011,21,Female,2024-03-01_14h32.09.498,jersey_experiment_5_v2,2023.2.2,Win32,85.47008547,,,,,,,,,,,,,,,,837.0652,838.9121,838.9121,839.7591,return,0.089,,64.19270833,,,,,,FBP-RB-71.png,0.4,1.2,33,0.25,,,,,,,,,,,,,,,,,,0,38,38,32,1,,,,,,,,,,,,,,,,,,,,,,,
,,,,,V2_011,21,Female,2024-03-01_14h32.09.498,jersey_experiment_5_v2,2023.2.2,Win32,85.47008547,,,,,,,,,,,,,,,,839.7594,841.6063,841.6063,842.5121,return,0.1713,,92.70833333,,,,,,FBP-YG-19.png,0.45,1.2,60,0.25,,,,,,,,,,,,,,,,,,0,39,39,59,1,,,,,,,,,,,,,,,,,,,,,,,
,,,,,V2_011,21,Female,2024-03-01_14h32.09.498,jersey_experiment_5_v2,2023.2.2,Win32,85.47008547,,,,,,,,,,,,,,,,842.5123,844.3712,844.3712,844.9592,return,0.4181,,79.16666667,,,,,,FBP-OG-91.png,0.4,1.2,28,0.25,,,,,,,,,,,,,,,,,,0,40,40,27,1,,,,,,,,,,,,,,,,,,,,,,,
,,,,,V2_011,21,Female,2024-03-01_14h32.09.498,jersey_experiment_5_v2,2023.2.2,Win32,85.47008547,,,,,,,,,,,,,,,,844.9594,847.0654,847.0655,847.8889,return,0.0982,,70.703125,,,,,,FBP-PT-91.png,0.43,1.2,14,0.5,,,,,,,,,,,,,,,,,,0,41,41,13,1,,,,,,,,,,,,,,,,,,,,,,,
,,,,,V2_011,21,Female,2024-03-01_14h32.09.498,jersey_experiment_5_v2,2023.2.2,Win32,85.47008547,,,,,,,,,,,,,,,,847.8891,849.7478,849.7479,851.2539,return,0.178,,73.69791667,,,,,,FBP-OG-71.png,0.45,1.2,20,0.25,,,,,,,,,,,,,,,,,,0,42,42,19,1,,,,,,,,,,,,,,,,,,,,,,,
,,,,,V2_011,21,Female,2024-03-01_14h32.09.498,jersey_experiment_5_v2,2023.2.2,Win32,85.47008547,,,,,,,,,,,,,,,,851.254,853.3596,853.3597,854.0538,return,0.0468,,75,,,,,,FBP-PT-81.png,0.35,1.2,6,0.5,,,,,,,,,,,,,,,,,,0,43,43,5,1,,,,,,,,,,,,,,,,,,,,,,,
,,,,,V2_011,21,Female,2024-03-01_14h32.09.498,jersey_experiment_5_v2,2023.2.2,Win32,85.47008547,,,,,,,,,,,,,,,,854.0541,855.901,855.901,856.8186,return,0.2496,,95.96354167,,,,,,FBP-YG-18.png,0.45,1.2,55,0.25,,,,,,,,,,,,,,,,,,0,44,44,54,1,,,,,,,,,,,,,,,,,,,,,,,
,,,,,V2_011,21,Female,2024-03-01_14h32.09.498,jersey_experiment_5_v2,2023.2.2,Win32,85.47008547,,,,,,,,,,,,,,,,856.8188,858.6774,858.6775,859.4659,return,0.1881,,95.703125,,,,,,FBP-RB-71.png,0.45,1.2,35,0.25,,,,,,,,,,,,,,,,,,0,45,45,34,1,,,,,,,,,,,,,,,,,,,,,,,
,,,,,V2_011,21,Female,2024-03-01_14h32.09.498,jersey_experiment_5_v2,2023.2.2,Win32,85.47008547,,,,,,,,,,,,,,,,859.4661,861.3129,861.3129,862.3717,return,0.0594,,82.68229167,,,,,,FBP-OG-81.png,0.45,1.2,25,0.25,,,,,,,,,,,,,,,,,,0,46,46,24,1,,,,,,,,,,,,,,,,,,,,,,,
,,,,,V2_011,21,Female,2024-03-01_14h32.09.498,jersey_experiment_5_v2,2023.2.2,Win32,85.47008547,,,,,,,,,,,,,,,,862.372,864.4779,864.4779,865.2894,return,0.047,,31.640625,,,,,,FBP-PT-81.png,0.4,1.2,8,0.5,,,,,,,,,,,,,,,,,,0,47,47,7,1,,,,,,,,,,,,,,,,,,,,,,,
,,,,,V2_011,21,Female,2024-03-01_14h32.09.498,jersey_experiment_5_v2,2023.2.2,Win32,85.47008547,,,,,,,,,,,,,,,,865.2897,867.1367,867.1368,867.8541,return,0.0419,,40.49479167,,,,,,FBP-RB-91.png,0.37,1.2,42,0.25,,,,,,,,,,,,,,,,,,0,48,48,41,1,,,,,,,,,,,,,,,,,,,,,,,
,,,,,V2_011,21,Female,2024-03-01_14h32.09.498,jersey_experiment_5_v2,2023.2.2,Win32,85.47008547,,,,,,,,,,,,,,,,867.8543,869.7131,869.7131,870.9368,return,0.4945,,17.70833333,,,,,,FBP-OG-81.png,0.35,1.2,21,0.25,,,,,,,,,,,,,,,,,,0,49,49,20,1,,,,,,,,,,,,,,,,,,,,,,,
,,,,,V2_011,21,Female,2024-03-01_14h32.09.498,jersey_experiment_5_v2,2023.2.2,Win32,85.47008547,,,,,,,,,,,,,,,,870.9369,872.7839,872.7839,873.5721,return,0.0027,,30.46875,,,,,,FBP-RB-81.png,0.4,1.2,38,0.25,,,,,,,,,,,,,,,,,,0,50,50,37,1,,,,,,,,,,,,,,,,,,,,,,,
,,,,,V2_011,21,Female,2024-03-01_14h32.09.498,jersey_experiment_5_v2,2023.2.2,Win32,85.47008547,,,,,,,,,,,,,,,,873.5724,875.6781,875.6782,876.337,return,0.0747,,30.46875,,,,,,FBP-PT-91.png,0.37,1.2,12,0.5,,,,,,,,,,,,,,,,,,0,51,51,11,1,,,,,,,,,,,,,,,,,,,,,,,
,,,,,V2_011,21,Female,2024-03-01_14h32.09.498,jersey_experiment_5_v2,2023.2.2,Win32,85.47008547,,,,,,,,,,,,,,,,876.3372,878.184,878.1841,879.396,return,0.203,,87.23958333,,,,,,FBP-YG-17.png,0.45,1.2,50,0.25,,,,,,,,,,,,,,,,,,0,52,52,49,1,,,,,,,,,,,,,,,,,,,,,,,
,,,,,V2_011,21,Female,2024-03-01_14h32.09.498,jersey_experiment_5_v2,2023.2.2,Win32,85.47008547,,,,,,,,,,,,,,,,879.3962,881.243,881.243,882.4666,return,0.0513,,8.463541667,,,,,,FBP-OG-91.png,0.35,1.2,26,0.25,,,,,,,,,,,,,,,,,,0,53,53,25,1,,,,,,,,,,,,,,,,,,,,,,,
,,,,,V2_011,21,Female,2024-03-01_14h32.09.498,jersey_experiment_5_v2,2023.2.2,Win32,85.47008547,,,,,,,,,,,,,,,,882.4667,884.3139,884.314,885.0902,return,0.0633,,94.53125,,,,,,FBP-RB-91.png,0.45,1.2,45,0.25,,,,,,,,,,,,,,,,,,0,54,54,44,1,,,,,,,,,,,,,,,,,,,,,,,
,,,,,V2_011,21,Female,2024-03-01_14h32.09.498,jersey_experiment_5_v2,2023.2.2,Win32,85.47008547,,,,,,,,,,,,,,,,885.0905,886.9492,886.9492,887.6785,return,0.0441,,31.11979167,,,,,,FBP-RB-81.png,0.35,1.2,36,0.25,,,,,,,,,,,,,,,,,,0,55,55,35,1,,,,,,,,,,,,,,,,,,,,,,,
,,,,,V2_011,21,Female,2024-03-01_14h32.09.498,jersey_experiment_5_v2,2023.2.2,Win32,85.47008547,,,,,,,,,,,,,,,,887.6787,889.7729,889.7729,891.0435,return,0.1897,,45.3125,,,,,,FBP-PT-91.png,0.4,1.2,13,0.5,,,,,,,,,,,,,,,,,,0,56,56,12,1,,,,,,,,,,,,,,,,,,,,,,,
,,,,,V2_011,21,Female,2024-03-01_14h32.09.498,jersey_experiment_5_v2,2023.2.2,Win32,85.47008547,,,,,,,,,,,,,,,,891.0437,892.9023,892.9023,893.7024,return,0.0472,,71.74479167,,,,,,FBP-OG-91.png,0.43,1.2,29,0.25,,,,,,,,,,,,,,,,,,0,57,57,28,1,,,,,,,,,,,,,,,,,,,,,,,
,,,,,V2_011,21,Female,2024-03-01_14h32.09.498,jersey_experiment_5_v2,2023.2.2,Win32,85.47008547,,,,,,,,,,,,,,,,893.7026,895.5614,895.5614,896.5848,return,0.0108,,45.57291667,,,,,,FBP-RB-81.png,0.37,1.2,37,0.25,,,,,,,,,,,,,,,,,,0,58,58,36,1,,,,,,,,,,,,,,,,,,,,,,,
,,,,,V2_011,21,Female,2024-03-01_14h32.09.498,jersey_experiment_5_v2,2023.2.2,Win32,85.47008547,,,,,,,,,,,,,,,,896.585,898.4319,898.4319,899.1614,return,0.0956,,75.65104167,,,,,,FBP-RB-91.png,0.43,1.2,44,0.25,,,,,,,,,,,,,,,,,,0,59,59,43,1,,,,,,,,,,,,,,,,,,,,,,,
,,,,,V2_011,21,Female,2024-03-01_14h32.09.498,jersey_experiment_5_v2,2023.2.2,Win32,85.47008547,,,,,,,,,,,,,,,,,,,,,,,,,,,,,,,,,,,,,,,,,,,,,,,,,,,,,,,,899.1617,904.103,return,4.9318,,,,,,,,,,,,,,,,,,,
,,,,,V2_011,21,Female,2024-03-01_14h32.09.498,jersey_experiment_5_v2,2023.2.2,Win32,85.47008547,,,,,,,,,,,,,,,,,,,,,,,,,,,,,,,,,,,,,,,,,,,,,,,,,,,,,,,,,,,,,904.103,909.3856,1,4.671,return,0.5881,,,,,,,,,,,,
,,,,,V2_011,21,Female,2024-03-01_14h32.09.498,jersey_experiment_5_v2,2023.2.2,Win32,85.47008547,,,,,,,,,,,,,,,,,,,,,,,,,,,,,,,,,,,,,,,,,,,,,,,,,,,,,,,,,,,,,,,,,,,,909.3857,960.3805,"race, body image, perception of people in sports",right,41.3754,,,,,,
,,,,,V2_011,21,Female,2024-03-01_14h32.09.498,jersey_experiment_5_v2,2023.2.2,Win32,85.47008547,,,,,,,,,,,,,,,,,,,,,,,,,,,,,,,,,,,,,,,,,,,,,,,,,,,,,,,,,,,,,,,,,,,,,,,,,,960.3806,964.3403,return,3.9501,