requirements.started,requirements.stopped,key_resp_3.keys,key_resp_3.rt,key_resp_3.duration,Subject ID,Age,Gender,date,expName,psychopyVersion,OS,frameRate,instructions1.started,instructions1.stopped,key_resp.keys,key_resp.rt,key_resp.duration,example.started,example.stopped,enter_2.keys,enter_2.rt,enter_2.duration,instructions2.started,instructions2.stopped,enter_3.keys,enter_3.rt,enter_3.duration,image.started,image.stopped,slider_2.started,slider_2.stopped,next.keys,next.rt,next.duration,slider.response,trial_block_1.thisRepN,trial_block_1.thisTrialN,trial_block_1.thisN,trial_block_1.thisIndex,trial_block_1.ran,Path,Width,Height,Index,Duration,trial_block_2.thisRepN,trial_block_2.thisTrialN,trial_block_2.thisN,trial_block_2.thisIndex,trial_block_2.ran,rest_break.started,rest_break.stopped,end_break.started,end_break.stopped,key_resp_5.keys,key_resp_5.rt,key_resp_5.duration,trial_block_3.thisRepN,trial_block_3.thisTrialN,trial_block_3.thisN,trial_block_3.thisIndex,trial_block_3.ran,trial_block_4.thisRepN,trial_block_4.thisTrialN,trial_block_4.thisN,trial_block_4.thisIndex,trial_block_4.ran,questions_intro.started,questions_intro.stopped,enter_12.keys,enter_12.rt,enter_12.duration,question2.started,question2.stopped,question_doingbest.response,question_doingbest.rt,enter_15.keys,enter_15.rt,enter_15.duration,pattern.started,pattern.stopped,pattern_2.text,enter_17.keys,enter_17.rt,enter_17.duration,thankyou.started,thankyou.stopped,enter_14.keys,enter_14.rt,enter_14.duration
1E-04,9.5258,return,9.52,,V2_007,20,Female,2024-03-01_10h39.30.634,jersey_experiment_5_v2,2023.2.2,Win32,84.74576271,,,,,,,,,,,,,,,,,,,,,,,,,,,,,,,,,,,,,,,,,,,,,,,,,,,,,,,,,,,,,,,,,,,,,,,,,,,,,,
,,,,,V2_007,20,Female,2024-03-01_10h39.30.634,jersey_experiment_5_v2,2023.2.2,Win32,84.74576271,9.5259,17.6025,return,8.0708,,,,,,,,,,,,,,,,,,,,,,,,,,,,,,,,,,,,,,,,,,,,,,,,,,,,,,,,,,,,,,,,,,,,,,,,,,
,,,,,V2_007,20,Female,2024-03-01_10h39.30.634,jersey_experiment_5_v2,2023.2.2,Win32,84.74576271,,,,,,17.6026,25.8589,return,8.219,,,,,,,,,,,,,,,,,,,,,,,,,,,,,,,,,,,,,,,,,,,,,,,,,,,,,,,,,,,,,,,,,,,,,
,,,,,V2_007,20,Female,2024-03-01_10h39.30.634,jersey_experiment_5_v2,2023.2.2,Win32,84.74576271,,,,,,,,,,,25.8591,43.883,return,18.0048,,,,,,,,,,,,,,,,,,,,,,,,,,,,,,,,,,,,,,,,,,,,,,,,,,,,,,,,,,,,,,,,
,,,,,V2_007,20,Female,2024-03-01_10h39.30.634,jersey_experiment_5_v2,2023.2.2,Win32,84.74576271,,,,,,,,,,,,,,,,43.8898,45.9889,45.9889,53.3305,return,4.0003,,74.73958333,0,0,0,44,1,FBP-RB-19.png,0.45,1.2,45,0.5,,,,,,,,,,,,,,,,,,,,,,,,,,,,,,,,,,,,,,,,,,,,,
,,,,,V2_007,20,Female,2024-03-01_10h39.30.634,jersey_experiment_5_v2,2023.2.2,Win32,84.74576271,,,,,,,,,,,,,,,,53.3352,55.4481,55.4481,60.507,return,3.2765,,75.26041667,0,1,1,58,1,FBP-YG-91.png,0.43,1.2,59,0.5,,,,,,,,,,,,,,,,,,,,,,,,,,,,,,,,,,,,,,,,,,,,,
,,,,,V2_007,20,Female,2024-03-01_10h39.30.634,jersey_experiment_5_v2,2023.2.2,Win32,84.74576271,,,,,,,,,,,,,,,,60.5116,62.6132,62.6133,65.5778,return,1.7697,,26.04166667,0,2,2,26,1,FBP-OG-19.png,0.37,1.2,27,0.5,,,,,,,,,,,,,,,,,,,,,,,,,,,,,,,,,,,,,,,,,,,,,
,,,,,V2_007,20,Female,2024-03-01_10h39.30.634,jersey_experiment_5_v2,2023.2.2,Win32,84.74576271,,,,,,,,,,,,,,,,65.5782,67.4249,67.4249,69.1663,return,0.8118,,24.47916667,0,3,3,5,1,FBP-PT-18.png,0.35,1.2,6,0.25,,,,,,,,,,,,,,,,,,,,,,,,,,,,,,,,,,,,,,,,,,,,,
,,,,,V2_007,20,Female,2024-03-01_10h39.30.634,jersey_experiment_5_v2,2023.2.2,Win32,84.74576271,,,,,,,,,,,,,,,,69.1665,71.2604,71.2604,73.8015,return,1.8994,,25.390625,0,4,4,35,1,FBP-RB-18.png,0.35,1.2,36,0.5,,,,,,,,,,,,,,,,,,,,,,,,,,,,,,,,,,,,,,,,,,,,,
,,,,,V2_007,20,Female,2024-03-01_10h39.30.634,jersey_experiment_5_v2,2023.2.2,Win32,84.74576271,,,,,,,,,,,,,,,,73.8017,75.8958,75.896,80.6019,return,3.2167,,50.26041667,0,5,5,17,1,FBP-OG-17.png,0.4,1.2,18,0.5,,,,,,,,,,,,,,,,,,,,,,,,,,,,,,,,,,,,,,,,,,,,,
,,,,,V2_007,20,Female,2024-03-01_10h39.30.634,jersey_experiment_5_v2,2023.2.2,Win32,84.74576271,,,,,,,,,,,,,,,,80.6021,82.7078,82.7079,86.0256,return,1.0544,,60.9375,0,6,6,47,1,FBP-YG-71.png,0.4,1.2,48,0.5,,,,,,,,,,,,,,,,,,,,,,,,,,,,,,,,,,,,,,,,,,,,,
,,,,,V2_007,20,Female,2024-03-01_10h39.30.634,jersey_experiment_5_v2,2023.2.2,Win32,84.74576271,,,,,,,,,,,,,,,,86.0259,88.1315,88.1316,91.4964,return,1.2321,,62.36979167,0,7,7,52,1,FBP-YG-81.png,0.4,1.2,53,0.5,,,,,,,,,,,,,,,,,,,,,,,,,,,,,,,,,,,,,,,,,,,,,
,,,,,V2_007,20,Female,2024-03-01_10h39.30.634,jersey_experiment_5_v2,2023.2.2,Win32,84.74576271,,,,,,,,,,,,,,,,91.4966,93.6024,93.6024,96.673,return,0.9883,,35.80729167,0,8,8,50,1,FBP-YG-81.png,0.35,1.2,51,0.5,,,,,,,,,,,,,,,,,,,,,,,,,,,,,,,,,,,,,,,,,,,,,
,,,,,V2_007,20,Female,2024-03-01_10h39.30.634,jersey_experiment_5_v2,2023.2.2,Win32,84.74576271,,,,,,,,,,,,,,,,96.6733,98.7791,98.7792,101.8967,return,0.9351,,63.15104167,0,9,9,46,1,FBP-YG-71.png,0.37,1.2,47,0.5,,,,,,,,,,,,,,,,,,,,,,,,,,,,,,,,,,,,,,,,,,,,,
,,,,,V2_007,20,Female,2024-03-01_10h39.30.634,jersey_experiment_5_v2,2023.2.2,Win32,84.74576271,,,,,,,,,,,,,,,,101.897,104.0028,104.0028,106.144,return,0.5086,,49.34895833,0,10,10,36,1,FBP-RB-18.png,0.37,1.2,37,0.5,,,,,,,,,,,,,,,,,,,,,,,,,,,,,,,,,,,,,,,,,,,,,
,,,,,V2_007,20,Female,2024-03-01_10h39.30.634,jersey_experiment_5_v2,2023.2.2,Win32,84.74576271,,,,,,,,,,,,,,,,106.1441,107.9911,107.9912,109.803,return,0.5095,,36.328125,0,11,11,0,1,FBP-PT-17.png,0.35,1.2,1,0.25,,,,,,,,,,,,,,,,,,,,,,,,,,,,,,,,,,,,,,,,,,,,,
,,,,,V2_007,20,Female,2024-03-01_10h39.30.634,jersey_experiment_5_v2,2023.2.2,Win32,84.74576271,,,,,,,,,,,,,,,,109.8032,111.8971,111.8971,112.909,return,0.4748,,36.328125,0,12,12,45,1,FBP-YG-71.png,0.35,1.2,46,0.5,,,,,,,,,,,,,,,,,,,,,,,,,,,,,,,,,,,,,,,,,,,,,
,,,,,V2_007,20,Female,2024-03-01_10h39.30.634,jersey_experiment_5_v2,2023.2.2,Win32,84.74576271,,,,,,,,,,,,,,,,112.9092,115.0151,115.0151,116.8032,return,0.7879,,75.52083333,0,13,13,48,1,FBP-YG-71.png,0.43,1.2,49,0.5,,,,,,,,,,,,,,,,,,,,,,,,,,,,,,,,,,,,,,,,,,,,,
,,,,,V2_007,20,Female,2024-03-01_10h39.30.634,jersey_experiment_5_v2,2023.2.2,Win32,84.74576271,,,,,,,,,,,,,,,,116.8036,118.6504,118.6504,120.874,return,0.7483,,75.390625,0,14,14,7,1,FBP-PT-18.png,0.4,1.2,8,0.25,,,,,,,,,,,,,,,,,,,,,,,,,,,,,,,,,,,,,,,,,,,,,
,,,,,V2_007,20,Female,2024-03-01_10h39.30.634,jersey_experiment_5_v2,2023.2.2,Win32,84.74576271,,,,,,,,,,,,,,,,120.8743,122.721,122.721,124.3682,return,0.5276,,49.73958333,0,15,15,1,1,FBP-PT-17.png,0.37,1.2,2,0.25,,,,,,,,,,,,,,,,,,,,,,,,,,,,,,,,,,,,,,,,,,,,,
,,,,,V2_007,20,Female,2024-03-01_10h39.30.634,jersey_experiment_5_v2,2023.2.2,Win32,84.74576271,,,,,,,,,,,,,,,,124.3684,126.2155,126.2156,129.039,return,0.7767,,85.9375,0,16,16,8,1,FBP-PT-18.png,0.43,1.2,9,0.25,,,,,,,,,,,,,,,,,,,,,,,,,,,,,,,,,,,,,,,,,,,,,
,,,,,V2_007,20,Female,2024-03-01_10h39.30.634,jersey_experiment_5_v2,2023.2.2,Win32,84.74576271,,,,,,,,,,,,,,,,129.0391,131.1333,131.1333,132.8274,return,0.874,,86.45833333,0,17,17,23,1,FBP-OG-18.png,0.43,1.2,24,0.5,,,,,,,,,,,,,,,,,,,,,,,,,,,,,,,,,,,,,,,,,,,,,
,,,,,V2_007,20,Female,2024-03-01_10h39.30.634,jersey_experiment_5_v2,2023.2.2,Win32,84.74576271,,,,,,,,,,,,,,,,132.8276,134.9216,134.9216,140.1688,return,2.9237,,75.26041667,0,18,18,42,1,FBP-RB-19.png,0.4,1.2,43,0.5,,,,,,,,,,,,,,,,,,,,,,,,,,,,,,,,,,,,,,,,,,,,,
,,,,,V2_007,20,Female,2024-03-01_10h39.30.634,jersey_experiment_5_v2,2023.2.2,Win32,84.74576271,,,,,,,,,,,,,,,,140.1732,142.2748,142.2748,146.2042,return,0.6258,,74.34895833,0,19,19,24,1,FBP-OG-18.png,0.45,1.2,25,0.5,,,,,,,,,,,,,,,,,,,,,,,,,,,,,,,,,,,,,,,,,,,,,
,,,,,V2_007,20,Female,2024-03-01_10h39.30.634,jersey_experiment_5_v2,2023.2.2,Win32,84.74576271,,,,,,,,,,,,,,,,146.2044,148.0515,148.0515,149.0398,return,0.6027,,74.34895833,0,20,20,4,1,FBP-PT-17.png,0.45,1.2,5,0.25,,,,,,,,,,,,,,,,,,,,,,,,,,,,,,,,,,,,,,,,,,,,,
,,,,,V2_007,20,Female,2024-03-01_10h39.30.634,jersey_experiment_5_v2,2023.2.2,Win32,84.74576271,,,,,,,,,,,,,,,,149.04,150.8985,150.8985,154.3928,return,2.7376,,26.30208333,0,21,21,6,1,FBP-PT-18.png,0.37,1.2,7,0.25,,,,,,,,,,,,,,,,,,,,,,,,,,,,,,,,,,,,,,,,,,,,,
,,,,,V2_007,20,Female,2024-03-01_10h39.30.634,jersey_experiment_5_v2,2023.2.2,Win32,84.74576271,,,,,,,,,,,,,,,,154.3929,156.487,156.487,158.3813,return,0.6368,,74.73958333,0,22,22,33,1,FBP-RB-17.png,0.43,1.2,34,0.5,,,,,,,,,,,,,,,,,,,,,,,,,,,,,,,,,,,,,,,,,,,,,
,,,,,V2_007,20,Female,2024-03-01_10h39.30.634,jersey_experiment_5_v2,2023.2.2,Win32,84.74576271,,,,,,,,,,,,,,,,158.3815,160.4754,160.4755,162.3695,return,1.1398,,75.390625,0,23,23,59,1,FBP-YG-91.png,0.45,1.2,60,0.5,,,,,,,,,,,,,,,,,,,,,,,,,,,,,,,,,,,,,,,,,,,,,
,,,,,V2_007,20,Female,2024-03-01_10h39.30.634,jersey_experiment_5_v2,2023.2.2,Win32,84.74576271,,,,,,,,,,,,,,,,162.3699,164.2168,164.2169,165.4991,return,0.7588,,75.26041667,0,24,24,13,1,FBP-PT-19.png,0.43,1.2,14,0.25,,,,,,,,,,,,,,,,,,,,,,,,,,,,,,,,,,,,,,,,,,,,,
,,,,,V2_007,20,Female,2024-03-01_10h39.30.634,jersey_experiment_5_v2,2023.2.2,Win32,84.74576271,,,,,,,,,,,,,,,,165.4994,167.3582,167.3582,168.7933,return,0.4634,,49.73958333,0,25,25,12,1,FBP-PT-19.png,0.4,1.2,13,0.25,,,,,,,,,,,,,,,,,,,,,,,,,,,,,,,,,,,,,,,,,,,,,
,,,,,V2_007,20,Female,2024-03-01_10h39.30.634,jersey_experiment_5_v2,2023.2.2,Win32,84.74576271,,,,,,,,,,,,,,,,168.7935,170.8875,170.8876,172.5582,return,0.5202,,74.73958333,0,26,26,28,1,FBP-OG-19.png,0.43,1.2,29,0.5,,,,,,,,,,,,,,,,,,,,,,,,,,,,,,,,,,,,,,,,,,,,,
,,,,,V2_007,20,Female,2024-03-01_10h39.30.634,jersey_experiment_5_v2,2023.2.2,Win32,84.74576271,,,,,,,,,,,,,,,,172.5584,174.6642,174.6642,175.8406,return,0.6968,,74.609375,0,27,27,39,1,FBP-RB-18.png,0.45,1.2,40,0.5,,,,,,,,,,,,,,,,,,,,,,,,,,,,,,,,,,,,,,,,,,,,,
,,,,,V2_007,20,Female,2024-03-01_10h39.30.634,jersey_experiment_5_v2,2023.2.2,Win32,84.74576271,,,,,,,,,,,,,,,,175.8409,177.9352,177.9352,179.2761,return,0.7081,,50.65104167,0,28,28,27,1,FBP-OG-19.png,0.4,1.2,28,0.5,,,,,,,,,,,,,,,,,,,,,,,,,,,,,,,,,,,,,,,,,,,,,
,,,,,V2_007,20,Female,2024-03-01_10h39.30.634,jersey_experiment_5_v2,2023.2.2,Win32,84.74576271,,,,,,,,,,,,,,,,179.2764,181.3705,181.3706,185.6763,return,2.7552,,75.13020833,0,29,29,18,1,FBP-OG-17.png,0.43,1.2,19,0.5,,,,,,,,,,,,,,,,,,,,,,,,,,,,,,,,,,,,,,,,,,,,,
,,,,,V2_007,20,Female,2024-03-01_10h39.30.634,jersey_experiment_5_v2,2023.2.2,Win32,84.74576271,,,,,,,,,,,,,,,,185.6766,187.7823,187.7823,190.0766,return,0.9575,,74.86979167,0,30,30,29,1,FBP-OG-19.png,0.45,1.2,30,0.5,,,,,,,,,,,,,,,,,,,,,,,,,,,,,,,,,,,,,,,,,,,,,
,,,,,V2_007,20,Female,2024-03-01_10h39.30.634,jersey_experiment_5_v2,2023.2.2,Win32,84.74576271,,,,,,,,,,,,,,,,190.0769,191.9354,191.9355,193.3944,return,0.5888,,74.86979167,0,31,31,14,1,FBP-PT-19.png,0.45,1.2,15,0.25,,,,,,,,,,,,,,,,,,,,,,,,,,,,,,,,,,,,,,,,,,,,,
,,,,,V2_007,20,Female,2024-03-01_10h39.30.634,jersey_experiment_5_v2,2023.2.2,Win32,84.74576271,,,,,,,,,,,,,,,,193.3946,195.4887,195.4888,197.5944,return,1.324,,36.06770833,0,32,32,30,1,FBP-RB-17.png,0.35,1.2,31,0.5,,,,,,,,,,,,,,,,,,,,,,,,,,,,,,,,,,,,,,,,,,,,,
,,,,,V2_007,20,Female,2024-03-01_10h39.30.634,jersey_experiment_5_v2,2023.2.2,Win32,84.74576271,,,,,,,,,,,,,,,,197.5946,199.4534,199.4535,205.0418,return,1.7324,,74.609375,0,33,33,9,1,FBP-PT-18.png,0.45,1.2,10,0.25,,,,,,,,,,,,,,,,,,,,,,,,,,,,,,,,,,,,,,,,,,,,,
,,,,,V2_007,20,Female,2024-03-01_10h39.30.634,jersey_experiment_5_v2,2023.2.2,Win32,84.74576271,,,,,,,,,,,,,,,,205.042,207.1476,207.1476,211.0069,return,2.6235,,75.26041667,0,34,34,38,1,FBP-RB-18.png,0.43,1.2,39,0.5,,,,,,,,,,,,,,,,,,,,,,,,,,,,,,,,,,,,,,,,,,,,,
,,,,,V2_007,20,Female,2024-03-01_10h39.30.634,jersey_experiment_5_v2,2023.2.2,Win32,84.74576271,,,,,,,,,,,,,,,,211.0072,213.1009,213.1009,214.6892,return,0.4849,,50.13020833,0,35,35,43,1,FBP-RB-19.png,0.43,1.2,44,0.5,,,,,,,,,,,,,,,,,,,,,,,,,,,,,,,,,,,,,,,,,,,,,
,,,,,V2_007,20,Female,2024-03-01_10h39.30.634,jersey_experiment_5_v2,2023.2.2,Win32,84.74576271,,,,,,,,,,,,,,,,214.6894,216.7834,216.7834,217.6658,return,0.2122,,24.47916667,0,36,36,55,1,FBP-YG-91.png,0.35,1.2,56,0.5,,,,,,,,,,,,,,,,,,,,,,,,,,,,,,,,,,,,,,,,,,,,,
,,,,,V2_007,20,Female,2024-03-01_10h39.30.634,jersey_experiment_5_v2,2023.2.2,Win32,84.74576271,,,,,,,,,,,,,,,,217.6659,219.7717,219.7719,220.6189,return,0.192,,25,0,37,37,51,1,FBP-YG-81.png,0.37,1.2,52,0.5,,,,,,,,,,,,,,,,,,,,,,,,,,,,,,,,,,,,,,,,,,,,,
,,,,,V2_007,20,Female,2024-03-01_10h39.30.634,jersey_experiment_5_v2,2023.2.2,Win32,84.74576271,,,,,,,,,,,,,,,,220.6191,222.466,222.466,223.5366,return,0.1888,,49.34895833,0,38,38,2,1,FBP-PT-17.png,0.4,1.2,3,0.25,,,,,,,,,,,,,,,,,,,,,,,,,,,,,,,,,,,,,,,,,,,,,
,,,,,V2_007,20,Female,2024-03-01_10h39.30.634,jersey_experiment_5_v2,2023.2.2,Win32,84.74576271,,,,,,,,,,,,,,,,223.5368,225.6427,225.6427,226.4779,return,0.2265,,60.80729167,0,39,39,32,1,FBP-RB-17.png,0.4,1.2,33,0.5,,,,,,,,,,,,,,,,,,,,,,,,,,,,,,,,,,,,,,,,,,,,,
,,,,,V2_007,20,Female,2024-03-01_10h39.30.634,jersey_experiment_5_v2,2023.2.2,Win32,84.74576271,,,,,,,,,,,,,,,,226.4781,228.5721,228.5721,229.5368,return,0.2498,,49.34895833,0,40,40,15,1,FBP-OG-17.png,0.35,1.2,16,0.5,,,,,,,,,,,,,,,,,,,,,,,,,,,,,,,,,,,,,,,,,,,,,
,,,,,V2_007,20,Female,2024-03-01_10h39.30.634,jersey_experiment_5_v2,2023.2.2,Win32,84.74576271,,,,,,,,,,,,,,,,229.5369,231.6311,231.6311,232.1369,return,0.1492,,49.73958333,0,41,41,31,1,FBP-RB-17.png,0.37,1.2,32,0.5,,,,,,,,,,,,,,,,,,,,,,,,,,,,,,,,,,,,,,,,,,,,,
,,,,,V2_007,20,Female,2024-03-01_10h39.30.634,jersey_experiment_5_v2,2023.2.2,Win32,84.74576271,,,,,,,,,,,,,,,,232.1371,234.2312,234.2313,235.8546,return,0.9765,,36.45833333,0,42,42,25,1,FBP-OG-19.png,0.35,1.2,26,0.5,,,,,,,,,,,,,,,,,,,,,,,,,,,,,,,,,,,,,,,,,,,,,
,,,,,V2_007,20,Female,2024-03-01_10h39.30.634,jersey_experiment_5_v2,2023.2.2,Win32,84.74576271,,,,,,,,,,,,,,,,235.8548,237.949,237.949,240.4784,return,1.2615,,66.015625,0,43,43,49,1,FBP-YG-71.png,0.45,1.2,50,0.5,,,,,,,,,,,,,,,,,,,,,,,,,,,,,,,,,,,,,,,,,,,,,
,,,,,V2_007,20,Female,2024-03-01_10h39.30.634,jersey_experiment_5_v2,2023.2.2,Win32,84.74576271,,,,,,,,,,,,,,,,240.4785,242.5727,242.5727,244.3843,return,0.1557,,67.31770833,0,44,44,56,1,FBP-YG-91.png,0.37,1.2,57,0.5,,,,,,,,,,,,,,,,,,,,,,,,,,,,,,,,,,,,,,,,,,,,,
,,,,,V2_007,20,Female,2024-03-01_10h39.30.634,jersey_experiment_5_v2,2023.2.2,Win32,84.74576271,,,,,,,,,,,,,,,,244.3846,246.2433,246.2433,247.6905,return,0.1803,,49.34895833,0,45,45,10,1,FBP-PT-19.png,0.35,1.2,11,0.25,,,,,,,,,,,,,,,,,,,,,,,,,,,,,,,,,,,,,,,,,,,,,
,,,,,V2_007,20,Female,2024-03-01_10h39.30.634,jersey_experiment_5_v2,2023.2.2,Win32,84.74576271,,,,,,,,,,,,,,,,247.6906,249.7964,249.7964,250.2552,return,0.1285,,49.34895833,0,46,46,41,1,FBP-RB-19.png,0.37,1.2,42,0.5,,,,,,,,,,,,,,,,,,,,,,,,,,,,,,,,,,,,,,,,,,,,,
,,,,,V2_007,20,Female,2024-03-01_10h39.30.634,jersey_experiment_5_v2,2023.2.2,Win32,84.74576271,,,,,,,,,,,,,,,,250.2555,252.3493,252.3493,253.5848,return,0.1796,,74.73958333,0,47,47,54,1,FBP-YG-81.png,0.45,1.2,55,0.5,,,,,,,,,,,,,,,,,,,,,,,,,,,,,,,,,,,,,,,,,,,,,
,,,,,V2_007,20,Female,2024-03-01_10h39.30.634,jersey_experiment_5_v2,2023.2.2,Win32,84.74576271,,,,,,,,,,,,,,,,253.585,255.6907,255.6907,257.3732,return,0.1892,,51.171875,0,48,48,37,1,FBP-RB-18.png,0.4,1.2,38,0.5,,,,,,,,,,,,,,,,,,,,,,,,,,,,,,,,,,,,,,,,,,,,,
,,,,,V2_007,20,Female,2024-03-01_10h39.30.634,jersey_experiment_5_v2,2023.2.2,Win32,84.74576271,,,,,,,,,,,,,,,,257.3735,259.4675,259.4675,260.1379,return,0.0869,,59.24479167,0,49,49,21,1,FBP-OG-18.png,0.37,1.2,22,0.5,,,,,,,,,,,,,,,,,,,,,,,,,,,,,,,,,,,,,,,,,,,,,
,,,,,V2_007,20,Female,2024-03-01_10h39.30.634,jersey_experiment_5_v2,2023.2.2,Win32,84.74576271,,,,,,,,,,,,,,,,260.1381,262.2321,262.2321,264.0792,return,0.518,,65.625,0,50,50,22,1,FBP-OG-18.png,0.4,1.2,23,0.5,,,,,,,,,,,,,,,,,,,,,,,,,,,,,,,,,,,,,,,,,,,,,
,,,,,V2_007,20,Female,2024-03-01_10h39.30.634,jersey_experiment_5_v2,2023.2.2,Win32,84.74576271,,,,,,,,,,,,,,,,264.0793,266.1851,266.1852,266.7382,return,0.1408,,66.27604167,0,51,51,16,1,FBP-OG-17.png,0.37,1.2,17,0.5,,,,,,,,,,,,,,,,,,,,,,,,,,,,,,,,,,,,,,,,,,,,,
,,,,,V2_007,20,Female,2024-03-01_10h39.30.634,jersey_experiment_5_v2,2023.2.2,Win32,84.74576271,,,,,,,,,,,,,,,,266.7384,268.5972,268.5972,269.3147,return,0.1743,,78.38541667,0,52,52,3,1,FBP-PT-17.png,0.43,1.2,4,0.25,,,,,,,,,,,,,,,,,,,,,,,,,,,,,,,,,,,,,,,,,,,,,
,,,,,V2_007,20,Female,2024-03-01_10h39.30.634,jersey_experiment_5_v2,2023.2.2,Win32,84.74576271,,,,,,,,,,,,,,,,269.315,271.409,271.409,272.1148,return,0.0706,,64.32291667,0,53,53,20,1,FBP-OG-18.png,0.35,1.2,21,0.5,,,,,,,,,,,,,,,,,,,,,,,,,,,,,,,,,,,,,,,,,,,,,
,,,,,V2_007,20,Female,2024-03-01_10h39.30.634,jersey_experiment_5_v2,2023.2.2,Win32,84.74576271,,,,,,,,,,,,,,,,272.115,274.2208,274.2209,275.2914,return,0.1233,,65.10416667,0,54,54,57,1,FBP-YG-91.png,0.4,1.2,58,0.5,,,,,,,,,,,,,,,,,,,,,,,,,,,,,,,,,,,,,,,,,,,,,
,,,,,V2_007,20,Female,2024-03-01_10h39.30.634,jersey_experiment_5_v2,2023.2.2,Win32,84.74576271,,,,,,,,,,,,,,,,275.2916,277.3857,277.3857,278.3622,return,0.301,,74.47916667,0,55,55,34,1,FBP-RB-17.png,0.45,1.2,35,0.5,,,,,,,,,,,,,,,,,,,,,,,,,,,,,,,,,,,,,,,,,,,,,
,,,,,V2_007,20,Female,2024-03-01_10h39.30.634,jersey_experiment_5_v2,2023.2.2,Win32,84.74576271,,,,,,,,,,,,,,,,278.3624,280.4681,280.4681,282.2682,return,1.0517,,67.05729167,0,56,56,40,1,FBP-RB-19.png,0.35,1.2,41,0.5,,,,,,,,,,,,,,,,,,,,,,,,,,,,,,,,,,,,,,,,,,,,,
,,,,,V2_007,20,Female,2024-03-01_10h39.30.634,jersey_experiment_5_v2,2023.2.2,Win32,84.74576271,,,,,,,,,,,,,,,,282.2684,284.3624,284.3625,285.6448,return,0.672,,74.609375,0,57,57,19,1,FBP-OG-17.png,0.45,1.2,20,0.5,,,,,,,,,,,,,,,,,,,,,,,,,,,,,,,,,,,,,,,,,,,,,
,,,,,V2_007,20,Female,2024-03-01_10h39.30.634,jersey_experiment_5_v2,2023.2.2,Win32,84.74576271,,,,,,,,,,,,,,,,285.645,287.7389,287.7389,288.2683,return,0.181,,74.609375,0,58,58,53,1,FBP-YG-81.png,0.43,1.2,54,0.5,,,,,,,,,,,,,,,,,,,,,,,,,,,,,,,,,,,,,,,,,,,,,
,,,,,V2_007,20,Female,2024-03-01_10h39.30.634,jersey_experiment_5_v2,2023.2.2,Win32,84.74576271,,,,,,,,,,,,,,,,288.2686,290.1272,290.1272,291.1155,return,0.2147,,74.609375,0,59,59,11,1,FBP-PT-19.png,0.37,1.2,12,0.25,,,,,,,,,,,,,,,,,,,,,,,,,,,,,,,,,,,,,,,,,,,,,
,,,,,V2_007,20,Female,2024-03-01_10h39.30.634,jersey_experiment_5_v2,2023.2.2,Win32,84.74576271,,,,,,,,,,,,,,,,291.1175,293.2098,293.2098,294.6686,return,0.3454,,41.015625,,,,,,FBP-OG-91.png,0.4,1.2,28,0.5,0,0,0,27,1,,,,,,,,,,,,,,,,,,,,,,,,,,,,,,,,,,,,,,,,
,,,,,V2_007,20,Female,2024-03-01_10h39.30.634,jersey_experiment_5_v2,2023.2.2,Win32,84.74576271,,,,,,,,,,,,,,,,294.6691,296.7628,296.7629,297.6922,return,0.3811,,32.55208333,,,,,,FBP-RB-71.png,0.35,1.2,31,0.5,0,1,1,30,1,,,,,,,,,,,,,,,,,,,,,,,,,,,,,,,,,,,,,,,,
,,,,,V2_007,20,Female,2024-03-01_10h39.30.634,jersey_experiment_5_v2,2023.2.2,Win32,84.74576271,,,,,,,,,,,,,,,,297.6925,299.7865,299.7865,300.4571,return,0.0759,,30.98958333,,,,,,FBP-RB-91.png,0.37,1.2,42,0.5,0,2,2,41,1,,,,,,,,,,,,,,,,,,,,,,,,,,,,,,,,,,,,,,,,
,,,,,V2_007,20,Female,2024-03-01_10h39.30.634,jersey_experiment_5_v2,2023.2.2,Win32,84.74576271,,,,,,,,,,,,,,,,300.4574,302.5513,302.5513,303.0336,return,0.1579,,32.03125,,,,,,FBP-YG-19.png,0.35,1.2,56,0.5,0,3,3,55,1,,,,,,,,,,,,,,,,,,,,,,,,,,,,,,,,,,,,,,,,
,,,,,V2_007,20,Female,2024-03-01_10h39.30.634,jersey_experiment_5_v2,2023.2.2,Win32,84.74576271,,,,,,,,,,,,,,,,303.0339,305.1279,305.128,305.9044,return,0.0099,,65.10416667,,,,,,FBP-YG-19.png,0.4,1.2,58,0.5,0,4,4,57,1,,,,,,,,,,,,,,,,,,,,,,,,,,,,,,,,,,,,,,,,
,,,,,V2_007,20,Female,2024-03-01_10h39.30.634,jersey_experiment_5_v2,2023.2.2,Win32,84.74576271,,,,,,,,,,,,,,,,305.9045,307.9986,307.9987,308.6224,return,0.0709,,81.77083333,,,,,,FBP-YG-17.png,0.45,1.2,50,0.5,0,5,5,49,1,,,,,,,,,,,,,,,,,,,,,,,,,,,,,,,,,,,,,,,,
,,,,,V2_007,20,Female,2024-03-01_10h39.30.634,jersey_experiment_5_v2,2023.2.2,Win32,84.74576271,,,,,,,,,,,,,,,,308.6226,310.728,310.7281,311.1633,return,0.088,,86.06770833,,,,,,FBP-OG-71.png,0.45,1.2,20,0.5,0,6,6,19,1,,,,,,,,,,,,,,,,,,,,,,,,,,,,,,,,,,,,,,,,
,,,,,V2_007,20,Female,2024-03-01_10h39.30.634,jersey_experiment_5_v2,2023.2.2,Win32,84.74576271,,,,,,,,,,,,,,,,311.1636,313.2692,313.2693,313.8576,return,0.0236,,74.34895833,,,,,,FBP-YG-18.png,0.4,1.2,53,0.5,0,7,7,52,1,,,,,,,,,,,,,,,,,,,,,,,,,,,,,,,,,,,,,,,,
,,,,,V2_007,20,Female,2024-03-01_10h39.30.634,jersey_experiment_5_v2,2023.2.2,Win32,84.74576271,,,,,,,,,,,,,,,,313.8578,315.7048,315.7048,316.7282,return,0.1733,,62.890625,,,,,,FBP-PT-81.png,0.37,1.2,7,0.25,0,8,8,6,1,,,,,,,,,,,,,,,,,,,,,,,,,,,,,,,,,,,,,,,,
,,,,,V2_007,20,Female,2024-03-01_10h39.30.634,jersey_experiment_5_v2,2023.2.2,Win32,84.74576271,,,,,,,,,,,,,,,,316.7285,318.8341,318.8341,319.2461,return,0.083,,63.15104167,,,,,,FBP-RB-71.png,0.37,1.2,32,0.5,0,9,9,31,1,,,,,,,,,,,,,,,,,,,,,,,,,,,,,,,,,,,,,,,,
,,,,,V2_007,20,Female,2024-03-01_10h39.30.634,jersey_experiment_5_v2,2023.2.2,Win32,84.74576271,,,,,,,,,,,,,,,,319.2462,321.3402,321.3403,322.2343,return,0.1005,,71.22395833,,,,,,FBP-RB-81.png,0.43,1.2,39,0.5,0,10,10,38,1,,,,,,,,,,,,,,,,,,,,,,,,,,,,,,,,,,,,,,,,
,,,,,V2_007,20,Female,2024-03-01_10h39.30.634,jersey_experiment_5_v2,2023.2.2,Win32,84.74576271,,,,,,,,,,,,,,,,322.2346,324.3403,324.3403,325.1287,return,0.1582,,50.52083333,,,,,,FBP-OG-81.png,0.37,1.2,22,0.5,0,11,11,21,1,,,,,,,,,,,,,,,,,,,,,,,,,,,,,,,,,,,,,,,,
,,,,,V2_007,20,Female,2024-03-01_10h39.30.634,jersey_experiment_5_v2,2023.2.2,Win32,84.74576271,,,,,,,,,,,,,,,,325.1289,326.9874,326.9875,328.0112,return,0.1115,,50,,,,,,FBP-PT-71.png,0.43,1.2,4,0.25,0,12,12,3,1,,,,,,,,,,,,,,,,,,,,,,,,,,,,,,,,,,,,,,,,
,,,,,V2_007,20,Female,2024-03-01_10h39.30.634,jersey_experiment_5_v2,2023.2.2,Win32,84.74576271,,,,,,,,,,,,,,,,328.0114,330.1169,330.1169,330.9876,return,0.0755,,33.984375,,,,,,FBP-YG-17.png,0.37,1.2,47,0.5,0,13,13,46,1,,,,,,,,,,,,,,,,,,,,,,,,,,,,,,,,,,,,,,,,
,,,,,V2_007,20,Female,2024-03-01_10h39.30.634,jersey_experiment_5_v2,2023.2.2,Win32,84.74576271,,,,,,,,,,,,,,,,330.9878,333.0936,333.0937,334.1406,return,0.1075,,75.65104167,,,,,,FBP-RB-91.png,0.45,1.2,45,0.5,0,14,14,44,1,,,,,,,,,,,,,,,,,,,,,,,,,,,,,,,,,,,,,,,,
,,,,,V2_007,20,Female,2024-03-01_10h39.30.634,jersey_experiment_5_v2,2023.2.2,Win32,84.74576271,,,,,,,,,,,,,,,,334.1409,336.2467,336.2467,336.5996,return,0.0536,,75.78125,,,,,,FBP-OG-91.png,0.43,1.2,29,0.5,0,15,15,28,1,,,,,,,,,,,,,,,,,,,,,,,,,,,,,,,,,,,,,,,,
,,,,,V2_007,20,Female,2024-03-01_10h39.30.634,jersey_experiment_5_v2,2023.2.2,Win32,84.74576271,,,,,,,,,,,,,,,,336.5997,338.7055,338.7055,339.1291,return,0.0644,,75.78125,,,,,,FBP-RB-71.png,0.45,1.2,35,0.5,0,16,16,34,1,,,,,,,,,,,,,,,,,,,,,,,,,,,,,,,,,,,,,,,,
,,,,,V2_007,20,Female,2024-03-01_10h39.30.634,jersey_experiment_5_v2,2023.2.2,Win32,84.74576271,,,,,,,,,,,,,,,,339.1293,341.2351,341.2351,341.6468,return,0.0725,,75.78125,,,,,,FBP-OG-81.png,0.43,1.2,24,0.5,0,17,17,23,1,,,,,,,,,,,,,,,,,,,,,,,,,,,,,,,,,,,,,,,,
,,,,,V2_007,20,Female,2024-03-01_10h39.30.634,jersey_experiment_5_v2,2023.2.2,Win32,84.74576271,,,,,,,,,,,,,,,,341.647,343.7411,343.7412,344.7528,return,0.1646,,24.21875,,,,,,FBP-OG-81.png,0.35,1.2,21,0.5,0,18,18,20,1,,,,,,,,,,,,,,,,,,,,,,,,,,,,,,,,,,,,,,,,
,,,,,V2_007,20,Female,2024-03-01_10h39.30.634,jersey_experiment_5_v2,2023.2.2,Win32,84.74576271,,,,,,,,,,,,,,,,344.7531,346.6116,346.6116,347.353,return,0.3962,,26.30208333,,,,,,FBP-PT-91.png,0.35,1.2,11,0.25,0,19,19,10,1,,,,,,,,,,,,,,,,,,,,,,,,,,,,,,,,,,,,,,,,
,,,,,V2_007,20,Female,2024-03-01_10h39.30.634,jersey_experiment_5_v2,2023.2.2,Win32,84.74576271,,,,,,,,,,,,,,,,347.3532,349.2116,349.2118,350.4119,return,0.1201,,50.390625,,,,,,FBP-PT-71.png,0.4,1.2,3,0.25,0,20,20,2,1,,,,,,,,,,,,,,,,,,,,,,,,,,,,,,,,,,,,,,,,
,,,,,V2_007,20,Female,2024-03-01_10h39.30.634,jersey_experiment_5_v2,2023.2.2,Win32,84.74576271,,,,,,,,,,,,,,,,350.4122,352.5177,352.5177,353.5296,return,0.172,,75.78125,,,,,,FBP-OG-91.png,0.45,1.2,30,0.5,0,21,21,29,1,,,,,,,,,,,,,,,,,,,,,,,,,,,,,,,,,,,,,,,,
,,,,,V2_007,20,Female,2024-03-01_10h39.30.634,jersey_experiment_5_v2,2023.2.2,Win32,84.74576271,,,,,,,,,,,,,,,,353.5298,355.6356,355.6357,356.0001,return,0.2121,,74.21875,,,,,,FBP-OG-71.png,0.4,1.2,18,0.5,0,22,22,17,1,,,,,,,,,,,,,,,,,,,,,,,,,,,,,,,,,,,,,,,,
,,,,,V2_007,20,Female,2024-03-01_10h39.30.634,jersey_experiment_5_v2,2023.2.2,Win32,84.74576271,,,,,,,,,,,,,,,,356.0003,358.1063,358.1063,359.2593,return,0.2622,,50.390625,,,,,,FBP-RB-81.png,0.35,1.2,36,0.5,0,23,23,35,1,,,,,,,,,,,,,,,,,,,,,,,,,,,,,,,,,,,,,,,,
,,,,,V2_007,20,Female,2024-03-01_10h39.30.634,jersey_experiment_5_v2,2023.2.2,Win32,84.74576271,,,,,,,,,,,,,,,,359.2595,361.3651,361.3652,362.577,return,0.0852,,34.765625,,,,,,FBP-RB-81.png,0.37,1.2,37,0.5,0,24,24,36,1,,,,,,,,,,,,,,,,,,,,,,,,,,,,,,,,,,,,,,,,
,,,,,V2_007,20,Female,2024-03-01_10h39.30.634,jersey_experiment_5_v2,2023.2.2,Win32,84.74576271,,,,,,,,,,,,,,,,362.5773,364.683,364.683,366.13,return,0.5178,,74.34895833,,,,,,FBP-YG-18.png,0.43,1.2,54,0.5,0,25,25,53,1,,,,,,,,,,,,,,,,,,,,,,,,,,,,,,,,,,,,,,,,
,,,,,V2_007,20,Female,2024-03-01_10h39.30.634,jersey_experiment_5_v2,2023.2.2,Win32,84.74576271,,,,,,,,,,,,,,,,366.1302,367.9773,367.9773,369.8715,return,1.1204,,24.47916667,,,,,,FBP-PT-81.png,0.35,1.2,6,0.25,0,26,26,5,1,,,,,,,,,,,,,,,,,,,,,,,,,,,,,,,,,,,,,,,,
,,,,,V2_007,20,Female,2024-03-01_10h39.30.634,jersey_experiment_5_v2,2023.2.2,Win32,84.74576271,,,,,,,,,,,,,,,,369.8717,371.9773,371.9774,373.3304,return,0.2735,,24.47916667,,,,,,FBP-YG-18.png,0.35,1.2,51,0.5,0,27,27,50,1,,,,,,,,,,,,,,,,,,,,,,,,,,,,,,,,,,,,,,,,
,,,,,V2_007,20,Female,2024-03-01_10h39.30.634,jersey_experiment_5_v2,2023.2.2,Win32,84.74576271,,,,,,,,,,,,,,,,373.3306,375.4363,375.4363,376.0715,return,0.1361,,25.26041667,,,,,,FBP-RB-71.png,0.4,1.2,33,0.5,0,28,28,32,1,,,,,,,,,,,,,,,,,,,,,,,,,,,,,,,,,,,,,,,,
,,,,,V2_007,20,Female,2024-03-01_10h39.30.634,jersey_experiment_5_v2,2023.2.2,Win32,84.74576271,,,,,,,,,,,,,,,,376.0717,377.9305,377.9305,380.6012,return,0.1605,,49.47916667,,,,,,FBP-PT-81.png,0.43,1.2,9,0.25,0,29,29,8,1,,,,,,,,,,,,,,,,,,,,,,,,,,,,,,,,,,,,,,,,
,,,,,V2_007,20,Female,2024-03-01_10h39.30.634,jersey_experiment_5_v2,2023.2.2,Win32,84.74576271,,,,,,,,,,,,,,,,380.6014,382.6955,382.6956,383.5542,return,0.127,,74.21875,,,,,,FBP-YG-19.png,0.43,1.2,59,0.5,0,30,30,58,1,,,,,,,,,,,,,,,,,,,,,,,,,,,,,,,,,,,,,,,,
,,,,,V2_007,20,Female,2024-03-01_10h39.30.634,jersey_experiment_5_v2,2023.2.2,Win32,84.74576271,,,,,,,,,,,,,,,,383.5545,385.6603,385.6603,386.0955,return,0.0576,,74.21875,,,,,,FBP-YG-19.png,0.45,1.2,60,0.5,0,31,31,59,1,,,,,,,,,,,,,,,,,,,,,,,,,,,,,,,,,,,,,,,,
,,,,,V2_007,20,Female,2024-03-01_10h39.30.634,jersey_experiment_5_v2,2023.2.2,Win32,84.74576271,,,,,,,,,,,,,,,,386.0957,388.1897,388.1897,389.0015,return,0.0519,,74.21875,,,,,,FBP-RB-91.png,0.43,1.2,44,0.5,0,32,32,43,1,,,,,,,,,,,,,,,,,,,,,,,,,,,,,,,,,,,,,,,,
,,,,,V2_007,20,Female,2024-03-01_10h39.30.634,jersey_experiment_5_v2,2023.2.2,Win32,84.74576271,,,,,,,,,,,,,,,,389.0017,391.1075,391.1075,392.3309,return,0.18,,49.21875,,,,,,FBP-YG-17.png,0.4,1.2,48,0.5,0,33,33,47,1,,,,,,,,,,,,,,,,,,,,,,,,,,,,,,,,,,,,,,,,
,,,,,V2_007,20,Female,2024-03-01_10h39.30.634,jersey_experiment_5_v2,2023.2.2,Win32,84.74576271,,,,,,,,,,,,,,,,392.3311,394.1784,394.1784,395.0017,return,0.1929,,27.08333333,,,,,,FBP-PT-71.png,0.37,1.2,2,0.25,0,34,34,1,1,,,,,,,,,,,,,,,,,,,,,,,,,,,,,,,,,,,,,,,,
,,,,,V2_007,20,Female,2024-03-01_10h39.30.634,jersey_experiment_5_v2,2023.2.2,Win32,84.74576271,,,,,,,,,,,,,,,,395.002,397.096,397.0961,398.0019,return,0.0472,,75,,,,,,FBP-RB-81.png,0.45,1.2,40,0.5,0,35,35,39,1,,,,,,,,,,,,,,,,,,,,,,,,,,,,,,,,,,,,,,,,
,,,,,V2_007,20,Female,2024-03-01_10h39.30.634,jersey_experiment_5_v2,2023.2.2,Win32,84.74576271,,,,,,,,,,,,,,,,398.0021,400.0959,400.0959,401.2138,return,0.1088,,26.171875,,,,,,FBP-OG-91.png,0.35,1.2,26,0.5,0,36,36,25,1,,,,,,,,,,,,,,,,,,,,,,,,,,,,,,,,,,,,,,,,
,,,,,V2_007,20,Female,2024-03-01_10h39.30.634,jersey_experiment_5_v2,2023.2.2,Win32,84.74576271,,,,,,,,,,,,,,,,401.214,403.0727,403.0727,403.8491,return,0.0899,,47.265625,,,,,,FBP-PT-91.png,0.4,1.2,13,0.25,0,37,37,12,1,,,,,,,,,,,,,,,,,,,,,,,,,,,,,,,,,,,,,,,,
,,,,,V2_007,20,Female,2024-03-01_10h39.30.634,jersey_experiment_5_v2,2023.2.2,Win32,84.74576271,,,,,,,,,,,,,,,,403.8495,405.9551,405.9551,407.9316,return,1.0874,,75.78125,,,,,,FBP-RB-71.png,0.43,1.2,34,0.5,0,38,38,33,1,,,,,,,,,,,,,,,,,,,,,,,,,,,,,,,,,,,,,,,,
,,,,,V2_007,20,Female,2024-03-01_10h39.30.634,jersey_experiment_5_v2,2023.2.2,Win32,84.74576271,,,,,,,,,,,,,,,,407.9318,409.7789,409.779,411.7082,return,0.7223,,23.95833333,,,,,,FBP-PT-91.png,0.37,1.2,12,0.25,0,39,39,11,1,,,,,,,,,,,,,,,,,,,,,,,,,,,,,,,,,,,,,,,,
,,,,,V2_007,20,Female,2024-03-01_10h39.30.634,jersey_experiment_5_v2,2023.2.2,Win32,84.74576271,,,,,,,,,,,,,,,,411.7085,413.8026,413.8026,416.1084,return,1.5925,,50.65104167,,,,,,FBP-OG-81.png,0.4,1.2,23,0.5,0,40,40,22,1,,,,,,,,,,,,,,,,,,,,,,,,,,,,,,,,,,,,,,,,
,,,,,V2_007,20,Female,2024-03-01_10h39.30.634,jersey_experiment_5_v2,2023.2.2,Win32,84.74576271,,,,,,,,,,,,,,,,416.1087,418.2145,418.2145,419.5321,return,0.499,,48.30729167,,,,,,FBP-OG-71.png,0.37,1.2,17,0.5,0,41,41,16,1,,,,,,,,,,,,,,,,,,,,,,,,,,,,,,,,,,,,,,,,
,,,,,V2_007,20,Female,2024-03-01_10h39.30.634,jersey_experiment_5_v2,2023.2.2,Win32,84.74576271,,,,,,,,,,,,,,,,419.5323,421.6262,421.6263,422.1204,return,0.1824,,49.34895833,,,,,,FBP-RB-91.png,0.35,1.2,41,0.5,0,42,42,40,1,,,,,,,,,,,,,,,,,,,,,,,,,,,,,,,,,,,,,,,,
,,,,,V2_007,20,Female,2024-03-01_10h39.30.634,jersey_experiment_5_v2,2023.2.2,Win32,84.74576271,,,,,,,,,,,,,,,,422.1206,424.2146,424.2146,425.4735,return,0.0943,,75,,,,,,FBP-YG-18.png,0.45,1.2,55,0.5,0,43,43,54,1,,,,,,,,,,,,,,,,,,,,,,,,,,,,,,,,,,,,,,,,
,,,,,V2_007,20,Female,2024-03-01_10h39.30.634,jersey_experiment_5_v2,2023.2.2,Win32,84.74576271,,,,,,,,,,,,,,,,425.4737,427.5677,427.5678,428.5089,return,0.2039,,26.04166667,,,,,,FBP-YG-18.png,0.37,1.2,52,0.5,0,44,44,51,1,,,,,,,,,,,,,,,,,,,,,,,,,,,,,,,,,,,,,,,,
,,,,,V2_007,20,Female,2024-03-01_10h39.30.634,jersey_experiment_5_v2,2023.2.2,Win32,84.74576271,,,,,,,,,,,,,,,,428.5092,430.3679,430.3679,431.756,return,0.1575,,74.609375,,,,,,FBP-PT-91.png,0.45,1.2,15,0.25,0,45,45,14,1,,,,,,,,,,,,,,,,,,,,,,,,,,,,,,,,,,,,,,,,
,,,,,V2_007,20,Female,2024-03-01_10h39.30.634,jersey_experiment_5_v2,2023.2.2,Win32,84.74576271,,,,,,,,,,,,,,,,431.7562,433.6032,433.6032,435.4974,return,0.0762,,43.22916667,,,,,,FBP-PT-71.png,0.35,1.2,1,0.25,0,46,46,0,1,,,,,,,,,,,,,,,,,,,,,,,,,,,,,,,,,,,,,,,,
,,,,,V2_007,20,Female,2024-03-01_10h39.30.634,jersey_experiment_5_v2,2023.2.2,Win32,84.74576271,,,,,,,,,,,,,,,,435.4976,437.3562,437.3562,438.9445,return,0.198,,48.69791667,,,,,,FBP-PT-91.png,0.43,1.2,14,0.25,0,47,47,13,1,,,,,,,,,,,,,,,,,,,,,,,,,,,,,,,,,,,,,,,,
,,,,,V2_007,20,Female,2024-03-01_10h39.30.634,jersey_experiment_5_v2,2023.2.2,Win32,84.74576271,,,,,,,,,,,,,,,,438.9447,441.0507,441.0508,441.9917,return,0.186,,71.484375,,,,,,FBP-OG-81.png,0.45,1.2,25,0.5,0,48,48,24,1,,,,,,,,,,,,,,,,,,,,,,,,,,,,,,,,,,,,,,,,
,,,,,V2_007,20,Female,2024-03-01_10h39.30.634,jersey_experiment_5_v2,2023.2.2,Win32,84.74576271,,,,,,,,,,,,,,,,441.992,444.0979,444.0979,445.4742,return,0.0847,,61.45833333,,,,,,FBP-OG-71.png,0.43,1.2,19,0.5,0,49,49,18,1,,,,,,,,,,,,,,,,,,,,,,,,,,,,,,,,,,,,,,,,
,,,,,V2_007,20,Female,2024-03-01_10h39.30.634,jersey_experiment_5_v2,2023.2.2,Win32,84.74576271,,,,,,,,,,,,,,,,445.4745,447.5684,447.5684,448.6389,return,0.237,,39.453125,,,,,,FBP-YG-19.png,0.37,1.2,57,0.5,0,50,50,56,1,,,,,,,,,,,,,,,,,,,,,,,,,,,,,,,,,,,,,,,,
,,,,,V2_007,20,Female,2024-03-01_10h39.30.634,jersey_experiment_5_v2,2023.2.2,Win32,84.74576271,,,,,,,,,,,,,,,,448.6392,450.7332,450.7332,451.8039,return,0.2285,,47.78645833,,,,,,FBP-RB-91.png,0.4,1.2,43,0.5,0,51,51,42,1,,,,,,,,,,,,,,,,,,,,,,,,,,,,,,,,,,,,,,,,
,,,,,V2_007,20,Female,2024-03-01_10h39.30.634,jersey_experiment_5_v2,2023.2.2,Win32,84.74576271,,,,,,,,,,,,,,,,451.8041,453.8982,453.8982,454.6864,return,0.1201,,27.86458333,,,,,,FBP-OG-71.png,0.35,1.2,16,0.5,0,52,52,15,1,,,,,,,,,,,,,,,,,,,,,,,,,,,,,,,,,,,,,,,,
,,,,,V2_007,20,Female,2024-03-01_10h39.30.634,jersey_experiment_5_v2,2023.2.2,Win32,84.74576271,,,,,,,,,,,,,,,,454.6866,456.7807,456.7808,467.6163,return,0.8617,,68.359375,,,,,,FBP-YG-17.png,0.43,1.2,49,0.5,0,53,53,48,1,,,,,,,,,,,,,,,,,,,,,,,,,,,,,,,,,,,,,,,,
,,,,,V2_007,20,Female,2024-03-01_10h39.30.634,jersey_experiment_5_v2,2023.2.2,Win32,84.74576271,,,,,,,,,,,,,,,,467.6166,469.7105,469.7105,471.1928,return,0.1474,,33.85416667,,,,,,FBP-YG-17.png,0.35,1.2,46,0.5,0,54,54,45,1,,,,,,,,,,,,,,,,,,,,,,,,,,,,,,,,,,,,,,,,
,,,,,V2_007,20,Female,2024-03-01_10h39.30.634,jersey_experiment_5_v2,2023.2.2,Win32,84.74576271,,,,,,,,,,,,,,,,471.193,473.0399,473.04,473.7576,return,0.1427,,56.25,,,,,,FBP-PT-81.png,0.4,1.2,8,0.25,0,55,55,7,1,,,,,,,,,,,,,,,,,,,,,,,,,,,,,,,,,,,,,,,,
,,,,,V2_007,20,Female,2024-03-01_10h39.30.634,jersey_experiment_5_v2,2023.2.2,Win32,84.74576271,,,,,,,,,,,,,,,,473.7578,475.8519,475.852,477.0048,return,0.4485,,68.88020833,,,,,,FBP-RB-81.png,0.4,1.2,38,0.5,0,56,56,37,1,,,,,,,,,,,,,,,,,,,,,,,,,,,,,,,,,,,,,,,,
,,,,,V2_007,20,Female,2024-03-01_10h39.30.634,jersey_experiment_5_v2,2023.2.2,Win32,84.74576271,,,,,,,,,,,,,,,,477.0051,478.8637,478.8637,479.2283,return,0.0516,,68.88020833,,,,,,FBP-PT-71.png,0.45,1.2,5,0.25,0,57,57,4,1,,,,,,,,,,,,,,,,,,,,,,,,,,,,,,,,,,,,,,,,
,,,,,V2_007,20,Female,2024-03-01_10h39.30.634,jersey_experiment_5_v2,2023.2.2,Win32,84.74576271,,,,,,,,,,,,,,,,479.2286,481.0756,481.0757,482.2637,return,0.536,,74.73958333,,,,,,FBP-PT-81.png,0.45,1.2,10,0.25,0,58,58,9,1,,,,,,,,,,,,,,,,,,,,,,,,,,,,,,,,,,,,,,,,
,,,,,V2_007,20,Female,2024-03-01_10h39.30.634,jersey_experiment_5_v2,2023.2.2,Win32,84.74576271,,,,,,,,,,,,,,,,482.2639,484.3698,484.3698,485.9227,return,0.8616,,44.140625,,,,,,FBP-OG-91.png,0.37,1.2,27,0.5,0,59,59,26,1,,,,,,,,,,,,,,,,,,,,,,,,,,,,,,,,,,,,,,,,
,,,,,V2_007,20,Female,2024-03-01_10h39.30.634,jersey_experiment_5_v2,2023.2.2,Win32,84.74576271,,,,,,,,,,,,,,,,,,,,,,,,,,,,,,,,,,,,,,,485.9232,605.9158,,,,,,,,,,,,,,,,,,,,,,,,,,,,,,,,,,,,,,
,,,,,V2_007,20,Female,2024-03-01_10h39.30.634,jersey_experiment_5_v2,2023.2.2,Win32,84.74576271,,,,,,,,,,,,,,,,,,,,,,,,,,,,,,,,,,,,,,,,,605.9158,630.1753,return,24.247,,,,,,,,,,,,,,,,,,,,,,,,,,,,,,,,,,
,,,,,V2_007,20,Female,2024-03-01_10h39.30.634,jersey_experiment_5_v2,2023.2.2,Win32,84.74576271,,,,,,,,,,,,,,,,630.1814,632.0341,632.0341,633.4577,return,0.3526,,49.73958333,,,,,,FBP-YG-71.png,0.37,1.2,47,0.25,,,,,,,,,,,,,0,0,0,46,1,,,,,,,,,,,,,,,,,,,,,,,,,,,,
,,,,,V2_007,20,Female,2024-03-01_10h39.30.634,jersey_experiment_5_v2,2023.2.2,Win32,84.74576271,,,,,,,,,,,,,,,,633.458,635.3048,635.3048,636.7285,return,0.1379,,75.13020833,,,,,,FBP-RB-18.png,0.45,1.2,40,0.25,,,,,,,,,,,,,0,1,1,39,1,,,,,,,,,,,,,,,,,,,,,,,,,,,,
,,,,,V2_007,20,Female,2024-03-01_10h39.30.634,jersey_experiment_5_v2,2023.2.2,Win32,84.74576271,,,,,,,,,,,,,,,,636.7287,638.5871,638.5871,639.3873,return,0.097,,49.609375,,,,,,FBP-RB-18.png,0.37,1.2,37,0.25,,,,,,,,,,,,,0,2,2,36,1,,,,,,,,,,,,,,,,,,,,,,,,,,,,
,,,,,V2_007,20,Female,2024-03-01_10h39.30.634,jersey_experiment_5_v2,2023.2.2,Win32,84.74576271,,,,,,,,,,,,,,,,639.3875,641.2461,641.2462,641.705,return,0.1254,,49.73958333,,,,,,FBP-YG-71.png,0.4,1.2,48,0.25,,,,,,,,,,,,,0,3,3,47,1,,,,,,,,,,,,,,,,,,,,,,,,,,,,
,,,,,V2_007,20,Female,2024-03-01_10h39.30.634,jersey_experiment_5_v2,2023.2.2,Win32,84.74576271,,,,,,,,,,,,,,,,641.7052,643.5522,643.5523,644.3638,return,0.0988,,74.86979167,,,,,,FBP-YG-91.png,0.45,1.2,60,0.25,,,,,,,,,,,,,0,4,4,59,1,,,,,,,,,,,,,,,,,,,,,,,,,,,,
,,,,,V2_007,20,Female,2024-03-01_10h39.30.634,jersey_experiment_5_v2,2023.2.2,Win32,84.74576271,,,,,,,,,,,,,,,,644.364,646.2111,646.2112,646.6345,return,0.0977,,75.13020833,,,,,,FBP-OG-19.png,0.43,1.2,29,0.25,,,,,,,,,,,,,0,5,5,28,1,,,,,,,,,,,,,,,,,,,,,,,,,,,,
,,,,,V2_007,20,Female,2024-03-01_10h39.30.634,jersey_experiment_5_v2,2023.2.2,Win32,84.74576271,,,,,,,,,,,,,,,,646.6348,648.4816,648.4816,649.2581,return,0.2421,,75.13020833,,,,,,FBP-YG-81.png,0.4,1.2,53,0.25,,,,,,,,,,,,,0,6,6,52,1,,,,,,,,,,,,,,,,,,,,,,,,,,,,
,,,,,V2_007,20,Female,2024-03-01_10h39.30.634,jersey_experiment_5_v2,2023.2.2,Win32,84.74576271,,,,,,,,,,,,,,,,649.2584,651.3524,651.3525,652.0584,return,0.0627,,50,,,,,,FBP-PT-18.png,0.37,1.2,7,0.5,,,,,,,,,,,,,0,7,7,6,1,,,,,,,,,,,,,,,,,,,,,,,,,,,,
,,,,,V2_007,20,Female,2024-03-01_10h39.30.634,jersey_experiment_5_v2,2023.2.2,Win32,84.74576271,,,,,,,,,,,,,,,,652.0585,653.9171,653.9172,654.8466,return,0.0387,,28.90625,,,,,,FBP-RB-19.png,0.37,1.2,42,0.25,,,,,,,,,,,,,0,8,8,41,1,,,,,,,,,,,,,,,,,,,,,,,,,,,,
,,,,,V2_007,20,Female,2024-03-01_10h39.30.634,jersey_experiment_5_v2,2023.2.2,Win32,84.74576271,,,,,,,,,,,,,,,,654.8469,656.6938,656.6938,657.3761,return,0.0945,,51.171875,,,,,,FBP-OG-17.png,0.4,1.2,18,0.25,,,,,,,,,,,,,0,9,9,17,1,,,,,,,,,,,,,,,,,,,,,,,,,,,,
,,,,,V2_007,20,Female,2024-03-01_10h39.30.634,jersey_experiment_5_v2,2023.2.2,Win32,84.74576271,,,,,,,,,,,,,,,,657.3764,659.2234,659.2234,660.2351,return,0.0974,,74.86979167,,,,,,FBP-RB-19.png,0.43,1.2,44,0.25,,,,,,,,,,,,,0,10,10,43,1,,,,,,,,,,,,,,,,,,,,,,,,,,,,
,,,,,V2_007,20,Female,2024-03-01_10h39.30.634,jersey_experiment_5_v2,2023.2.2,Win32,84.74576271,,,,,,,,,,,,,,,,660.2354,662.0821,662.0821,662.3528,return,0.156,,74.609375,,,,,,FBP-OG-18.png,0.43,1.2,24,0.25,,,,,,,,,,,,,0,11,11,23,1,,,,,,,,,,,,,,,,,,,,,,,,,,,,
,,,,,V2_007,20,Female,2024-03-01_10h39.30.634,jersey_experiment_5_v2,2023.2.2,Win32,84.74576271,,,,,,,,,,,,,,,,662.353,664.1999,664.1999,664.8823,return,0.1178,,74.609375,,,,,,FBP-RB-17.png,0.45,1.2,35,0.25,,,,,,,,,,,,,0,12,12,34,1,,,,,,,,,,,,,,,,,,,,,,,,,,,,
,,,,,V2_007,20,Female,2024-03-01_10h39.30.634,jersey_experiment_5_v2,2023.2.2,Win32,84.74576271,,,,,,,,,,,,,,,,664.8825,666.7294,666.7295,667.2001,return,0.0853,,74.609375,,,,,,FBP-YG-81.png,0.45,1.2,55,0.25,,,,,,,,,,,,,0,13,13,54,1,,,,,,,,,,,,,,,,,,,,,,,,,,,,
,,,,,V2_007,20,Female,2024-03-01_10h39.30.634,jersey_experiment_5_v2,2023.2.2,Win32,84.74576271,,,,,,,,,,,,,,,,667.2003,669.0472,669.0472,669.8824,return,0.1454,,29.94791667,,,,,,FBP-RB-18.png,0.35,1.2,36,0.25,,,,,,,,,,,,,0,14,14,35,1,,,,,,,,,,,,,,,,,,,,,,,,,,,,
,,,,,V2_007,20,Female,2024-03-01_10h39.30.634,jersey_experiment_5_v2,2023.2.2,Win32,84.74576271,,,,,,,,,,,,,,,,669.8826,671.9768,671.9769,672.8591,return,0.1,,52.60416667,,,,,,FBP-PT-18.png,0.4,1.2,8,0.5,,,,,,,,,,,,,0,15,15,7,1,,,,,,,,,,,,,,,,,,,,,,,,,,,,
,,,,,V2_007,20,Female,2024-03-01_10h39.30.634,jersey_experiment_5_v2,2023.2.2,Win32,84.74576271,,,,,,,,,,,,,,,,672.8593,674.7063,674.7063,675.2474,return,0.0004,,74.47916667,,,,,,FBP-YG-91.png,0.43,1.2,59,0.25,,,,,,,,,,,,,0,16,16,58,1,,,,,,,,,,,,,,,,,,,,,,,,,,,,
,,,,,V2_007,20,Female,2024-03-01_10h39.30.634,jersey_experiment_5_v2,2023.2.2,Win32,84.74576271,,,,,,,,,,,,,,,,675.2476,677.3417,677.3417,678.0827,return,0.094,,50.13020833,,,,,,FBP-PT-19.png,0.35,1.2,11,0.5,,,,,,,,,,,,,0,17,17,10,1,,,,,,,,,,,,,,,,,,,,,,,,,,,,
,,,,,V2_007,20,Female,2024-03-01_10h39.30.634,jersey_experiment_5_v2,2023.2.2,Win32,84.74576271,,,,,,,,,,,,,,,,678.083,680.1889,680.1889,681.0005,return,0.0411,,74.08854167,,,,,,FBP-PT-17.png,0.45,1.2,5,0.5,,,,,,,,,,,,,0,18,18,4,1,,,,,,,,,,,,,,,,,,,,,,,,,,,,
,,,,,V2_007,20,Female,2024-03-01_10h39.30.634,jersey_experiment_5_v2,2023.2.2,Win32,84.74576271,,,,,,,,,,,,,,,,681.0007,682.8594,682.8594,684.9772,return,0.2684,,63.671875,,,,,,FBP-OG-17.png,0.35,1.2,16,0.25,,,,,,,,,,,,,0,19,19,15,1,,,,,,,,,,,,,,,,,,,,,,,,,,,,
,,,,,V2_007,20,Female,2024-03-01_10h39.30.634,jersey_experiment_5_v2,2023.2.2,Win32,84.74576271,,,,,,,,,,,,,,,,684.9773,687.0712,687.0713,688.0479,return,0.3903,,39.58333333,,,,,,FBP-PT-17.png,0.37,1.2,2,0.5,,,,,,,,,,,,,0,20,20,1,1,,,,,,,,,,,,,,,,,,,,,,,,,,,,
,,,,,V2_007,20,Female,2024-03-01_10h39.30.634,jersey_experiment_5_v2,2023.2.2,Win32,84.74576271,,,,,,,,,,,,,,,,688.0481,689.8952,689.8952,690.5538,return,0.1245,,49.73958333,,,,,,FBP-YG-71.png,0.45,1.2,50,0.25,,,,,,,,,,,,,0,21,21,49,1,,,,,,,,,,,,,,,,,,,,,,,,,,,,
,,,,,V2_007,20,Female,2024-03-01_10h39.30.634,jersey_experiment_5_v2,2023.2.2,Win32,84.74576271,,,,,,,,,,,,,,,,690.554,692.6481,692.6481,693.0479,return,0.1355,,50,,,,,,FBP-PT-17.png,0.4,1.2,3,0.5,,,,,,,,,,,,,0,22,22,2,1,,,,,,,,,,,,,,,,,,,,,,,,,,,,
,,,,,V2_007,20,Female,2024-03-01_10h39.30.634,jersey_experiment_5_v2,2023.2.2,Win32,84.74576271,,,,,,,,,,,,,,,,693.0481,694.8954,694.8954,695.5658,return,0.0502,,33.984375,,,,,,FBP-RB-19.png,0.4,1.2,43,0.25,,,,,,,,,,,,,0,23,23,42,1,,,,,,,,,,,,,,,,,,,,,,,,,,,,
,,,,,V2_007,20,Female,2024-03-01_10h39.30.634,jersey_experiment_5_v2,2023.2.2,Win32,84.74576271,,,,,,,,,,,,,,,,695.566,697.6599,697.66,698.413,return,0.0597,,62.76041667,,,,,,FBP-PT-19.png,0.45,1.2,15,0.5,,,,,,,,,,,,,0,24,24,14,1,,,,,,,,,,,,,,,,,,,,,,,,,,,,
,,,,,V2_007,20,Female,2024-03-01_10h39.30.634,jersey_experiment_5_v2,2023.2.2,Win32,84.74576271,,,,,,,,,,,,,,,,698.4132,700.2602,700.2603,701.6484,return,0.6824,,49.34895833,,,,,,FBP-YG-81.png,0.37,1.2,52,0.25,,,,,,,,,,,,,0,25,25,51,1,,,,,,,,,,,,,,,,,,,,,,,,,,,,
,,,,,V2_007,20,Female,2024-03-01_10h39.30.634,jersey_experiment_5_v2,2023.2.2,Win32,84.74576271,,,,,,,,,,,,,,,,701.6487,703.5073,703.5073,704.4132,return,0.2628,,27.99479167,,,,,,FBP-OG-17.png,0.37,1.2,17,0.25,,,,,,,,,,,,,0,26,26,16,1,,,,,,,,,,,,,,,,,,,,,,,,,,,,
,,,,,V2_007,20,Female,2024-03-01_10h39.30.634,jersey_experiment_5_v2,2023.2.2,Win32,84.74576271,,,,,,,,,,,,,,,,704.4134,706.272,706.272,707.1663,return,0.3086,,49.08854167,,,,,,FBP-RB-17.png,0.43,1.2,34,0.25,,,,,,,,,,,,,0,27,27,33,1,,,,,,,,,,,,,,,,,,,,,,,,,,,,
,,,,,V2_007,20,Female,2024-03-01_10h39.30.634,jersey_experiment_5_v2,2023.2.2,Win32,84.74576271,,,,,,,,,,,,,,,,707.1665,709.2604,709.2606,709.8956,return,0.0416,,74.47916667,,,,,,FBP-PT-18.png,0.43,1.2,9,0.5,,,,,,,,,,,,,0,28,28,8,1,,,,,,,,,,,,,,,,,,,,,,,,,,,,
,,,,,V2_007,20,Female,2024-03-01_10h39.30.634,jersey_experiment_5_v2,2023.2.2,Win32,84.74576271,,,,,,,,,,,,,,,,709.8957,711.7545,711.7546,712.6487,return,0.0641,,38.28125,,,,,,FBP-RB-17.png,0.37,1.2,32,0.25,,,,,,,,,,,,,0,29,29,31,1,,,,,,,,,,,,,,,,,,,,,,,,,,,,
,,,,,V2_007,20,Female,2024-03-01_10h39.30.634,jersey_experiment_5_v2,2023.2.2,Win32,84.74576271,,,,,,,,,,,,,,,,712.6489,714.743,714.7431,715.2136,return,0.1069,,49.34895833,,,,,,FBP-PT-19.png,0.4,1.2,13,0.5,,,,,,,,,,,,,0,30,30,12,1,,,,,,,,,,,,,,,,,,,,,,,,,,,,
,,,,,V2_007,20,Female,2024-03-01_10h39.30.634,jersey_experiment_5_v2,2023.2.2,Win32,84.74576271,,,,,,,,,,,,,,,,715.2138,717.0608,717.0608,717.5668,return,0.0494,,29.55729167,,,,,,FBP-RB-17.png,0.35,1.2,31,0.25,,,,,,,,,,,,,0,31,31,30,1,,,,,,,,,,,,,,,,,,,,,,,,,,,,
,,,,,V2_007,20,Female,2024-03-01_10h39.30.634,jersey_experiment_5_v2,2023.2.2,Win32,84.74576271,,,,,,,,,,,,,,,,717.567,719.4139,719.4139,721.1785,return,1.0154,,69.140625,,,,,,FBP-OG-19.png,0.45,1.2,30,0.25,,,,,,,,,,,,,0,32,32,29,1,,,,,,,,,,,,,,,,,,,,,,,,,,,,
,,,,,V2_007,20,Female,2024-03-01_10h39.30.634,jersey_experiment_5_v2,2023.2.2,Win32,84.74576271,,,,,,,,,,,,,,,,721.1787,723.0257,723.0257,724.696,return,0.158,,25.390625,,,,,,FBP-RB-19.png,0.35,1.2,41,0.25,,,,,,,,,,,,,0,33,33,40,1,,,,,,,,,,,,,,,,,,,,,,,,,,,,
,,,,,V2_007,20,Female,2024-03-01_10h39.30.634,jersey_experiment_5_v2,2023.2.2,Win32,84.74576271,,,,,,,,,,,,,,,,724.6963,726.5552,726.5552,727.4257,return,0.1743,,50.13020833,,,,,,FBP-YG-91.png,0.37,1.2,57,0.25,,,,,,,,,,,,,0,34,34,56,1,,,,,,,,,,,,,,,,,,,,,,,,,,,,
,,,,,V2_007,20,Female,2024-03-01_10h39.30.634,jersey_experiment_5_v2,2023.2.2,Win32,84.74576271,,,,,,,,,,,,,,,,727.4259,729.2846,729.2847,730.5553,return,0.0761,,49.73958333,,,,,,FBP-OG-19.png,0.4,1.2,28,0.25,,,,,,,,,,,,,0,35,35,27,1,,,,,,,,,,,,,,,,,,,,,,,,,,,,
,,,,,V2_007,20,Female,2024-03-01_10h39.30.634,jersey_experiment_5_v2,2023.2.2,Win32,84.74576271,,,,,,,,,,,,,,,,730.5555,732.4141,732.4142,732.7789,return,0.088,,49.86979167,,,,,,FBP-RB-18.png,0.4,1.2,38,0.25,,,,,,,,,,,,,0,36,36,37,1,,,,,,,,,,,,,,,,,,,,,,,,,,,,
,,,,,V2_007,20,Female,2024-03-01_10h39.30.634,jersey_experiment_5_v2,2023.2.2,Win32,84.74576271,,,,,,,,,,,,,,,,732.7791,734.6261,734.6261,735.1201,return,0.0944,,39.84375,,,,,,FBP-OG-19.png,0.35,1.2,26,0.25,,,,,,,,,,,,,0,37,37,25,1,,,,,,,,,,,,,,,,,,,,,,,,,,,,
,,,,,V2_007,20,Female,2024-03-01_10h39.30.634,jersey_experiment_5_v2,2023.2.2,Win32,84.74576271,,,,,,,,,,,,,,,,735.1203,736.9673,736.9674,738.4026,return,0.2262,,48.95833333,,,,,,FBP-YG-71.png,0.35,1.2,46,0.25,,,,,,,,,,,,,0,38,38,45,1,,,,,,,,,,,,,,,,,,,,,,,,,,,,
,,,,,V2_007,20,Female,2024-03-01_10h39.30.634,jersey_experiment_5_v2,2023.2.2,Win32,84.74576271,,,,,,,,,,,,,,,,738.4029,740.2499,740.2499,740.944,return,0.0145,,74.73958333,,,,,,FBP-RB-19.png,0.45,1.2,45,0.25,,,,,,,,,,,,,0,39,39,44,1,,,,,,,,,,,,,,,,,,,,,,,,,,,,
,,,,,V2_007,20,Female,2024-03-01_10h39.30.634,jersey_experiment_5_v2,2023.2.2,Win32,84.74576271,,,,,,,,,,,,,,,,740.9442,743.0381,743.0381,744.0499,return,0.0141,,75.13020833,,,,,,FBP-PT-19.png,0.43,1.2,14,0.5,,,,,,,,,,,,,0,40,40,13,1,,,,,,,,,,,,,,,,,,,,,,,,,,,,
,,,,,V2_007,20,Female,2024-03-01_10h39.30.634,jersey_experiment_5_v2,2023.2.2,Win32,84.74576271,,,,,,,,,,,,,,,,744.05,745.8971,745.8971,746.3324,return,0.0015,,75.13020833,,,,,,FBP-RB-18.png,0.43,1.2,39,0.25,,,,,,,,,,,,,0,41,41,38,1,,,,,,,,,,,,,,,,,,,,,,,,,,,,
,,,,,V2_007,20,Female,2024-03-01_10h39.30.634,jersey_experiment_5_v2,2023.2.2,Win32,84.74576271,,,,,,,,,,,,,,,,746.3326,748.1912,748.1912,748.8737,return,0.0279,,49.08854167,,,,,,FBP-OG-18.png,0.35,1.2,21,0.25,,,,,,,,,,,,,0,42,42,20,1,,,,,,,,,,,,,,,,,,,,,,,,,,,,
,,,,,V2_007,20,Female,2024-03-01_10h39.30.634,jersey_experiment_5_v2,2023.2.2,Win32,84.74576271,,,,,,,,,,,,,,,,748.8739,750.9795,750.9795,752.3443,return,0.371,,50.390625,,,,,,FBP-PT-19.png,0.37,1.2,12,0.5,,,,,,,,,,,,,0,43,43,11,1,,,,,,,,,,,,,,,,,,,,,,,,,,,,
,,,,,V2_007,20,Female,2024-03-01_10h39.30.634,jersey_experiment_5_v2,2023.2.2,Win32,84.74576271,,,,,,,,,,,,,,,,752.3445,754.2032,754.2032,755.321,return,0.137,,49.08854167,,,,,,FBP-OG-18.png,0.4,1.2,23,0.25,,,,,,,,,,,,,0,44,44,22,1,,,,,,,,,,,,,,,,,,,,,,,,,,,,
,,,,,V2_007,20,Female,2024-03-01_10h39.30.634,jersey_experiment_5_v2,2023.2.2,Win32,84.74576271,,,,,,,,,,,,,,,,755.3212,757.1796,757.1797,757.4505,return,0.0626,,49.21875,,,,,,FBP-YG-91.png,0.4,1.2,58,0.25,,,,,,,,,,,,,0,45,45,57,1,,,,,,,,,,,,,,,,,,,,,,,,,,,,
,,,,,V2_007,20,Female,2024-03-01_10h39.30.634,jersey_experiment_5_v2,2023.2.2,Win32,84.74576271,,,,,,,,,,,,,,,,757.4508,759.2975,759.2975,759.7092,return,0.1302,,49.21875,,,,,,FBP-OG-19.png,0.37,1.2,27,0.25,,,,,,,,,,,,,0,46,46,26,1,,,,,,,,,,,,,,,,,,,,,,,,,,,,
,,,,,V2_007,20,Female,2024-03-01_10h39.30.634,jersey_experiment_5_v2,2023.2.2,Win32,84.74576271,,,,,,,,,,,,,,,,759.7095,761.8034,761.8034,762.2976,return,0.1573,,49.21875,,,,,,FBP-PT-18.png,0.35,1.2,6,0.5,,,,,,,,,,,,,0,47,47,5,1,,,,,,,,,,,,,,,,,,,,,,,,,,,,
,,,,,V2_007,20,Female,2024-03-01_10h39.30.634,jersey_experiment_5_v2,2023.2.2,Win32,84.74576271,,,,,,,,,,,,,,,,762.2979,764.1449,764.1449,765.2506,return,0.0608,,75.26041667,,,,,,FBP-YG-81.png,0.43,1.2,54,0.25,,,,,,,,,,,,,0,48,48,53,1,,,,,,,,,,,,,,,,,,,,,,,,,,,,
,,,,,V2_007,20,Female,2024-03-01_10h39.30.634,jersey_experiment_5_v2,2023.2.2,Win32,84.74576271,,,,,,,,,,,,,,,,765.2509,767.3449,767.3449,768.1096,return,0.1064,,84.11458333,,,,,,FBP-PT-18.png,0.45,1.2,10,0.5,,,,,,,,,,,,,0,49,49,9,1,,,,,,,,,,,,,,,,,,,,,,,,,,,,
,,,,,V2_007,20,Female,2024-03-01_10h39.30.634,jersey_experiment_5_v2,2023.2.2,Win32,84.74576271,,,,,,,,,,,,,,,,768.1097,769.9568,769.9568,771.0155,return,0.0916,,74.73958333,,,,,,FBP-RB-17.png,0.4,1.2,33,0.25,,,,,,,,,,,,,0,50,50,32,1,,,,,,,,,,,,,,,,,,,,,,,,,,,,
,,,,,V2_007,20,Female,2024-03-01_10h39.30.634,jersey_experiment_5_v2,2023.2.2,Win32,84.74576271,,,,,,,,,,,,,,,,771.0158,772.8628,772.8628,773.2746,return,0.0742,,80.59895833,,,,,,FBP-OG-17.png,0.43,1.2,19,0.25,,,,,,,,,,,,,0,51,51,18,1,,,,,,,,,,,,,,,,,,,,,,,,,,,,
,,,,,V2_007,20,Female,2024-03-01_10h39.30.634,jersey_experiment_5_v2,2023.2.2,Win32,84.74576271,,,,,,,,,,,,,,,,773.2748,775.1334,775.1334,775.6982,return,0.1883,,80.078125,,,,,,FBP-OG-18.png,0.45,1.2,25,0.25,,,,,,,,,,,,,0,52,52,24,1,,,,,,,,,,,,,,,,,,,,,,,,,,,,
,,,,,V2_007,20,Female,2024-03-01_10h39.30.634,jersey_experiment_5_v2,2023.2.2,Win32,84.74576271,,,,,,,,,,,,,,,,775.6984,777.8039,777.804,778.4278,return,0.1676,,79.94791667,,,,,,FBP-PT-17.png,0.43,1.2,4,0.5,,,,,,,,,,,,,0,53,53,3,1,,,,,,,,,,,,,,,,,,,,,,,,,,,,
,,,,,V2_007,20,Female,2024-03-01_10h39.30.634,jersey_experiment_5_v2,2023.2.2,Win32,84.74576271,,,,,,,,,,,,,,,,778.428,780.2748,780.2749,780.9689,return,0.1133,,37.63020833,,,,,,FBP-YG-91.png,0.35,1.2,56,0.25,,,,,,,,,,,,,0,54,54,55,1,,,,,,,,,,,,,,,,,,,,,,,,,,,,
,,,,,V2_007,20,Female,2024-03-01_10h39.30.634,jersey_experiment_5_v2,2023.2.2,Win32,84.74576271,,,,,,,,,,,,,,,,780.9692,782.816,782.8161,783.5925,return,0.0409,,62.109375,,,,,,FBP-OG-17.png,0.45,1.2,20,0.25,,,,,,,,,,,,,0,55,55,19,1,,,,,,,,,,,,,,,,,,,,,,,,,,,,
,,,,,V2_007,20,Female,2024-03-01_10h39.30.634,jersey_experiment_5_v2,2023.2.2,Win32,84.74576271,,,,,,,,,,,,,,,,783.5927,785.4397,785.4397,786.2868,return,0.5085,,62.109375,,,,,,FBP-YG-71.png,0.43,1.2,49,0.25,,,,,,,,,,,,,0,56,56,48,1,,,,,,,,,,,,,,,,,,,,,,,,,,,,
,,,,,V2_007,20,Female,2024-03-01_10h39.30.634,jersey_experiment_5_v2,2023.2.2,Win32,84.74576271,,,,,,,,,,,,,,,,786.287,788.381,788.381,789.1809,return,0.1565,,51.04166667,,,,,,FBP-PT-17.png,0.35,1.2,1,0.5,,,,,,,,,,,,,0,57,57,0,1,,,,,,,,,,,,,,,,,,,,,,,,,,,,
,,,,,V2_007,20,Female,2024-03-01_10h39.30.634,jersey_experiment_5_v2,2023.2.2,Win32,84.74576271,,,,,,,,,,,,,,,,789.181,791.028,791.028,791.887,return,0.2583,,51.04166667,,,,,,FBP-OG-18.png,0.37,1.2,22,0.25,,,,,,,,,,,,,0,58,58,21,1,,,,,,,,,,,,,,,,,,,,,,,,,,,,
,,,,,V2_007,20,Female,2024-03-01_10h39.30.634,jersey_experiment_5_v2,2023.2.2,Win32,84.74576271,,,,,,,,,,,,,,,,791.8873,793.7341,793.7342,794.8165,return,0.2353,,50.390625,,,,,,FBP-YG-81.png,0.35,1.2,51,0.25,,,,,,,,,,,,,0,59,59,50,1,,,,,,,,,,,,,,,,,,,,,,,,,,,,
,,,,,V2_007,20,Female,2024-03-01_10h39.30.634,jersey_experiment_5_v2,2023.2.2,Win32,84.74576271,,,,,,,,,,,,,,,,794.818,796.6753,796.6753,797.2401,return,0.15,,50.390625,,,,,,FBP-YG-17.png,0.4,1.2,48,0.25,,,,,,,,,,,,,,,,,,0,0,0,47,1,,,,,,,,,,,,,,,,,,,,,,,
,,,,,V2_007,20,Female,2024-03-01_10h39.30.634,jersey_experiment_5_v2,2023.2.2,Win32,84.74576271,,,,,,,,,,,,,,,,797.2403,799.0872,799.0873,800.0991,return,0.2259,,50.390625,,,,,,FBP-RB-81.png,0.45,1.2,40,0.25,,,,,,,,,,,,,,,,,,0,1,1,39,1,,,,,,,,,,,,,,,,,,,,,,,
,,,,,V2_007,20,Female,2024-03-01_10h39.30.634,jersey_experiment_5_v2,2023.2.2,Win32,84.74576271,,,,,,,,,,,,,,,,800.0993,801.9461,801.9461,803.1697,return,0.2826,,50.390625,,,,,,FBP-RB-71.png,0.43,1.2,34,0.25,,,,,,,,,,,,,,,,,,0,2,2,33,1,,,,,,,,,,,,,,,,,,,,,,,
,,,,,V2_007,20,Female,2024-03-01_10h39.30.634,jersey_experiment_5_v2,2023.2.2,Win32,84.74576271,,,,,,,,,,,,,,,,803.17,805.0171,805.0171,805.6757,return,0.1817,,68.61979167,,,,,,FBP-OG-91.png,0.43,1.2,29,0.25,,,,,,,,,,,,,,,,,,0,3,3,28,1,,,,,,,,,,,,,,,,,,,,,,,
,,,,,V2_007,20,Female,2024-03-01_10h39.30.634,jersey_experiment_5_v2,2023.2.2,Win32,84.74576271,,,,,,,,,,,,,,,,805.6759,807.7701,807.7701,808.3699,return,0.2353,,73.56770833,,,,,,FBP-PT-71.png,0.45,1.2,5,0.5,,,,,,,,,,,,,,,,,,0,4,4,4,1,,,,,,,,,,,,,,,,,,,,,,,
,,,,,V2_007,20,Female,2024-03-01_10h39.30.634,jersey_experiment_5_v2,2023.2.2,Win32,84.74576271,,,,,,,,,,,,,,,,808.3701,810.217,810.2171,811.9819,return,1.0028,,49.21875,,,,,,FBP-YG-18.png,0.35,1.2,51,0.25,,,,,,,,,,,,,,,,,,0,5,5,50,1,,,,,,,,,,,,,,,,,,,,,,,
,,,,,V2_007,20,Female,2024-03-01_10h39.30.634,jersey_experiment_5_v2,2023.2.2,Win32,84.74576271,,,,,,,,,,,,,,,,811.9821,813.8289,813.8289,814.829,return,0.3918,,50.65104167,,,,,,FBP-OG-91.png,0.37,1.2,27,0.25,,,,,,,,,,,,,,,,,,0,6,6,26,1,,,,,,,,,,,,,,,,,,,,,,,
,,,,,V2_007,20,Female,2024-03-01_10h39.30.634,jersey_experiment_5_v2,2023.2.2,Win32,84.74576271,,,,,,,,,,,,,,,,814.8292,816.6761,816.6761,817.0526,return,0.0842,,50.65104167,,,,,,FBP-RB-71.png,0.37,1.2,32,0.25,,,,,,,,,,,,,,,,,,0,7,7,31,1,,,,,,,,,,,,,,,,,,,,,,,
,,,,,V2_007,20,Female,2024-03-01_10h39.30.634,jersey_experiment_5_v2,2023.2.2,Win32,84.74576271,,,,,,,,,,,,,,,,817.0528,818.8998,818.8998,819.9468,return,0.2503,,50.52083333,,,,,,FBP-RB-91.png,0.35,1.2,41,0.25,,,,,,,,,,,,,,,,,,0,8,8,40,1,,,,,,,,,,,,,,,,,,,,,,,
,,,,,V2_007,20,Female,2024-03-01_10h39.30.634,jersey_experiment_5_v2,2023.2.2,Win32,84.74576271,,,,,,,,,,,,,,,,819.9471,821.7941,821.7942,822.5234,return,0.135,,70.44270833,,,,,,FBP-OG-91.png,0.4,1.2,28,0.25,,,,,,,,,,,,,,,,,,0,9,9,27,1,,,,,,,,,,,,,,,,,,,,,,,
,,,,,V2_007,20,Female,2024-03-01_10h39.30.634,jersey_experiment_5_v2,2023.2.2,Win32,84.74576271,,,,,,,,,,,,,,,,822.5237,824.6293,824.6293,825.1705,return,0.1037,,69.66145833,,,,,,FBP-PT-81.png,0.37,1.2,7,0.5,,,,,,,,,,,,,,,,,,0,10,10,6,1,,,,,,,,,,,,,,,,,,,,,,,
,,,,,V2_007,20,Female,2024-03-01_10h39.30.634,jersey_experiment_5_v2,2023.2.2,Win32,84.74576271,,,,,,,,,,,,,,,,825.1707,827.0294,827.0294,827.6883,return,0.1967,,68.61979167,,,,,,FBP-RB-91.png,0.37,1.2,42,0.25,,,,,,,,,,,,,,,,,,0,11,11,41,1,,,,,,,,,,,,,,,,,,,,,,,
,,,,,V2_007,20,Female,2024-03-01_10h39.30.634,jersey_experiment_5_v2,2023.2.2,Win32,84.74576271,,,,,,,,,,,,,,,,827.6885,829.5354,829.5355,831.0883,return,0.0613,,50.390625,,,,,,FBP-OG-71.png,0.37,1.2,17,0.25,,,,,,,,,,,,,,,,,,0,12,12,16,1,,,,,,,,,,,,,,,,,,,,,,,
,,,,,V2_007,20,Female,2024-03-01_10h39.30.634,jersey_experiment_5_v2,2023.2.2,Win32,84.74576271,,,,,,,,,,,,,,,,831.0886,833.1826,833.1826,833.665,return,0.0797,,50.390625,,,,,,FBP-PT-71.png,0.37,1.2,2,0.5,,,,,,,,,,,,,,,,,,0,13,13,1,1,,,,,,,,,,,,,,,,,,,,,,,
,,,,,V2_007,20,Female,2024-03-01_10h39.30.634,jersey_experiment_5_v2,2023.2.2,Win32,84.74576271,,,,,,,,,,,,,,,,833.6651,835.5121,835.5121,836.112,return,0.1041,,50.390625,,,,,,FBP-OG-81.png,0.37,1.2,22,0.25,,,,,,,,,,,,,,,,,,0,14,14,21,1,,,,,,,,,,,,,,,,,,,,,,,
,,,,,V2_007,20,Female,2024-03-01_10h39.30.634,jersey_experiment_5_v2,2023.2.2,Win32,84.74576271,,,,,,,,,,,,,,,,836.1121,837.9594,837.9594,838.771,return,0.1176,,74.609375,,,,,,FBP-YG-18.png,0.45,1.2,55,0.25,,,,,,,,,,,,,,,,,,0,15,15,54,1,,,,,,,,,,,,,,,,,,,,,,,
,,,,,V2_007,20,Female,2024-03-01_10h39.30.634,jersey_experiment_5_v2,2023.2.2,Win32,84.74576271,,,,,,,,,,,,,,,,838.7711,840.8653,840.8654,841.3122,return,0.0237,,80.859375,,,,,,FBP-PT-71.png,0.43,1.2,4,0.5,,,,,,,,,,,,,,,,,,0,16,16,3,1,,,,,,,,,,,,,,,,,,,,,,,
,,,,,V2_007,20,Female,2024-03-01_10h39.30.634,jersey_experiment_5_v2,2023.2.2,Win32,84.74576271,,,,,,,,,,,,,,,,841.3124,843.1594,843.1595,843.6182,return,0.1177,,79.81770833,,,,,,FBP-OG-81.png,0.43,1.2,24,0.25,,,,,,,,,,,,,,,,,,0,17,17,23,1,,,,,,,,,,,,,,,,,,,,,,,
,,,,,V2_007,20,Female,2024-03-01_10h39.30.634,jersey_experiment_5_v2,2023.2.2,Win32,84.74576271,,,,,,,,,,,,,,,,843.6184,845.4655,845.4655,846.0183,return,0.118,,73.69791667,,,,,,FBP-YG-18.png,0.4,1.2,53,0.25,,,,,,,,,,,,,,,,,,0,18,18,52,1,,,,,,,,,,,,,,,,,,,,,,,
,,,,,V2_007,20,Female,2024-03-01_10h39.30.634,jersey_experiment_5_v2,2023.2.2,Win32,84.74576271,,,,,,,,,,,,,,,,846.0185,847.8656,847.8656,848.3125,return,0.1471,,83.203125,,,,,,FBP-OG-81.png,0.45,1.2,25,0.25,,,,,,,,,,,,,,,,,,0,19,19,24,1,,,,,,,,,,,,,,,,,,,,,,,
,,,,,V2_007,20,Female,2024-03-01_10h39.30.634,jersey_experiment_5_v2,2023.2.2,Win32,84.74576271,,,,,,,,,,,,,,,,848.3128,850.4068,850.4068,850.7126,return,0.0671,,82.16145833,,,,,,FBP-PT-71.png,0.4,1.2,3,0.5,,,,,,,,,,,,,,,,,,0,20,20,2,1,,,,,,,,,,,,,,,,,,,,,,,
,,,,,V2_007,20,Female,2024-03-01_10h39.30.634,jersey_experiment_5_v2,2023.2.2,Win32,84.74576271,,,,,,,,,,,,,,,,850.7129,852.5597,852.5597,881.4666,return,27.7367,,74.21875,,,,,,FBP-YG-17.png,0.45,1.2,50,0.25,,,,,,,,,,,,,,,,,,0,21,21,49,1,,,,,,,,,,,,,,,,,,,,,,,
,,,,,V2_007,20,Female,2024-03-01_10h39.30.634,jersey_experiment_5_v2,2023.2.2,Win32,84.74576271,,,,,,,,,,,,,,,,881.4715,883.3139,883.3139,884.7139,return,0.6867,,48.828125,,,,,,FBP-YG-17.png,0.35,1.2,46,0.25,,,,,,,,,,,,,,,,,,0,22,22,45,1,,,,,,,,,,,,,,,,,,,,,,,
,,,,,V2_007,20,Female,2024-03-01_10h39.30.634,jersey_experiment_5_v2,2023.2.2,Win32,84.74576271,,,,,,,,,,,,,,,,884.7142,886.5611,886.5611,888.2552,return,0.9521,,74.73958333,,,,,,FBP-OG-91.png,0.45,1.2,30,0.25,,,,,,,,,,,,,,,,,,0,23,23,29,1,,,,,,,,,,,,,,,,,,,,,,,
,,,,,V2_007,20,Female,2024-03-01_10h39.30.634,jersey_experiment_5_v2,2023.2.2,Win32,84.74576271,,,,,,,,,,,,,,,,888.2554,890.3612,890.3612,892.2554,return,0.1277,,49.86979167,,,,,,FBP-PT-71.png,0.35,1.2,1,0.5,,,,,,,,,,,,,,,,,,0,24,24,0,1,,,,,,,,,,,,,,,,,,,,,,,
,,,,,V2_007,20,Female,2024-03-01_10h39.30.634,jersey_experiment_5_v2,2023.2.2,Win32,84.74576271,,,,,,,,,,,,,,,,892.2556,894.1143,894.1143,894.7849,return,0.1085,,61.45833333,,,,,,FBP-RB-71.png,0.4,1.2,33,0.25,,,,,,,,,,,,,,,,,,0,25,25,32,1,,,,,,,,,,,,,,,,,,,,,,,
,,,,,V2_007,20,Female,2024-03-01_10h39.30.634,jersey_experiment_5_v2,2023.2.2,Win32,84.74576271,,,,,,,,,,,,,,,,894.7852,896.6321,896.6321,897.2437,return,0.0756,,69.27083333,,,,,,FBP-YG-19.png,0.43,1.2,59,0.25,,,,,,,,,,,,,,,,,,0,26,26,58,1,,,,,,,,,,,,,,,,,,,,,,,
,,,,,V2_007,20,Female,2024-03-01_10h39.30.634,jersey_experiment_5_v2,2023.2.2,Win32,84.74576271,,,,,,,,,,,,,,,,897.2438,899.338,899.338,899.8204,return,0.0725,,71.22395833,,,,,,FBP-PT-81.png,0.4,1.2,8,0.5,,,,,,,,,,,,,,,,,,0,27,27,7,1,,,,,,,,,,,,,,,,,,,,,,,
,,,,,V2_007,20,Female,2024-03-01_10h39.30.634,jersey_experiment_5_v2,2023.2.2,Win32,84.74576271,,,,,,,,,,,,,,,,899.8206,901.9262,901.9262,902.5735,return,0.1185,,70.96354167,,,,,,FBP-PT-91.png,0.4,1.2,13,0.5,,,,,,,,,,,,,,,,,,0,28,28,12,1,,,,,,,,,,,,,,,,,,,,,,,
,,,,,V2_007,20,Female,2024-03-01_10h39.30.634,jersey_experiment_5_v2,2023.2.2,Win32,84.74576271,,,,,,,,,,,,,,,,902.5737,904.4204,904.4205,904.7853,return,0.2125,,70.83333333,,,,,,FBP-YG-17.png,0.37,1.2,47,0.25,,,,,,,,,,,,,,,,,,0,29,29,46,1,,,,,,,,,,,,,,,,,,,,,,,
,,,,,V2_007,20,Female,2024-03-01_10h39.30.634,jersey_experiment_5_v2,2023.2.2,Win32,84.74576271,,,,,,,,,,,,,,,,904.7854,906.6322,906.6322,907.1618,return,0.1699,,70.703125,,,,,,FBP-OG-71.png,0.35,1.2,16,0.25,,,,,,,,,,,,,,,,,,0,30,30,15,1,,,,,,,,,,,,,,,,,,,,,,,
,,,,,V2_007,20,Female,2024-03-01_10h39.30.634,jersey_experiment_5_v2,2023.2.2,Win32,84.74576271,,,,,,,,,,,,,,,,907.162,909.009,909.0091,909.8325,return,0.1262,,37.5,,,,,,FBP-RB-71.png,0.35,1.2,31,0.25,,,,,,,,,,,,,,,,,,0,31,31,30,1,,,,,,,,,,,,,,,,,,,,,,,
,,,,,V2_007,20,Female,2024-03-01_10h39.30.634,jersey_experiment_5_v2,2023.2.2,Win32,84.74576271,,,,,,,,,,,,,,,,909.8327,911.9385,911.9385,912.9149,return,0.221,,72.52604167,,,,,,FBP-PT-91.png,0.43,1.2,14,0.5,,,,,,,,,,,,,,,,,,0,32,32,13,1,,,,,,,,,,,,,,,,,,,,,,,
,,,,,V2_007,20,Female,2024-03-01_10h39.30.634,jersey_experiment_5_v2,2023.2.2,Win32,84.74576271,,,,,,,,,,,,,,,,912.915,914.7621,914.7622,916.0327,return,0.1084,,71.35416667,,,,,,FBP-OG-81.png,0.4,1.2,23,0.25,,,,,,,,,,,,,,,,,,0,33,33,22,1,,,,,,,,,,,,,,,,,,,,,,,
,,,,,V2_007,20,Female,2024-03-01_10h39.30.634,jersey_experiment_5_v2,2023.2.2,Win32,84.74576271,,,,,,,,,,,,,,,,916.0328,917.8915,917.8916,918.9151,return,0.3622,,70.83333333,,,,,,FBP-RB-91.png,0.45,1.2,45,0.25,,,,,,,,,,,,,,,,,,0,34,34,44,1,,,,,,,,,,,,,,,,,,,,,,,
,,,,,V2_007,20,Female,2024-03-01_10h39.30.634,jersey_experiment_5_v2,2023.2.2,Win32,84.74576271,,,,,,,,,,,,,,,,918.9152,920.774,920.774,921.5389,return,0.2029,,70.57291667,,,,,,FBP-RB-91.png,0.4,1.2,43,0.25,,,,,,,,,,,,,,,,,,0,35,35,42,1,,,,,,,,,,,,,,,,,,,,,,,
,,,,,V2_007,20,Female,2024-03-01_10h39.30.634,jersey_experiment_5_v2,2023.2.2,Win32,84.74576271,,,,,,,,,,,,,,,,921.5391,923.3858,923.3858,925.186,return,0.0942,,70.57291667,,,,,,FBP-YG-19.png,0.4,1.2,58,0.25,,,,,,,,,,,,,,,,,,0,36,36,57,1,,,,,,,,,,,,,,,,,,,,,,,
,,,,,V2_007,20,Female,2024-03-01_10h39.30.634,jersey_experiment_5_v2,2023.2.2,Win32,84.74576271,,,,,,,,,,,,,,,,925.1862,927.0332,927.0332,927.8567,return,0.1646,,27.34375,,,,,,FBP-RB-81.png,0.35,1.2,36,0.25,,,,,,,,,,,,,,,,,,0,37,37,35,1,,,,,,,,,,,,,,,,,,,,,,,
,,,,,V2_007,20,Female,2024-03-01_10h39.30.634,jersey_experiment_5_v2,2023.2.2,Win32,84.74576271,,,,,,,,,,,,,,,,927.8568,929.9626,929.9627,931.1038,return,0.3065,,54.6875,,,,,,FBP-PT-81.png,0.43,1.2,9,0.5,,,,,,,,,,,,,,,,,,0,38,38,8,1,,,,,,,,,,,,,,,,,,,,,,,
,,,,,V2_007,20,Female,2024-03-01_10h39.30.634,jersey_experiment_5_v2,2023.2.2,Win32,84.74576271,,,,,,,,,,,,,,,,931.1041,932.9512,932.9512,933.2804,return,0.0617,,56.90104167,,,,,,FBP-OG-71.png,0.4,1.2,18,0.25,,,,,,,,,,,,,,,,,,0,39,39,17,1,,,,,,,,,,,,,,,,,,,,,,,
,,,,,V2_007,20,Female,2024-03-01_10h39.30.634,jersey_experiment_5_v2,2023.2.2,Win32,84.74576271,,,,,,,,,,,,,,,,933.2807,935.1393,935.1393,935.6335,return,0.1174,,56.90104167,,,,,,FBP-OG-81.png,0.35,1.2,21,0.25,,,,,,,,,,,,,,,,,,0,40,40,20,1,,,,,,,,,,,,,,,,,,,,,,,
,,,,,V2_007,20,Female,2024-03-01_10h39.30.634,jersey_experiment_5_v2,2023.2.2,Win32,84.74576271,,,,,,,,,,,,,,,,935.6337,937.7394,937.7394,938.7511,return,0.4107,,82.68229167,,,,,,FBP-PT-91.png,0.45,1.2,15,0.5,,,,,,,,,,,,,,,,,,0,41,41,14,1,,,,,,,,,,,,,,,,,,,,,,,
,,,,,V2_007,20,Female,2024-03-01_10h39.30.634,jersey_experiment_5_v2,2023.2.2,Win32,84.74576271,,,,,,,,,,,,,,,,938.7514,940.5984,940.5985,941.3395,return,0.2262,,40.234375,,,,,,FBP-YG-19.png,0.35,1.2,56,0.25,,,,,,,,,,,,,,,,,,0,42,42,55,1,,,,,,,,,,,,,,,,,,,,,,,
,,,,,V2_007,20,Female,2024-03-01_10h39.30.634,jersey_experiment_5_v2,2023.2.2,Win32,84.74576271,,,,,,,,,,,,,,,,941.3397,943.1868,943.1868,943.7396,return,0.1091,,77.99479167,,,,,,FBP-YG-18.png,0.43,1.2,54,0.25,,,,,,,,,,,,,,,,,,0,43,43,53,1,,,,,,,,,,,,,,,,,,,,,,,
,,,,,V2_007,20,Female,2024-03-01_10h39.30.634,jersey_experiment_5_v2,2023.2.2,Win32,84.74576271,,,,,,,,,,,,,,,,943.7398,945.5869,945.5869,946.0454,return,0.2855,,65.49479167,,,,,,FBP-YG-19.png,0.37,1.2,57,0.25,,,,,,,,,,,,,,,,,,0,44,44,56,1,,,,,,,,,,,,,,,,,,,,,,,
,,,,,V2_007,20,Female,2024-03-01_10h39.30.634,jersey_experiment_5_v2,2023.2.2,Win32,84.74576271,,,,,,,,,,,,,,,,946.0456,947.8927,947.8927,948.9281,return,0.1173,,51.953125,,,,,,FBP-YG-18.png,0.37,1.2,52,0.25,,,,,,,,,,,,,,,,,,0,45,45,51,1,,,,,,,,,,,,,,,,,,,,,,,
,,,,,V2_007,20,Female,2024-03-01_10h39.30.634,jersey_experiment_5_v2,2023.2.2,Win32,84.74576271,,,,,,,,,,,,,,,,948.9283,951.0223,951.0223,951.4692,return,0.26,,51.69270833,,,,,,FBP-PT-91.png,0.37,1.2,12,0.5,,,,,,,,,,,,,,,,,,0,46,46,11,1,,,,,,,,,,,,,,,,,,,,,,,
,,,,,V2_007,20,Female,2024-03-01_10h39.30.634,jersey_experiment_5_v2,2023.2.2,Win32,84.74576271,,,,,,,,,,,,,,,,951.4694,953.3165,953.3165,953.9987,return,0.1055,,79.296875,,,,,,FBP-RB-91.png,0.43,1.2,44,0.25,,,,,,,,,,,,,,,,,,0,47,47,43,1,,,,,,,,,,,,,,,,,,,,,,,
,,,,,V2_007,20,Female,2024-03-01_10h39.30.634,jersey_experiment_5_v2,2023.2.2,Win32,84.74576271,,,,,,,,,,,,,,,,953.9988,955.8578,955.8578,956.8578,return,0.1221,,80.46875,,,,,,FBP-RB-71.png,0.45,1.2,35,0.25,,,,,,,,,,,,,,,,,,0,48,48,34,1,,,,,,,,,,,,,,,,,,,,,,,
,,,,,V2_007,20,Female,2024-03-01_10h39.30.634,jersey_experiment_5_v2,2023.2.2,Win32,84.74576271,,,,,,,,,,,,,,,,956.858,958.7048,958.7049,959.2344,return,0.0477,,81.25,,,,,,FBP-YG-17.png,0.43,1.2,49,0.25,,,,,,,,,,,,,,,,,,0,49,49,48,1,,,,,,,,,,,,,,,,,,,,,,,
,,,,,V2_007,20,Female,2024-03-01_10h39.30.634,jersey_experiment_5_v2,2023.2.2,Win32,84.74576271,,,,,,,,,,,,,,,,959.2346,961.0932,961.0933,961.6932,return,0.1308,,79.55729167,,,,,,FBP-RB-81.png,0.43,1.2,39,0.25,,,,,,,,,,,,,,,,,,0,50,50,38,1,,,,,,,,,,,,,,,,,,,,,,,
,,,,,V2_007,20,Female,2024-03-01_10h39.30.634,jersey_experiment_5_v2,2023.2.2,Win32,84.74576271,,,,,,,,,,,,,,,,961.6933,963.7991,963.7992,964.8816,return,0.0849,,42.44791667,,,,,,FBP-PT-81.png,0.35,1.2,6,0.5,,,,,,,,,,,,,,,,,,0,51,51,5,1,,,,,,,,,,,,,,,,,,,,,,,
,,,,,V2_007,20,Female,2024-03-01_10h39.30.634,jersey_experiment_5_v2,2023.2.2,Win32,84.74576271,,,,,,,,,,,,,,,,964.8818,966.976,966.9761,967.6464,return,0.0825,,32.421875,,,,,,FBP-PT-91.png,0.35,1.2,11,0.5,,,,,,,,,,,,,,,,,,0,52,52,10,1,,,,,,,,,,,,,,,,,,,,,,,
,,,,,V2_007,20,Female,2024-03-01_10h39.30.634,jersey_experiment_5_v2,2023.2.2,Win32,84.74576271,,,,,,,,,,,,,,,,967.6466,969.5053,969.5053,970.5994,return,0.1152,,50.52083333,,,,,,FBP-OG-91.png,0.35,1.2,26,0.25,,,,,,,,,,,,,,,,,,0,53,53,25,1,,,,,,,,,,,,,,,,,,,,,,,
,,,,,V2_007,20,Female,2024-03-01_10h39.30.634,jersey_experiment_5_v2,2023.2.2,Win32,84.74576271,,,,,,,,,,,,,,,,970.5996,972.4467,972.4467,973.5054,return,0.3531,,62.5,,,,,,FBP-RB-81.png,0.4,1.2,38,0.25,,,,,,,,,,,,,,,,,,0,54,54,37,1,,,,,,,,,,,,,,,,,,,,,,,
,,,,,V2_007,20,Female,2024-03-01_10h39.30.634,jersey_experiment_5_v2,2023.2.2,Win32,84.74576271,,,,,,,,,,,,,,,,973.5056,975.3527,975.3527,976.6232,return,0.2359,,81.640625,,,,,,FBP-YG-19.png,0.45,1.2,60,0.25,,,,,,,,,,,,,,,,,,0,55,55,59,1,,,,,,,,,,,,,,,,,,,,,,,
,,,,,V2_007,20,Female,2024-03-01_10h39.30.634,jersey_experiment_5_v2,2023.2.2,Win32,84.74576271,,,,,,,,,,,,,,,,976.6234,978.4703,978.4704,979.0585,return,0.1039,,66.92708333,,,,,,FBP-OG-71.png,0.45,1.2,20,0.25,,,,,,,,,,,,,,,,,,0,56,56,19,1,,,,,,,,,,,,,,,,,,,,,,,
,,,,,V2_007,20,Female,2024-03-01_10h39.30.634,jersey_experiment_5_v2,2023.2.2,Win32,84.74576271,,,,,,,,,,,,,,,,979.0588,980.9057,980.9057,982.588,return,0.1554,,66.27604167,,,,,,FBP-OG-71.png,0.43,1.2,19,0.25,,,,,,,,,,,,,,,,,,0,57,57,18,1,,,,,,,,,,,,,,,,,,,,,,,
,,,,,V2_007,20,Female,2024-03-01_10h39.30.634,jersey_experiment_5_v2,2023.2.2,Win32,84.74576271,,,,,,,,,,,,,,,,982.5883,984.6942,984.6943,985.3059,return,0.0985,,79.42708333,,,,,,FBP-PT-81.png,0.45,1.2,10,0.5,,,,,,,,,,,,,,,,,,0,58,58,9,1,,,,,,,,,,,,,,,,,,,,,,,
,,,,,V2_007,20,Female,2024-03-01_10h39.30.634,jersey_experiment_5_v2,2023.2.2,Win32,84.74576271,,,,,,,,,,,,,,,,985.3061,987.1531,987.1531,988.5883,return,0.6017,,50.78125,,,,,,FBP-RB-81.png,0.37,1.2,37,0.25,,,,,,,,,,,,,,,,,,0,59,59,36,1,,,,,,,,,,,,,,,,,,,,,,,
,,,,,V2_007,20,Female,2024-03-01_10h39.30.634,jersey_experiment_5_v2,2023.2.2,Win32,84.74576271,,,,,,,,,,,,,,,,,,,,,,,,,,,,,,,,,,,,,,,,,,,,,,,,,,,,,,,,988.5888,994.0829,return,5.4823,,,,,,,,,,,,,,,,,,,
,,,,,V2_007,20,Female,2024-03-01_10h39.30.634,jersey_experiment_5_v2,2023.2.2,Win32,84.74576271,,,,,,,,,,,,,,,,,,,,,,,,,,,,,,,,,,,,,,,,,,,,,,,,,,,,,,,,,,,,,994.083,1001.4241,1,5.4565,return,1.8586,,,,,,,,,,,,
,,,,,V2_007,20,Female,2024-03-01_10h39.30.634,jersey_experiment_5_v2,2023.2.2,Win32,84.74576271,,,,,,,,,,,,,,,,,,,,,,,,,,,,,,,,,,,,,,,,,,,,,,,,,,,,,,,,,,,,,,,,,,,,1001.4242,1010.4249,no,right,2.8399,,,,,,
,,,,,V2_007,20,Female,2024-03-01_10h39.30.634,jersey_experiment_5_v2,2023.2.2,Win32,84.74576271,,,,,,,,,,,,,,,,,,,,,,,,,,,,,,,,,,,,,,,,,,,,,,,,,,,,,,,,,,,,,,,,,,,,,,,,,,1010.425,1015.1071,return,4.6679,