requirements.started,requirements.stopped,key_resp_3.keys,key_resp_3.rt,key_resp_3.duration,Subject ID,Age,Gender,date,expName,psychopyVersion,OS,frameRate,instructions1.started,instructions1.stopped,key_resp.keys,key_resp.rt,key_resp.duration,example.started,example.stopped,enter_2.keys,enter_2.rt,enter_2.duration,instructions2.started,instructions2.stopped,enter_3.keys,enter_3.rt,enter_3.duration,image.started,image.stopped,slider_2.started,slider_2.stopped,next.keys,next.rt,next.duration,slider.response,trial_block_1.thisRepN,trial_block_1.thisTrialN,trial_block_1.thisN,trial_block_1.thisIndex,trial_block_1.ran,Path,Width,Height,Index,Duration,trial_block_2.thisRepN,trial_block_2.thisTrialN,trial_block_2.thisN,trial_block_2.thisIndex,trial_block_2.ran,rest_break.started,rest_break.stopped,end_break.started,end_break.stopped,key_resp_5.keys,key_resp_5.rt,key_resp_5.duration,trial_block_3.thisRepN,trial_block_3.thisTrialN,trial_block_3.thisN,trial_block_3.thisIndex,trial_block_3.ran,trial_block_4.thisRepN,trial_block_4.thisTrialN,trial_block_4.thisN,trial_block_4.thisIndex,trial_block_4.ran,questions_intro.started,questions_intro.stopped,enter_12.keys,enter_12.rt,enter_12.duration,question2.started,question2.stopped,question_doingbest.response,question_doingbest.rt,enter_15.keys,enter_15.rt,enter_15.duration,pattern.started,pattern.stopped,pattern_2.text,enter_17.keys,enter_17.rt,enter_17.duration,thankyou.started,thankyou.stopped,enter_14.keys,enter_14.rt,enter_14.duration
0.0001,6.4582,return,6.4532,,V2_003,20,Female,2024-02-28_13h19.59.029,jersey_experiment_5_v2,2023.2.2,Win32,85.47008547,,,,,,,,,,,,,,,,,,,,,,,,,,,,,,,,,,,,,,,,,,,,,,,,,,,,,,,,,,,,,,,,,,,,,,,,,,,,,,
,,,,,V2_003,20,Female,2024-02-28_13h19.59.029,jersey_experiment_5_v2,2023.2.2,Win32,85.47008547,6.4583,24.7158,return,18.2475,,,,,,,,,,,,,,,,,,,,,,,,,,,,,,,,,,,,,,,,,,,,,,,,,,,,,,,,,,,,,,,,,,,,,,,,,,
,,,,,V2_003,20,Female,2024-02-28_13h19.59.029,jersey_experiment_5_v2,2023.2.2,Win32,85.47008547,,,,,,24.7159,27.4687,return,2.7173,,,,,,,,,,,,,,,,,,,,,,,,,,,,,,,,,,,,,,,,,,,,,,,,,,,,,,,,,,,,,,,,,,,,,
,,,,,V2_003,20,Female,2024-02-28_13h19.59.029,jersey_experiment_5_v2,2023.2.2,Win32,85.47008547,,,,,,,,,,,27.4688,48.5403,return,21.0584,,,,,,,,,,,,,,,,,,,,,,,,,,,,,,,,,,,,,,,,,,,,,,,,,,,,,,,,,,,,,,,,
,,,,,V2_003,20,Female,2024-02-28_13h19.59.029,jersey_experiment_5_v2,2023.2.2,Win32,85.47008547,,,,,,,,,,,,,,,,48.5473,50.6578,50.6579,61.2936,return,1.7775,,74.73958333,0,0,0,40,1,FBP-RB-19.png,0.35,1.2,41,0.5,,,,,,,,,,,,,,,,,,,,,,,,,,,,,,,,,,,,,,,,,,,,,
,,,,,V2_003,20,Female,2024-02-28_13h19.59.029,jersey_experiment_5_v2,2023.2.2,Win32,85.47008547,,,,,,,,,,,,,,,,61.2938,63.1405,63.1405,65.3877,return,1.1297,,49.73958333,0,1,1,7,1,FBP-PT-18.png,0.4,1.2,8,0.25,,,,,,,,,,,,,,,,,,,,,,,,,,,,,,,,,,,,,,,,,,,,,
,,,,,V2_003,20,Female,2024-02-28_13h19.59.029,jersey_experiment_5_v2,2023.2.2,Win32,85.47008547,,,,,,,,,,,,,,,,65.3879,67.4819,67.482,68.8701,return,0.5707,,50.13020833,0,2,2,25,1,FBP-OG-19.png,0.35,1.2,26,0.5,,,,,,,,,,,,,,,,,,,,,,,,,,,,,,,,,,,,,,,,,,,,,
,,,,,V2_003,20,Female,2024-02-28_13h19.59.029,jersey_experiment_5_v2,2023.2.2,Win32,85.47008547,,,,,,,,,,,,,,,,68.8703,70.7172,70.7173,72.4704,return,0.5951,,99.609375,0,3,3,8,1,FBP-PT-18.png,0.43,1.2,9,0.25,,,,,,,,,,,,,,,,,,,,,,,,,,,,,,,,,,,,,,,,,,,,,
,,,,,V2_003,20,Female,2024-02-28_13h19.59.029,jersey_experiment_5_v2,2023.2.2,Win32,85.47008547,,,,,,,,,,,,,,,,72.4707,74.5647,74.5648,75.8704,return,0.5649,,75.13020833,0,4,4,33,1,FBP-RB-17.png,0.43,1.2,34,0.5,,,,,,,,,,,,,,,,,,,,,,,,,,,,,,,,,,,,,,,,,,,,,
,,,,,V2_003,20,Female,2024-02-28_13h19.59.029,jersey_experiment_5_v2,2023.2.2,Win32,85.47008547,,,,,,,,,,,,,,,,75.8706,77.9648,77.9648,79.5999,return,0.636,,24.73958333,0,5,5,31,1,FBP-RB-17.png,0.37,1.2,32,0.5,,,,,,,,,,,,,,,,,,,,,,,,,,,,,,,,,,,,,,,,,,,,,
,,,,,V2_003,20,Female,2024-02-28_13h19.59.029,jersey_experiment_5_v2,2023.2.2,Win32,85.47008547,,,,,,,,,,,,,,,,79.6001,81.7058,81.7058,90.518,return,0.8202,,99.609375,0,6,6,44,1,FBP-RB-19.png,0.45,1.2,45,0.5,,,,,,,,,,,,,,,,,,,,,,,,,,,,,,,,,,,,,,,,,,,,,
,,,,,V2_003,20,Female,2024-02-28_13h19.59.029,jersey_experiment_5_v2,2023.2.2,Win32,85.47008547,,,,,,,,,,,,,,,,90.5183,92.6122,92.6123,94.1535,return,0.6501,,99.609375,0,7,7,19,1,FBP-OG-17.png,0.45,1.2,20,0.5,,,,,,,,,,,,,,,,,,,,,,,,,,,,,,,,,,,,,,,,,,,,,
,,,,,V2_003,20,Female,2024-02-28_13h19.59.029,jersey_experiment_5_v2,2023.2.2,Win32,85.47008547,,,,,,,,,,,,,,,,94.1537,96.2476,96.2476,98.4124,return,0.6841,,50.26041667,0,8,8,53,1,FBP-YG-81.png,0.43,1.2,54,0.5,,,,,,,,,,,,,,,,,,,,,,,,,,,,,,,,,,,,,,,,,,,,,
,,,,,V2_003,20,Female,2024-02-28_13h19.59.029,jersey_experiment_5_v2,2023.2.2,Win32,85.47008547,,,,,,,,,,,,,,,,98.4125,100.2597,100.2598,103.0243,return,0.6589,,24.609375,0,9,9,11,1,FBP-PT-19.png,0.37,1.2,12,0.25,,,,,,,,,,,,,,,,,,,,,,,,,,,,,,,,,,,,,,,,,,,,,
,,,,,V2_003,20,Female,2024-02-28_13h19.59.029,jersey_experiment_5_v2,2023.2.2,Win32,85.47008547,,,,,,,,,,,,,,,,103.0245,104.8716,104.8716,106.448,return,0.6251,,74.34895833,0,10,10,2,1,FBP-PT-17.png,0.4,1.2,3,0.25,,,,,,,,,,,,,,,,,,,,,,,,,,,,,,,,,,,,,,,,,,,,,
,,,,,V2_003,20,Female,2024-02-28_13h19.59.029,jersey_experiment_5_v2,2023.2.2,Win32,85.47008547,,,,,,,,,,,,,,,,106.4482,108.5423,108.5424,110.2481,return,0.5945,,99.609375,0,11,11,49,1,FBP-YG-71.png,0.45,1.2,50,0.5,,,,,,,,,,,,,,,,,,,,,,,,,,,,,,,,,,,,,,,,,,,,,
,,,,,V2_003,20,Female,2024-02-28_13h19.59.029,jersey_experiment_5_v2,2023.2.2,Win32,85.47008547,,,,,,,,,,,,,,,,110.2483,112.3424,112.3424,114.0483,return,0.6362,,0.260416667,0,12,12,50,1,FBP-YG-81.png,0.35,1.2,51,0.5,,,,,,,,,,,,,,,,,,,,,,,,,,,,,,,,,,,,,,,,,,,,,
,,,,,V2_003,20,Female,2024-02-28_13h19.59.029,jersey_experiment_5_v2,2023.2.2,Win32,85.47008547,,,,,,,,,,,,,,,,114.0485,116.1542,116.1542,118.0131,return,0.5043,,49.609375,0,13,13,46,1,FBP-YG-71.png,0.37,1.2,47,0.5,,,,,,,,,,,,,,,,,,,,,,,,,,,,,,,,,,,,,,,,,,,,,
,,,,,V2_003,20,Female,2024-02-28_13h19.59.029,jersey_experiment_5_v2,2023.2.2,Win32,85.47008547,,,,,,,,,,,,,,,,118.0132,119.8603,119.8603,121.2603,return,0.5774,,49.73958333,0,14,14,5,1,FBP-PT-18.png,0.35,1.2,6,0.25,,,,,,,,,,,,,,,,,,,,,,,,,,,,,,,,,,,,,,,,,,,,,
,,,,,V2_003,20,Female,2024-02-28_13h19.59.029,jersey_experiment_5_v2,2023.2.2,Win32,85.47008547,,,,,,,,,,,,,,,,121.2605,123.3547,123.3547,127.9665,return,0.612,,50,0,15,15,52,1,FBP-YG-81.png,0.4,1.2,53,0.5,,,,,,,,,,,,,,,,,,,,,,,,,,,,,,,,,,,,,,,,,,,,,
,,,,,V2_003,20,Female,2024-02-28_13h19.59.029,jersey_experiment_5_v2,2023.2.2,Win32,85.47008547,,,,,,,,,,,,,,,,127.9666,129.8136,129.8136,131.943,return,0.5815,,99.73958333,0,16,16,3,1,FBP-PT-17.png,0.43,1.2,4,0.25,,,,,,,,,,,,,,,,,,,,,,,,,,,,,,,,,,,,,,,,,,,,,
,,,,,V2_003,20,Female,2024-02-28_13h19.59.029,jersey_experiment_5_v2,2023.2.2,Win32,85.47008547,,,,,,,,,,,,,,,,131.9432,134.0493,134.0493,135.7432,return,0.5633,,74.34895833,0,17,17,32,1,FBP-RB-17.png,0.4,1.2,33,0.5,,,,,,,,,,,,,,,,,,,,,,,,,,,,,,,,,,,,,,,,,,,,,
,,,,,V2_003,20,Female,2024-02-28_13h19.59.029,jersey_experiment_5_v2,2023.2.2,Win32,85.47008547,,,,,,,,,,,,,,,,135.7433,137.5902,137.5903,139.1316,return,0.5892,,99.73958333,0,18,18,14,1,FBP-PT-19.png,0.45,1.2,15,0.25,,,,,,,,,,,,,,,,,,,,,,,,,,,,,,,,,,,,,,,,,,,,,
,,,,,V2_003,20,Female,2024-02-28_13h19.59.029,jersey_experiment_5_v2,2023.2.2,Win32,85.47008547,,,,,,,,,,,,,,,,139.1319,141.2258,141.2258,142.9435,return,0.6486,,99.47916667,0,19,19,29,1,FBP-OG-19.png,0.45,1.2,30,0.5,,,,,,,,,,,,,,,,,,,,,,,,,,,,,,,,,,,,,,,,,,,,,
,,,,,V2_003,20,Female,2024-02-28_13h19.59.029,jersey_experiment_5_v2,2023.2.2,Win32,85.47008547,,,,,,,,,,,,,,,,142.9436,145.0378,145.0378,146.5083,return,0.6003,,23.828125,0,20,20,20,1,FBP-OG-18.png,0.35,1.2,21,0.5,,,,,,,,,,,,,,,,,,,,,,,,,,,,,,,,,,,,,,,,,,,,,
,,,,,V2_003,20,Female,2024-02-28_13h19.59.029,jersey_experiment_5_v2,2023.2.2,Win32,85.47008547,,,,,,,,,,,,,,,,146.5084,148.6143,148.6143,157.5439,return,0.6888,,53.25520833,0,21,21,34,1,FBP-RB-17.png,0.45,1.2,35,0.5,,,,,,,,,,,,,,,,,,,,,,,,,,,,,,,,,,,,,,,,,,,,,
,,,,,V2_003,20,Female,2024-02-28_13h19.59.029,jersey_experiment_5_v2,2023.2.2,Win32,85.47008547,,,,,,,,,,,,,,,,157.5442,159.6383,159.6383,160.9913,return,0.5079,,92.70833333,0,22,22,24,1,FBP-OG-18.png,0.45,1.2,25,0.5,,,,,,,,,,,,,,,,,,,,,,,,,,,,,,,,,,,,,,,,,,,,,
,,,,,V2_003,20,Female,2024-02-28_13h19.59.029,jersey_experiment_5_v2,2023.2.2,Win32,85.47008547,,,,,,,,,,,,,,,,160.9915,162.8384,162.8385,165.0972,return,0.5228,,76.171875,0,23,23,13,1,FBP-PT-19.png,0.43,1.2,14,0.25,,,,,,,,,,,,,,,,,,,,,,,,,,,,,,,,,,,,,,,,,,,,,
,,,,,V2_003,20,Female,2024-02-28_13h19.59.029,jersey_experiment_5_v2,2023.2.2,Win32,85.47008547,,,,,,,,,,,,,,,,165.0973,167.1915,167.1916,169.6739,return,0.5338,,36.06770833,0,24,24,56,1,FBP-YG-91.png,0.37,1.2,57,0.5,,,,,,,,,,,,,,,,,,,,,,,,,,,,,,,,,,,,,,,,,,,,,
,,,,,V2_003,20,Female,2024-02-28_13h19.59.029,jersey_experiment_5_v2,2023.2.2,Win32,85.47008547,,,,,,,,,,,,,,,,169.6741,171.521,171.521,173.8622,return,1.6201,,31.38020833,0,25,25,6,1,FBP-PT-18.png,0.37,1.2,7,0.25,,,,,,,,,,,,,,,,,,,,,,,,,,,,,,,,,,,,,,,,,,,,,
,,,,,V2_003,20,Female,2024-02-28_13h19.59.029,jersey_experiment_5_v2,2023.2.2,Win32,85.47008547,,,,,,,,,,,,,,,,173.8625,175.9564,175.9565,177.5447,return,0.5801,,24.609375,0,26,26,55,1,FBP-YG-91.png,0.35,1.2,56,0.5,,,,,,,,,,,,,,,,,,,,,,,,,,,,,,,,,,,,,,,,,,,,,
,,,,,V2_003,20,Female,2024-02-28_13h19.59.029,jersey_experiment_5_v2,2023.2.2,Win32,85.47008547,,,,,,,,,,,,,,,,177.5449,179.6507,179.6508,182.1685,return,1.322,,28.25520833,0,27,27,51,1,FBP-YG-81.png,0.37,1.2,52,0.5,,,,,,,,,,,,,,,,,,,,,,,,,,,,,,,,,,,,,,,,,,,,,
,,,,,V2_003,20,Female,2024-02-28_13h19.59.029,jersey_experiment_5_v2,2023.2.2,Win32,85.47008547,,,,,,,,,,,,,,,,182.1687,184.2626,184.2626,185.6862,return,0.5117,,82.03125,0,28,28,18,1,FBP-OG-17.png,0.43,1.2,19,0.5,,,,,,,,,,,,,,,,,,,,,,,,,,,,,,,,,,,,,,,,,,,,,
,,,,,V2_003,20,Female,2024-02-28_13h19.59.029,jersey_experiment_5_v2,2023.2.2,Win32,85.47008547,,,,,,,,,,,,,,,,185.6864,187.7806,187.7806,189.7687,return,0.5219,,89.0625,0,29,29,38,1,FBP-RB-18.png,0.43,1.2,39,0.5,,,,,,,,,,,,,,,,,,,,,,,,,,,,,,,,,,,,,,,,,,,,,
,,,,,V2_003,20,Female,2024-02-28_13h19.59.029,jersey_experiment_5_v2,2023.2.2,Win32,85.47008547,,,,,,,,,,,,,,,,189.7689,191.8746,191.8747,194.7454,return,2.1226,,72.65625,0,30,30,37,1,FBP-RB-18.png,0.4,1.2,38,0.5,,,,,,,,,,,,,,,,,,,,,,,,,,,,,,,,,,,,,,,,,,,,,
,,,,,V2_003,20,Female,2024-02-28_13h19.59.029,jersey_experiment_5_v2,2023.2.2,Win32,85.47008547,,,,,,,,,,,,,,,,194.7456,196.8396,196.8397,198.3809,return,0.5778,,47.78645833,0,31,31,36,1,FBP-RB-18.png,0.37,1.2,37,0.5,,,,,,,,,,,,,,,,,,,,,,,,,,,,,,,,,,,,,,,,,,,,,
,,,,,V2_003,20,Female,2024-02-28_13h19.59.029,jersey_experiment_5_v2,2023.2.2,Win32,85.47008547,,,,,,,,,,,,,,,,198.381,200.4867,200.4868,202.6986,return,0.8979,,76.04166667,0,32,32,23,1,FBP-OG-18.png,0.43,1.2,24,0.5,,,,,,,,,,,,,,,,,,,,,,,,,,,,,,,,,,,,,,,,,,,,,
,,,,,V2_003,20,Female,2024-02-28_13h19.59.029,jersey_experiment_5_v2,2023.2.2,Win32,85.47008547,,,,,,,,,,,,,,,,202.6988,204.7927,204.7928,207.4046,return,0.5526,,62.63020833,0,33,33,17,1,FBP-OG-17.png,0.4,1.2,18,0.5,,,,,,,,,,,,,,,,,,,,,,,,,,,,,,,,,,,,,,,,,,,,,
,,,,,V2_003,20,Female,2024-02-28_13h19.59.029,jersey_experiment_5_v2,2023.2.2,Win32,85.47008547,,,,,,,,,,,,,,,,207.4048,209.2635,209.2635,212.6049,return,0.5766,,68.61979167,0,34,34,12,1,FBP-PT-19.png,0.4,1.2,13,0.25,,,,,,,,,,,,,,,,,,,,,,,,,,,,,,,,,,,,,,,,,,,,,
,,,,,V2_003,20,Female,2024-02-28_13h19.59.029,jersey_experiment_5_v2,2023.2.2,Win32,85.47008547,,,,,,,,,,,,,,,,212.605,214.699,214.699,223.8641,return,7.6759,,77.734375,0,35,35,59,1,FBP-YG-91.png,0.45,1.2,60,0.5,,,,,,,,,,,,,,,,,,,,,,,,,,,,,,,,,,,,,,,,,,,,,
,,,,,V2_003,20,Female,2024-02-28_13h19.59.029,jersey_experiment_5_v2,2023.2.2,Win32,85.47008547,,,,,,,,,,,,,,,,223.8644,225.9584,225.9585,227.4053,return,0.5289,,93.75,0,36,36,54,1,FBP-YG-81.png,0.45,1.2,55,0.5,,,,,,,,,,,,,,,,,,,,,,,,,,,,,,,,,,,,,,,,,,,,,
,,,,,V2_003,20,Female,2024-02-28_13h19.59.029,jersey_experiment_5_v2,2023.2.2,Win32,85.47008547,,,,,,,,,,,,,,,,227.4054,229.2528,229.2529,231.0409,return,0.6724,,16.53645833,0,37,37,1,1,FBP-PT-17.png,0.37,1.2,2,0.25,,,,,,,,,,,,,,,,,,,,,,,,,,,,,,,,,,,,,,,,,,,,,
,,,,,V2_003,20,Female,2024-02-28_13h19.59.029,jersey_experiment_5_v2,2023.2.2,Win32,85.47008547,,,,,,,,,,,,,,,,231.0412,232.8881,232.8881,235.594,return,1.4726,,76.69270833,0,38,38,4,1,FBP-PT-17.png,0.45,1.2,5,0.25,,,,,,,,,,,,,,,,,,,,,,,,,,,,,,,,,,,,,,,,,,,,,
,,,,,V2_003,20,Female,2024-02-28_13h19.59.029,jersey_experiment_5_v2,2023.2.2,Win32,85.47008547,,,,,,,,,,,,,,,,235.5942,237.6882,237.6882,239.1941,return,0.5691,,88.41145833,0,39,39,48,1,FBP-YG-71.png,0.43,1.2,49,0.5,,,,,,,,,,,,,,,,,,,,,,,,,,,,,,,,,,,,,,,,,,,,,
,,,,,V2_003,20,Female,2024-02-28_13h19.59.029,jersey_experiment_5_v2,2023.2.2,Win32,85.47008547,,,,,,,,,,,,,,,,239.1943,241.2883,241.2883,243.6766,return,0.5414,,23.17708333,0,40,40,41,1,FBP-RB-19.png,0.37,1.2,42,0.5,,,,,,,,,,,,,,,,,,,,,,,,,,,,,,,,,,,,,,,,,,,,,
,,,,,V2_003,20,Female,2024-02-28_13h19.59.029,jersey_experiment_5_v2,2023.2.2,Win32,85.47008547,,,,,,,,,,,,,,,,243.6768,245.5238,245.5238,246.8885,return,0.5,,90.234375,0,41,41,9,1,FBP-PT-18.png,0.45,1.2,10,0.25,,,,,,,,,,,,,,,,,,,,,,,,,,,,,,,,,,,,,,,,,,,,,
,,,,,V2_003,20,Female,2024-02-28_13h19.59.029,jersey_experiment_5_v2,2023.2.2,Win32,85.47008547,,,,,,,,,,,,,,,,246.8886,248.9828,248.9828,251.1357,return,0.7298,,51.04166667,0,42,42,42,1,FBP-RB-19.png,0.4,1.2,43,0.5,,,,,,,,,,,,,,,,,,,,,,,,,,,,,,,,,,,,,,,,,,,,,
,,,,,V2_003,20,Female,2024-02-28_13h19.59.029,jersey_experiment_5_v2,2023.2.2,Win32,85.47008547,,,,,,,,,,,,,,,,251.1359,253.23,253.23,255.0182,return,0.4864,,56.51041667,0,43,43,27,1,FBP-OG-19.png,0.4,1.2,28,0.5,,,,,,,,,,,,,,,,,,,,,,,,,,,,,,,,,,,,,,,,,,,,,
,,,,,V2_003,20,Female,2024-02-28_13h19.59.029,jersey_experiment_5_v2,2023.2.2,Win32,85.47008547,,,,,,,,,,,,,,,,255.0184,257.1126,257.1126,258.8772,return,0.5557,,88.671875,0,44,44,39,1,FBP-RB-18.png,0.45,1.2,40,0.5,,,,,,,,,,,,,,,,,,,,,,,,,,,,,,,,,,,,,,,,,,,,,
,,,,,V2_003,20,Female,2024-02-28_13h19.59.029,jersey_experiment_5_v2,2023.2.2,Win32,85.47008547,,,,,,,,,,,,,,,,258.8774,260.9714,260.9715,263.3714,return,0.5792,,42.31770833,0,45,45,35,1,FBP-RB-18.png,0.35,1.2,36,0.5,,,,,,,,,,,,,,,,,,,,,,,,,,,,,,,,,,,,,,,,,,,,,
,,,,,V2_003,20,Female,2024-02-28_13h19.59.029,jersey_experiment_5_v2,2023.2.2,Win32,85.47008547,,,,,,,,,,,,,,,,263.3717,265.4774,265.4775,267.1834,return,0.5791,,79.42708333,0,46,46,43,1,FBP-RB-19.png,0.43,1.2,44,0.5,,,,,,,,,,,,,,,,,,,,,,,,,,,,,,,,,,,,,,,,,,,,,
,,,,,V2_003,20,Female,2024-02-28_13h19.59.029,jersey_experiment_5_v2,2023.2.2,Win32,85.47008547,,,,,,,,,,,,,,,,267.1836,269.0305,269.0306,270.9718,return,0.8142,,18.09895833,0,47,47,10,1,FBP-PT-19.png,0.35,1.2,11,0.25,,,,,,,,,,,,,,,,,,,,,,,,,,,,,,,,,,,,,,,,,,,,,
,,,,,V2_003,20,Female,2024-02-28_13h19.59.029,jersey_experiment_5_v2,2023.2.2,Win32,85.47008547,,,,,,,,,,,,,,,,270.972,273.0661,273.0662,274.5836,return,0.5714,,81.77083333,0,48,48,28,1,FBP-OG-19.png,0.43,1.2,29,0.5,,,,,,,,,,,,,,,,,,,,,,,,,,,,,,,,,,,,,,,,,,,,,
,,,,,V2_003,20,Female,2024-02-28_13h19.59.029,jersey_experiment_5_v2,2023.2.2,Win32,85.47008547,,,,,,,,,,,,,,,,274.5839,276.6896,276.6896,284.2662,return,0.604,,51.69270833,0,49,49,21,1,FBP-OG-18.png,0.37,1.2,22,0.5,,,,,,,,,,,,,,,,,,,,,,,,,,,,,,,,,,,,,,,,,,,,,
,,,,,V2_003,20,Female,2024-02-28_13h19.59.029,jersey_experiment_5_v2,2023.2.2,Win32,85.47008547,,,,,,,,,,,,,,,,284.2666,286.3607,286.3607,287.9606,return,0.4974,,60.80729167,0,50,50,22,1,FBP-OG-18.png,0.4,1.2,23,0.5,,,,,,,,,,,,,,,,,,,,,,,,,,,,,,,,,,,,,,,,,,,,,
,,,,,V2_003,20,Female,2024-02-28_13h19.59.029,jersey_experiment_5_v2,2023.2.2,Win32,85.47008547,,,,,,,,,,,,,,,,287.9609,290.0549,290.0549,293.5608,return,0.5924,,23.17708333,0,51,51,45,1,FBP-YG-71.png,0.35,1.2,46,0.5,,,,,,,,,,,,,,,,,,,,,,,,,,,,,,,,,,,,,,,,,,,,,
,,,,,V2_003,20,Female,2024-02-28_13h19.59.029,jersey_experiment_5_v2,2023.2.2,Win32,85.47008547,,,,,,,,,,,,,,,,293.5611,295.6552,295.6552,298.2197,return,1.4022,,71.35416667,0,52,52,57,1,FBP-YG-91.png,0.4,1.2,58,0.5,,,,,,,,,,,,,,,,,,,,,,,,,,,,,,,,,,,,,,,,,,,,,
,,,,,V2_003,20,Female,2024-02-28_13h19.59.029,jersey_experiment_5_v2,2023.2.2,Win32,85.47008547,,,,,,,,,,,,,,,,298.22,300.3257,300.3257,302.8552,return,0.5707,,51.5625,0,53,53,26,1,FBP-OG-19.png,0.37,1.2,27,0.5,,,,,,,,,,,,,,,,,,,,,,,,,,,,,,,,,,,,,,,,,,,,,
,,,,,V2_003,20,Female,2024-02-28_13h19.59.029,jersey_experiment_5_v2,2023.2.2,Win32,85.47008547,,,,,,,,,,,,,,,,302.8555,304.9494,304.9494,306.3143,return,0.6275,,51.69270833,0,54,54,16,1,FBP-OG-17.png,0.37,1.2,17,0.5,,,,,,,,,,,,,,,,,,,,,,,,,,,,,,,,,,,,,,,,,,,,,
,,,,,V2_003,20,Female,2024-02-28_13h19.59.029,jersey_experiment_5_v2,2023.2.2,Win32,85.47008547,,,,,,,,,,,,,,,,306.3145,308.4085,308.4085,310.832,return,0.6017,,27.47395833,0,55,55,30,1,FBP-RB-17.png,0.35,1.2,31,0.5,,,,,,,,,,,,,,,,,,,,,,,,,,,,,,,,,,,,,,,,,,,,,
,,,,,V2_003,20,Female,2024-02-28_13h19.59.029,jersey_experiment_5_v2,2023.2.2,Win32,85.47008547,,,,,,,,,,,,,,,,310.8322,312.9262,312.9263,315.1968,return,0.6936,,79.296875,0,56,56,47,1,FBP-YG-71.png,0.4,1.2,48,0.5,,,,,,,,,,,,,,,,,,,,,,,,,,,,,,,,,,,,,,,,,,,,,
,,,,,V2_003,20,Female,2024-02-28_13h19.59.029,jersey_experiment_5_v2,2023.2.2,Win32,85.47008547,,,,,,,,,,,,,,,,315.197,317.2911,317.2911,319.1264,return,1.0196,,55.46875,0,57,57,15,1,FBP-OG-17.png,0.35,1.2,16,0.5,,,,,,,,,,,,,,,,,,,,,,,,,,,,,,,,,,,,,,,,,,,,,
,,,,,V2_003,20,Female,2024-02-28_13h19.59.029,jersey_experiment_5_v2,2023.2.2,Win32,85.47008547,,,,,,,,,,,,,,,,319.1267,320.9737,320.9737,322.5383,return,0.5685,,58.33333333,0,58,58,0,1,FBP-PT-17.png,0.35,1.2,1,0.25,,,,,,,,,,,,,,,,,,,,,,,,,,,,,,,,,,,,,,,,,,,,,
,,,,,V2_003,20,Female,2024-02-28_13h19.59.029,jersey_experiment_5_v2,2023.2.2,Win32,85.47008547,,,,,,,,,,,,,,,,322.5386,324.6325,324.6325,328.2798,return,2.5478,,86.45833333,0,59,59,58,1,FBP-YG-91.png,0.43,1.2,59,0.5,,,,,,,,,,,,,,,,,,,,,,,,,,,,,,,,,,,,,,,,,,,,,
,,,,,V2_003,20,Female,2024-02-28_13h19.59.029,jersey_experiment_5_v2,2023.2.2,Win32,85.47008547,,,,,,,,,,,,,,,,328.2832,330.3857,330.3857,332.9387,return,0.5554,,52.08333333,,,,,,FBP-OG-81.png,0.35,1.2,21,0.5,0,0,0,20,1,,,,,,,,,,,,,,,,,,,,,,,,,,,,,,,,,,,,,,,,
,,,,,V2_003,20,Female,2024-02-28_13h19.59.029,jersey_experiment_5_v2,2023.2.2,Win32,85.47008547,,,,,,,,,,,,,,,,332.9391,334.786,334.786,336.1977,return,0.5003,,62.890625,,,,,,FBP-PT-81.png,0.37,1.2,7,0.25,0,1,1,6,1,,,,,,,,,,,,,,,,,,,,,,,,,,,,,,,,,,,,,,,,
,,,,,V2_003,20,Female,2024-02-28_13h19.59.029,jersey_experiment_5_v2,2023.2.2,Win32,85.47008547,,,,,,,,,,,,,,,,336.1979,338.2921,338.2921,339.6918,return,0.5669,,77.08333333,,,,,,FBP-RB-81.png,0.43,1.2,39,0.5,0,2,2,38,1,,,,,,,,,,,,,,,,,,,,,,,,,,,,,,,,,,,,,,,,
,,,,,V2_003,20,Female,2024-02-28_13h19.59.029,jersey_experiment_5_v2,2023.2.2,Win32,85.47008547,,,,,,,,,,,,,,,,339.692,341.786,341.786,343.5037,return,0.5646,,55.078125,,,,,,FBP-OG-71.png,0.37,1.2,17,0.5,0,3,3,16,1,,,,,,,,,,,,,,,,,,,,,,,,,,,,,,,,,,,,,,,,
,,,,,V2_003,20,Female,2024-02-28_13h19.59.029,jersey_experiment_5_v2,2023.2.2,Win32,85.47008547,,,,,,,,,,,,,,,,343.504,345.5982,345.5982,346.8215,return,0.5971,,79.55729167,,,,,,FBP-OG-71.png,0.43,1.2,19,0.5,0,4,4,18,1,,,,,,,,,,,,,,,,,,,,,,,,,,,,,,,,,,,,,,,,
,,,,,V2_003,20,Female,2024-02-28_13h19.59.029,jersey_experiment_5_v2,2023.2.2,Win32,85.47008547,,,,,,,,,,,,,,,,346.8217,348.916,348.916,350.9512,return,0.5235,,71.484375,,,,,,FBP-YG-19.png,0.4,1.2,58,0.5,0,5,5,57,1,,,,,,,,,,,,,,,,,,,,,,,,,,,,,,,,,,,,,,,,
,,,,,V2_003,20,Female,2024-02-28_13h19.59.029,jersey_experiment_5_v2,2023.2.2,Win32,85.47008547,,,,,,,,,,,,,,,,350.9515,352.7983,352.7984,354.2219,return,0.5321,,64.0625,,,,,,FBP-PT-81.png,0.35,1.2,6,0.25,0,6,6,5,1,,,,,,,,,,,,,,,,,,,,,,,,,,,,,,,,,,,,,,,,
,,,,,V2_003,20,Female,2024-02-28_13h19.59.029,jersey_experiment_5_v2,2023.2.2,Win32,85.47008547,,,,,,,,,,,,,,,,354.2222,356.0808,356.0809,358.575,return,0.5409,,74.86979167,,,,,,FBP-PT-81.png,0.4,1.2,8,0.25,0,7,7,7,1,,,,,,,,,,,,,,,,,,,,,,,,,,,,,,,,,,,,,,,,
,,,,,V2_003,20,Female,2024-02-28_13h19.59.029,jersey_experiment_5_v2,2023.2.2,Win32,85.47008547,,,,,,,,,,,,,,,,358.5751,360.6809,360.681,362.2693,return,0.5543,,47.13541667,,,,,,FBP-OG-71.png,0.35,1.2,16,0.5,0,8,8,15,1,,,,,,,,,,,,,,,,,,,,,,,,,,,,,,,,,,,,,,,,
,,,,,V2_003,20,Female,2024-02-28_13h19.59.029,jersey_experiment_5_v2,2023.2.2,Win32,85.47008547,,,,,,,,,,,,,,,,362.2696,364.3636,364.3636,365.6929,return,0.5055,,39.453125,,,,,,FBP-YG-17.png,0.35,1.2,46,0.5,0,9,9,45,1,,,,,,,,,,,,,,,,,,,,,,,,,,,,,,,,,,,,,,,,
,,,,,V2_003,20,Female,2024-02-28_13h19.59.029,jersey_experiment_5_v2,2023.2.2,Win32,85.47008547,,,,,,,,,,,,,,,,365.6932,367.7871,367.7871,369.6108,return,0.8262,,84.50520833,,,,,,FBP-RB-91.png,0.43,1.2,44,0.5,0,10,10,43,1,,,,,,,,,,,,,,,,,,,,,,,,,,,,,,,,,,,,,,,,
,,,,,V2_003,20,Female,2024-02-28_13h19.59.029,jersey_experiment_5_v2,2023.2.2,Win32,85.47008547,,,,,,,,,,,,,,,,369.6109,371.4578,371.4578,372.6461,return,0.5375,,82.55208333,,,,,,FBP-PT-81.png,0.43,1.2,9,0.25,0,11,11,8,1,,,,,,,,,,,,,,,,,,,,,,,,,,,,,,,,,,,,,,,,
,,,,,V2_003,20,Female,2024-02-28_13h19.59.029,jersey_experiment_5_v2,2023.2.2,Win32,85.47008547,,,,,,,,,,,,,,,,372.6463,374.505,374.5051,379.2582,return,3.5925,,51.30208333,,,,,,FBP-PT-91.png,0.35,1.2,11,0.25,0,12,12,10,1,,,,,,,,,,,,,,,,,,,,,,,,,,,,,,,,,,,,,,,,
,,,,,V2_003,20,Female,2024-02-28_13h19.59.029,jersey_experiment_5_v2,2023.2.2,Win32,85.47008547,,,,,,,,,,,,,,,,379.2584,381.3523,381.3524,382.5289,return,0.6337,,53.64583333,,,,,,FBP-RB-91.png,0.37,1.2,42,0.5,0,13,13,41,1,,,,,,,,,,,,,,,,,,,,,,,,,,,,,,,,,,,,,,,,
,,,,,V2_003,20,Female,2024-02-28_13h19.59.029,jersey_experiment_5_v2,2023.2.2,Win32,85.47008547,,,,,,,,,,,,,,,,382.529,384.3759,384.3759,386.2231,return,0.518,,71.22395833,,,,,,FBP-PT-71.png,0.4,1.2,3,0.25,0,14,14,2,1,,,,,,,,,,,,,,,,,,,,,,,,,,,,,,,,,,,,,,,,
,,,,,V2_003,20,Female,2024-02-28_13h19.59.029,jersey_experiment_5_v2,2023.2.2,Win32,85.47008547,,,,,,,,,,,,,,,,386.2232,388.3291,388.3291,389.8233,return,0.5553,,80.33854167,,,,,,FBP-YG-17.png,0.45,1.2,50,0.5,0,15,15,49,1,,,,,,,,,,,,,,,,,,,,,,,,,,,,,,,,,,,,,,,,
,,,,,V2_003,20,Female,2024-02-28_13h19.59.029,jersey_experiment_5_v2,2023.2.2,Win32,85.47008547,,,,,,,,,,,,,,,,389.8233,391.9174,391.9174,393.4469,return,0.5475,,72.52604167,,,,,,FBP-YG-17.png,0.4,1.2,48,0.5,0,16,16,47,1,,,,,,,,,,,,,,,,,,,,,,,,,,,,,,,,,,,,,,,,
,,,,,V2_003,20,Female,2024-02-28_13h19.59.029,jersey_experiment_5_v2,2023.2.2,Win32,85.47008547,,,,,,,,,,,,,,,,393.447,395.294,395.2941,398.0941,return,1.8224,,88.93229167,,,,,,FBP-PT-81.png,0.45,1.2,10,0.25,0,17,17,9,1,,,,,,,,,,,,,,,,,,,,,,,,,,,,,,,,,,,,,,,,
,,,,,V2_003,20,Female,2024-02-28_13h19.59.029,jersey_experiment_5_v2,2023.2.2,Win32,85.47008547,,,,,,,,,,,,,,,,398.0942,400.1884,400.1884,401.9647,return,0.8003,,71.875,,,,,,FBP-RB-71.png,0.4,1.2,33,0.5,0,18,18,32,1,,,,,,,,,,,,,,,,,,,,,,,,,,,,,,,,,,,,,,,,
,,,,,V2_003,20,Female,2024-02-28_13h19.59.029,jersey_experiment_5_v2,2023.2.2,Win32,85.47008547,,,,,,,,,,,,,,,,401.965,404.0591,404.0591,405.3178,return,0.513,,78.25520833,,,,,,FBP-OG-71.png,0.45,1.2,20,0.5,0,19,19,19,1,,,,,,,,,,,,,,,,,,,,,,,,,,,,,,,,,,,,,,,,
,,,,,V2_003,20,Female,2024-02-28_13h19.59.029,jersey_experiment_5_v2,2023.2.2,Win32,85.47008547,,,,,,,,,,,,,,,,405.3179,407.4122,407.4122,408.9063,return,0.5206,,46.35416667,,,,,,FBP-YG-17.png,0.37,1.2,47,0.5,0,20,20,46,1,,,,,,,,,,,,,,,,,,,,,,,,,,,,,,,,,,,,,,,,
,,,,,V2_003,20,Female,2024-02-28_13h19.59.029,jersey_experiment_5_v2,2023.2.2,Win32,85.47008547,,,,,,,,,,,,,,,,408.9066,411.0122,411.0122,416.2007,return,0.6867,,61.45833333,,,,,,FBP-OG-71.png,0.4,1.2,18,0.5,0,21,21,17,1,,,,,,,,,,,,,,,,,,,,,,,,,,,,,,,,,,,,,,,,
,,,,,V2_003,20,Female,2024-02-28_13h19.59.029,jersey_experiment_5_v2,2023.2.2,Win32,85.47008547,,,,,,,,,,,,,,,,416.201,418.295,418.2951,419.6007,return,0.5883,,38.54166667,,,,,,FBP-RB-91.png,0.35,1.2,41,0.5,0,22,22,40,1,,,,,,,,,,,,,,,,,,,,,,,,,,,,,,,,,,,,,,,,
,,,,,V2_003,20,Female,2024-02-28_13h19.59.029,jersey_experiment_5_v2,2023.2.2,Win32,85.47008547,,,,,,,,,,,,,,,,419.601,421.6949,421.6949,424.0716,return,0.7127,,57.421875,,,,,,FBP-YG-18.png,0.4,1.2,53,0.5,0,23,23,52,1,,,,,,,,,,,,,,,,,,,,,,,,,,,,,,,,,,,,,,,,
,,,,,V2_003,20,Female,2024-02-28_13h19.59.029,jersey_experiment_5_v2,2023.2.2,Win32,85.47008547,,,,,,,,,,,,,,,,424.0717,426.1657,426.1658,427.7422,return,0.5886,,68.75,,,,,,FBP-OG-81.png,0.37,1.2,22,0.5,0,24,24,21,1,,,,,,,,,,,,,,,,,,,,,,,,,,,,,,,,,,,,,,,,
,,,,,V2_003,20,Female,2024-02-28_13h19.59.029,jersey_experiment_5_v2,2023.2.2,Win32,85.47008547,,,,,,,,,,,,,,,,427.7423,429.5894,429.5895,431.0835,return,0.6615,,45.3125,,,,,,FBP-PT-71.png,0.37,1.2,2,0.25,0,25,25,1,1,,,,,,,,,,,,,,,,,,,,,,,,,,,,,,,,,,,,,,,,
,,,,,V2_003,20,Female,2024-02-28_13h19.59.029,jersey_experiment_5_v2,2023.2.2,Win32,85.47008547,,,,,,,,,,,,,,,,431.0837,433.1778,433.1779,434.2719,return,0.3532,,82.55208333,,,,,,FBP-OG-91.png,0.43,1.2,29,0.5,0,26,26,28,1,,,,,,,,,,,,,,,,,,,,,,,,,,,,,,,,,,,,,,,,
,,,,,V2_003,20,Female,2024-02-28_13h19.59.029,jersey_experiment_5_v2,2023.2.2,Win32,85.47008547,,,,,,,,,,,,,,,,434.2721,436.1191,436.1191,437.4722,return,0.2588,,56.90104167,,,,,,FBP-PT-91.png,0.37,1.2,12,0.25,0,27,27,11,1,,,,,,,,,,,,,,,,,,,,,,,,,,,,,,,,,,,,,,,,
,,,,,V2_003,20,Female,2024-02-28_13h19.59.029,jersey_experiment_5_v2,2023.2.2,Win32,85.47008547,,,,,,,,,,,,,,,,437.4724,439.3192,439.3193,440.3191,return,0.2827,,77.21354167,,,,,,FBP-PT-91.png,0.43,1.2,14,0.25,0,28,28,13,1,,,,,,,,,,,,,,,,,,,,,,,,,,,,,,,,,,,,,,,,
,,,,,V2_003,20,Female,2024-02-28_13h19.59.029,jersey_experiment_5_v2,2023.2.2,Win32,85.47008547,,,,,,,,,,,,,,,,440.3193,442.4134,442.4135,443.8488,return,0.2625,,81.51041667,,,,,,FBP-OG-81.png,0.43,1.2,24,0.5,0,29,29,23,1,,,,,,,,,,,,,,,,,,,,,,,,,,,,,,,,,,,,,,,,
,,,,,V2_003,20,Female,2024-02-28_13h19.59.029,jersey_experiment_5_v2,2023.2.2,Win32,85.47008547,,,,,,,,,,,,,,,,443.8489,445.9431,445.9432,448.19,return,1.092,,95.05208333,,,,,,FBP-OG-81.png,0.45,1.2,25,0.5,0,30,30,24,1,,,,,,,,,,,,,,,,,,,,,,,,,,,,,,,,,,,,,,,,
,,,,,V2_003,20,Female,2024-02-28_13h19.59.029,jersey_experiment_5_v2,2023.2.2,Win32,85.47008547,,,,,,,,,,,,,,,,448.1903,450.2843,450.2844,451.6724,return,0.3917,,90.10416667,,,,,,FBP-OG-91.png,0.45,1.2,30,0.5,0,31,31,29,1,,,,,,,,,,,,,,,,,,,,,,,,,,,,,,,,,,,,,,,,
,,,,,V2_003,20,Female,2024-02-28_13h19.59.029,jersey_experiment_5_v2,2023.2.2,Win32,85.47008547,,,,,,,,,,,,,,,,451.6726,453.5198,453.5199,454.414,return,0.1545,,30.59895833,,,,,,FBP-PT-71.png,0.35,1.2,1,0.25,0,32,32,0,1,,,,,,,,,,,,,,,,,,,,,,,,,,,,,,,,,,,,,,,,
,,,,,V2_003,20,Female,2024-02-28_13h19.59.029,jersey_experiment_5_v2,2023.2.2,Win32,85.47008547,,,,,,,,,,,,,,,,454.4142,456.5082,456.5082,457.5315,return,0.3085,,22.00520833,,,,,,FBP-YG-19.png,0.35,1.2,56,0.5,0,33,33,55,1,,,,,,,,,,,,,,,,,,,,,,,,,,,,,,,,,,,,,,,,
,,,,,V2_003,20,Female,2024-02-28_13h19.59.029,jersey_experiment_5_v2,2023.2.2,Win32,85.47008547,,,,,,,,,,,,,,,,457.5317,459.6258,459.6258,462.414,return,0.1184,,18.09895833,,,,,,FBP-RB-81.png,0.37,1.2,37,0.5,0,34,34,36,1,,,,,,,,,,,,,,,,,,,,,,,,,,,,,,,,,,,,,,,,
,,,,,V2_003,20,Female,2024-02-28_13h19.59.029,jersey_experiment_5_v2,2023.2.2,Win32,85.47008547,,,,,,,,,,,,,,,,462.4142,464.5084,464.5084,465.9671,return,0.518,,82.03125,,,,,,FBP-RB-71.png,0.45,1.2,35,0.5,0,35,35,34,1,,,,,,,,,,,,,,,,,,,,,,,,,,,,,,,,,,,,,,,,
,,,,,V2_003,20,Female,2024-02-28_13h19.59.029,jersey_experiment_5_v2,2023.2.2,Win32,85.47008547,,,,,,,,,,,,,,,,465.9674,468.0614,468.0614,470.1203,return,0.9709,,43.61979167,,,,,,FBP-YG-19.png,0.37,1.2,57,0.5,0,36,36,56,1,,,,,,,,,,,,,,,,,,,,,,,,,,,,,,,,,,,,,,,,
,,,,,V2_003,20,Female,2024-02-28_13h19.59.029,jersey_experiment_5_v2,2023.2.2,Win32,85.47008547,,,,,,,,,,,,,,,,470.1206,472.2146,472.2147,473.5792,return,0.2246,,49.34895833,,,,,,FBP-RB-71.png,0.37,1.2,32,0.5,0,37,37,31,1,,,,,,,,,,,,,,,,,,,,,,,,,,,,,,,,,,,,,,,,
,,,,,V2_003,20,Female,2024-02-28_13h19.59.029,jersey_experiment_5_v2,2023.2.2,Win32,85.47008547,,,,,,,,,,,,,,,,473.5793,475.6851,475.6852,476.7793,return,0.2381,,76.43229167,,,,,,FBP-YG-18.png,0.43,1.2,54,0.5,0,38,38,53,1,,,,,,,,,,,,,,,,,,,,,,,,,,,,,,,,,,,,,,,,
,,,,,V2_003,20,Female,2024-02-28_13h19.59.029,jersey_experiment_5_v2,2023.2.2,Win32,85.47008547,,,,,,,,,,,,,,,,476.7795,478.6266,478.6266,480.7443,return,0.8749,,91.92708333,,,,,,FBP-PT-71.png,0.45,1.2,5,0.25,0,39,39,4,1,,,,,,,,,,,,,,,,,,,,,,,,,,,,,,,,,,,,,,,,
,,,,,V2_003,20,Female,2024-02-28_13h19.59.029,jersey_experiment_5_v2,2023.2.2,Win32,85.47008547,,,,,,,,,,,,,,,,480.7445,482.8387,482.8387,487.3209,return,0.3672,,50.13020833,,,,,,FBP-OG-91.png,0.4,1.2,28,0.5,0,40,40,27,1,,,,,,,,,,,,,,,,,,,,,,,,,,,,,,,,,,,,,,,,
,,,,,V2_003,20,Female,2024-02-28_13h19.59.029,jersey_experiment_5_v2,2023.2.2,Win32,85.47008547,,,,,,,,,,,,,,,,487.3211,489.4271,489.4271,490.7917,return,0.1596,,46.61458333,,,,,,FBP-RB-71.png,0.35,1.2,31,0.5,0,41,41,30,1,,,,,,,,,,,,,,,,,,,,,,,,,,,,,,,,,,,,,,,,
,,,,,V2_003,20,Female,2024-02-28_13h19.59.029,jersey_experiment_5_v2,2023.2.2,Win32,85.47008547,,,,,,,,,,,,,,,,490.792,492.8977,492.8977,493.8506,return,0.1201,,45.18229167,,,,,,FBP-YG-18.png,0.37,1.2,52,0.5,0,42,42,51,1,,,,,,,,,,,,,,,,,,,,,,,,,,,,,,,,,,,,,,,,
,,,,,V2_003,20,Female,2024-02-28_13h19.59.029,jersey_experiment_5_v2,2023.2.2,Win32,85.47008547,,,,,,,,,,,,,,,,493.8509,495.6978,495.6978,498.486,return,0.8672,,56.77083333,,,,,,FBP-PT-91.png,0.4,1.2,13,0.25,0,43,43,12,1,,,,,,,,,,,,,,,,,,,,,,,,,,,,,,,,,,,,,,,,
,,,,,V2_003,20,Female,2024-02-28_13h19.59.029,jersey_experiment_5_v2,2023.2.2,Win32,85.47008547,,,,,,,,,,,,,,,,498.4862,500.5803,500.5803,501.545,return,0.1583,,44.79166667,,,,,,FBP-OG-91.png,0.35,1.2,26,0.5,0,44,44,25,1,,,,,,,,,,,,,,,,,,,,,,,,,,,,,,,,,,,,,,,,
,,,,,V2_003,20,Female,2024-02-28_13h19.59.029,jersey_experiment_5_v2,2023.2.2,Win32,85.47008547,,,,,,,,,,,,,,,,501.5453,503.6391,503.6392,504.7333,return,0.2128,,79.03645833,,,,,,FBP-RB-81.png,0.45,1.2,40,0.5,0,45,45,39,1,,,,,,,,,,,,,,,,,,,,,,,,,,,,,,,,,,,,,,,,
,,,,,V2_003,20,Female,2024-02-28_13h19.59.029,jersey_experiment_5_v2,2023.2.2,Win32,85.47008547,,,,,,,,,,,,,,,,504.7335,506.8395,506.8395,507.5451,return,0.2052,,90.88541667,,,,,,FBP-RB-91.png,0.45,1.2,45,0.5,0,46,46,44,1,,,,,,,,,,,,,,,,,,,,,,,,,,,,,,,,,,,,,,,,
,,,,,V2_003,20,Female,2024-02-28_13h19.59.029,jersey_experiment_5_v2,2023.2.2,Win32,85.47008547,,,,,,,,,,,,,,,,507.5454,509.6512,509.6512,512.7455,return,0.2519,,64.84375,,,,,,FBP-RB-81.png,0.4,1.2,38,0.5,0,47,47,37,1,,,,,,,,,,,,,,,,,,,,,,,,,,,,,,,,,,,,,,,,
,,,,,V2_003,20,Female,2024-02-28_13h19.59.029,jersey_experiment_5_v2,2023.2.2,Win32,85.47008547,,,,,,,,,,,,,,,,512.7456,514.8397,514.8398,516.2394,return,0.3064,,83.33333333,,,,,,FBP-YG-19.png,0.43,1.2,59,0.5,0,48,48,58,1,,,,,,,,,,,,,,,,,,,,,,,,,,,,,,,,,,,,,,,,
,,,,,V2_003,20,Female,2024-02-28_13h19.59.029,jersey_experiment_5_v2,2023.2.2,Win32,85.47008547,,,,,,,,,,,,,,,,516.2397,518.3338,518.3338,519.8047,return,0.1419,,74.86979167,,,,,,FBP-RB-91.png,0.4,1.2,43,0.5,0,49,49,42,1,,,,,,,,,,,,,,,,,,,,,,,,,,,,,,,,,,,,,,,,
,,,,,V2_003,20,Female,2024-02-28_13h19.59.029,jersey_experiment_5_v2,2023.2.2,Win32,85.47008547,,,,,,,,,,,,,,,,519.805,521.8988,521.8989,523.1927,return,0.2381,,83.984375,,,,,,FBP-YG-19.png,0.45,1.2,60,0.5,0,50,50,59,1,,,,,,,,,,,,,,,,,,,,,,,,,,,,,,,,,,,,,,,,
,,,,,V2_003,20,Female,2024-02-28_13h19.59.029,jersey_experiment_5_v2,2023.2.2,Win32,85.47008547,,,,,,,,,,,,,,,,523.1931,525.287,525.287,526.6989,return,0.4249,,91.14583333,,,,,,FBP-YG-18.png,0.45,1.2,55,0.5,0,51,51,54,1,,,,,,,,,,,,,,,,,,,,,,,,,,,,,,,,,,,,,,,,
,,,,,V2_003,20,Female,2024-02-28_13h19.59.029,jersey_experiment_5_v2,2023.2.2,Win32,85.47008547,,,,,,,,,,,,,,,,526.6991,528.7933,528.7933,529.8873,return,0.1649,,36.97916667,,,,,,FBP-YG-18.png,0.35,1.2,51,0.5,0,52,52,50,1,,,,,,,,,,,,,,,,,,,,,,,,,,,,,,,,,,,,,,,,
,,,,,V2_003,20,Female,2024-02-28_13h19.59.029,jersey_experiment_5_v2,2023.2.2,Win32,85.47008547,,,,,,,,,,,,,,,,529.8876,531.7345,531.7346,533.7581,return,0.2591,,76.82291667,,,,,,FBP-PT-71.png,0.43,1.2,4,0.25,0,53,53,3,1,,,,,,,,,,,,,,,,,,,,,,,,,,,,,,,,,,,,,,,,
,,,,,V2_003,20,Female,2024-02-28_13h19.59.029,jersey_experiment_5_v2,2023.2.2,Win32,85.47008547,,,,,,,,,,,,,,,,533.7583,535.8638,535.8639,536.8757,return,0.2375,,92.70833333,,,,,,FBP-RB-71.png,0.43,1.2,34,0.5,0,54,54,33,1,,,,,,,,,,,,,,,,,,,,,,,,,,,,,,,,,,,,,,,,
,,,,,V2_003,20,Female,2024-02-28_13h19.59.029,jersey_experiment_5_v2,2023.2.2,Win32,85.47008547,,,,,,,,,,,,,,,,536.8759,538.9699,538.97,540.4052,return,0.2439,,52.99479167,,,,,,FBP-OG-81.png,0.4,1.2,23,0.5,0,55,55,22,1,,,,,,,,,,,,,,,,,,,,,,,,,,,,,,,,,,,,,,,,
,,,,,V2_003,20,Female,2024-02-28_13h19.59.029,jersey_experiment_5_v2,2023.2.2,Win32,85.47008547,,,,,,,,,,,,,,,,540.4054,542.4995,542.4996,543.7584,return,0.1781,,44.66145833,,,,,,FBP-OG-91.png,0.37,1.2,27,0.5,0,56,56,26,1,,,,,,,,,,,,,,,,,,,,,,,,,,,,,,,,,,,,,,,,
,,,,,V2_003,20,Female,2024-02-28_13h19.59.029,jersey_experiment_5_v2,2023.2.2,Win32,85.47008547,,,,,,,,,,,,,,,,543.7587,545.8642,545.8642,546.9703,return,0.1687,,36.97916667,,,,,,FBP-RB-81.png,0.35,1.2,36,0.5,0,57,57,35,1,,,,,,,,,,,,,,,,,,,,,,,,,,,,,,,,,,,,,,,,
,,,,,V2_003,20,Female,2024-02-28_13h19.59.029,jersey_experiment_5_v2,2023.2.2,Win32,85.47008547,,,,,,,,,,,,,,,,546.9706,548.8174,548.8174,549.9114,return,0.1804,,81.38020833,,,,,,FBP-PT-91.png,0.45,1.2,15,0.25,0,58,58,14,1,,,,,,,,,,,,,,,,,,,,,,,,,,,,,,,,,,,,,,,,
,,,,,V2_003,20,Female,2024-02-28_13h19.59.029,jersey_experiment_5_v2,2023.2.2,Win32,85.47008547,,,,,,,,,,,,,,,,549.9116,552.0058,552.0058,553.4058,return,0.2825,,78.515625,,,,,,FBP-YG-17.png,0.43,1.2,49,0.5,0,59,59,48,1,,,,,,,,,,,,,,,,,,,,,,,,,,,,,,,,,,,,,,,,
,,,,,V2_003,20,Female,2024-02-28_13h19.59.029,jersey_experiment_5_v2,2023.2.2,Win32,85.47008547,,,,,,,,,,,,,,,,,,,,,,,,,,,,,,,,,,,,,,,553.4061,673.3988,,,,,,,,,,,,,,,,,,,,,,,,,,,,,,,,,,,,,,
,,,,,V2_003,20,Female,2024-02-28_13h19.59.029,jersey_experiment_5_v2,2023.2.2,Win32,85.47008547,,,,,,,,,,,,,,,,,,,,,,,,,,,,,,,,,,,,,,,,,673.3988,675.728,return,2.3156,,,,,,,,,,,,,,,,,,,,,,,,,,,,,,,,,,
,,,,,V2_003,20,Female,2024-02-28_13h19.59.029,jersey_experiment_5_v2,2023.2.2,Win32,85.47008547,,,,,,,,,,,,,,,,675.7348,677.5986,677.5987,687.1284,return,2.1931,,49.609375,,,,,,FBP-YG-91.png,0.4,1.2,58,0.25,,,,,,,,,,,,,0,0,0,57,1,,,,,,,,,,,,,,,,,,,,,,,,,,,,
,,,,,V2_003,20,Female,2024-02-28_13h19.59.029,jersey_experiment_5_v2,2023.2.2,Win32,85.47008547,,,,,,,,,,,,,,,,687.1287,688.9754,688.9754,690.9754,return,0.3403,,22.65625,,,,,,FBP-RB-18.png,0.35,1.2,36,0.25,,,,,,,,,,,,,0,1,1,35,1,,,,,,,,,,,,,,,,,,,,,,,,,,,,
,,,,,V2_003,20,Female,2024-02-28_13h19.59.029,jersey_experiment_5_v2,2023.2.2,Win32,85.47008547,,,,,,,,,,,,,,,,690.9757,692.8228,692.8228,694.3168,return,0.717,,78.125,,,,,,FBP-OG-19.png,0.45,1.2,30,0.25,,,,,,,,,,,,,0,2,2,29,1,,,,,,,,,,,,,,,,,,,,,,,,,,,,
,,,,,V2_003,20,Female,2024-02-28_13h19.59.029,jersey_experiment_5_v2,2023.2.2,Win32,85.47008547,,,,,,,,,,,,,,,,694.317,696.164,696.164,697.6699,return,0.2425,,31.90104167,,,,,,FBP-OG-18.png,0.35,1.2,21,0.25,,,,,,,,,,,,,0,3,3,20,1,,,,,,,,,,,,,,,,,,,,,,,,,,,,
,,,,,V2_003,20,Female,2024-02-28_13h19.59.029,jersey_experiment_5_v2,2023.2.2,Win32,85.47008547,,,,,,,,,,,,,,,,697.6701,699.7642,699.7642,702.6465,return,1.9937,,72.265625,,,,,,FBP-PT-19.png,0.43,1.2,14,0.5,,,,,,,,,,,,,0,4,4,13,1,,,,,,,,,,,,,,,,,,,,,,,,,,,,
,,,,,V2_003,20,Female,2024-02-28_13h19.59.029,jersey_experiment_5_v2,2023.2.2,Win32,85.47008547,,,,,,,,,,,,,,,,702.6467,704.4937,704.4938,705.7054,return,0.1456,,45.44270833,,,,,,FBP-OG-18.png,0.37,1.2,22,0.25,,,,,,,,,,,,,0,5,5,21,1,,,,,,,,,,,,,,,,,,,,,,,,,,,,
,,,,,V2_003,20,Female,2024-02-28_13h19.59.029,jersey_experiment_5_v2,2023.2.2,Win32,85.47008547,,,,,,,,,,,,,,,,705.7057,707.7996,707.7997,708.988,return,0.2257,,55.859375,,,,,,FBP-PT-19.png,0.37,1.2,12,0.5,,,,,,,,,,,,,0,6,6,11,1,,,,,,,,,,,,,,,,,,,,,,,,,,,,
,,,,,V2_003,20,Female,2024-02-28_13h19.59.029,jersey_experiment_5_v2,2023.2.2,Win32,85.47008547,,,,,,,,,,,,,,,,708.9882,711.0939,711.0939,711.9528,return,0.1869,,57.421875,,,,,,FBP-PT-18.png,0.37,1.2,7,0.5,,,,,,,,,,,,,0,7,7,6,1,,,,,,,,,,,,,,,,,,,,,,,,,,,,
,,,,,V2_003,20,Female,2024-02-28_13h19.59.029,jersey_experiment_5_v2,2023.2.2,Win32,85.47008547,,,,,,,,,,,,,,,,711.953,714.0472,714.0472,715.753,return,0.1934,,52.99479167,,,,,,FBP-PT-17.png,0.37,1.2,2,0.5,,,,,,,,,,,,,0,8,8,1,1,,,,,,,,,,,,,,,,,,,,,,,,,,,,
,,,,,V2_003,20,Female,2024-02-28_13h19.59.029,jersey_experiment_5_v2,2023.2.2,Win32,85.47008547,,,,,,,,,,,,,,,,715.7531,717.8471,717.8472,718.906,return,0.2487,,67.05729167,,,,,,FBP-PT-17.png,0.4,1.2,3,0.5,,,,,,,,,,,,,0,9,9,2,1,,,,,,,,,,,,,,,,,,,,,,,,,,,,
,,,,,V2_003,20,Female,2024-02-28_13h19.59.029,jersey_experiment_5_v2,2023.2.2,Win32,85.47008547,,,,,,,,,,,,,,,,718.9062,720.7532,720.7533,721.8827,return,0.2745,,82.03125,,,,,,FBP-YG-91.png,0.45,1.2,60,0.25,,,,,,,,,,,,,0,10,10,59,1,,,,,,,,,,,,,,,,,,,,,,,,,,,,
,,,,,V2_003,20,Female,2024-02-28_13h19.59.029,jersey_experiment_5_v2,2023.2.2,Win32,85.47008547,,,,,,,,,,,,,,,,721.8828,723.7416,723.7417,725.6238,return,0.1935,,55.859375,,,,,,FBP-YG-81.png,0.4,1.2,53,0.25,,,,,,,,,,,,,0,11,11,52,1,,,,,,,,,,,,,,,,,,,,,,,,,,,,
,,,,,V2_003,20,Female,2024-02-28_13h19.59.029,jersey_experiment_5_v2,2023.2.2,Win32,85.47008547,,,,,,,,,,,,,,,,725.6241,727.4711,727.4711,728.318,return,0.2588,,81.640625,,,,,,FBP-RB-18.png,0.45,1.2,40,0.25,,,,,,,,,,,,,0,12,12,39,1,,,,,,,,,,,,,,,,,,,,,,,,,,,,
,,,,,V2_003,20,Female,2024-02-28_13h19.59.029,jersey_experiment_5_v2,2023.2.2,Win32,85.47008547,,,,,,,,,,,,,,,,728.3183,730.1653,730.1653,732.4713,return,1.6895,,93.61979167,,,,,,FBP-YG-71.png,0.45,1.2,50,0.25,,,,,,,,,,,,,0,13,13,49,1,,,,,,,,,,,,,,,,,,,,,,,,,,,,
,,,,,V2_003,20,Female,2024-02-28_13h19.59.029,jersey_experiment_5_v2,2023.2.2,Win32,85.47008547,,,,,,,,,,,,,,,,732.4715,734.3183,734.3184,735.7892,return,0.226,,30.72916667,,,,,,FBP-YG-81.png,0.35,1.2,51,0.25,,,,,,,,,,,,,0,14,14,50,1,,,,,,,,,,,,,,,,,,,,,,,,,,,,
,,,,,V2_003,20,Female,2024-02-28_13h19.59.029,jersey_experiment_5_v2,2023.2.2,Win32,85.47008547,,,,,,,,,,,,,,,,735.7895,737.6361,737.6361,738.5422,return,0.1546,,27.86458333,,,,,,FBP-OG-19.png,0.35,1.2,26,0.25,,,,,,,,,,,,,0,15,15,25,1,,,,,,,,,,,,,,,,,,,,,,,,,,,,
,,,,,V2_003,20,Female,2024-02-28_13h19.59.029,jersey_experiment_5_v2,2023.2.2,Win32,85.47008547,,,,,,,,,,,,,,,,738.5424,740.4009,740.401,741.1422,return,0.1728,,23.56770833,,,,,,FBP-RB-19.png,0.35,1.2,41,0.25,,,,,,,,,,,,,0,16,16,40,1,,,,,,,,,,,,,,,,,,,,,,,,,,,,
,,,,,V2_003,20,Female,2024-02-28_13h19.59.029,jersey_experiment_5_v2,2023.2.2,Win32,85.47008547,,,,,,,,,,,,,,,,741.1424,743.2364,743.2364,744.6833,return,0.2826,,66.27604167,,,,,,FBP-PT-19.png,0.4,1.2,13,0.5,,,,,,,,,,,,,0,17,17,12,1,,,,,,,,,,,,,,,,,,,,,,,,,,,,
,,,,,V2_003,20,Female,2024-02-28_13h19.59.029,jersey_experiment_5_v2,2023.2.2,Win32,85.47008547,,,,,,,,,,,,,,,,744.6836,746.5306,746.5306,747.66,return,0.2138,,66.40625,,,,,,FBP-OG-19.png,0.37,1.2,27,0.25,,,,,,,,,,,,,0,18,18,26,1,,,,,,,,,,,,,,,,,,,,,,,,,,,,
,,,,,V2_003,20,Female,2024-02-28_13h19.59.029,jersey_experiment_5_v2,2023.2.2,Win32,85.47008547,,,,,,,,,,,,,,,,747.6601,749.5073,749.5073,750.5192,return,0.2878,,87.63020833,,,,,,FBP-YG-81.png,0.45,1.2,55,0.25,,,,,,,,,,,,,0,19,19,54,1,,,,,,,,,,,,,,,,,,,,,,,,,,,,
,,,,,V2_003,20,Female,2024-02-28_13h19.59.029,jersey_experiment_5_v2,2023.2.2,Win32,85.47008547,,,,,,,,,,,,,,,,750.5194,752.3778,752.3778,755.7898,return,0.2958,,44.01041667,,,,,,FBP-YG-81.png,0.37,1.2,52,0.25,,,,,,,,,,,,,0,20,20,51,1,,,,,,,,,,,,,,,,,,,,,,,,,,,,
,,,,,V2_003,20,Female,2024-02-28_13h19.59.029,jersey_experiment_5_v2,2023.2.2,Win32,85.47008547,,,,,,,,,,,,,,,,755.7901,757.6369,757.6369,762.1664,return,3.6537,,92.70833333,,,,,,FBP-RB-17.png,0.45,1.2,35,0.25,,,,,,,,,,,,,0,21,21,34,1,,,,,,,,,,,,,,,,,,,,,,,,,,,,
,,,,,V2_003,20,Female,2024-02-28_13h19.59.029,jersey_experiment_5_v2,2023.2.2,Win32,85.47008547,,,,,,,,,,,,,,,,762.1667,764.2724,764.2725,765.5785,return,0.3688,,93.61979167,,,,,,FBP-PT-19.png,0.45,1.2,15,0.5,,,,,,,,,,,,,0,22,22,14,1,,,,,,,,,,,,,,,,,,,,,,,,,,,,
,,,,,V2_003,20,Female,2024-02-28_13h19.59.029,jersey_experiment_5_v2,2023.2.2,Win32,85.47008547,,,,,,,,,,,,,,,,765.5788,767.4255,767.4255,768.9668,return,0.49,,32.8125,,,,,,FBP-OG-17.png,0.37,1.2,17,0.25,,,,,,,,,,,,,0,23,23,16,1,,,,,,,,,,,,,,,,,,,,,,,,,,,,
,,,,,V2_003,20,Female,2024-02-28_13h19.59.029,jersey_experiment_5_v2,2023.2.2,Win32,85.47008547,,,,,,,,,,,,,,,,768.9671,770.8137,770.8137,772.4372,return,0.3616,,85.9375,,,,,,FBP-YG-71.png,0.43,1.2,49,0.25,,,,,,,,,,,,,0,24,24,48,1,,,,,,,,,,,,,,,,,,,,,,,,,,,,
,,,,,V2_003,20,Female,2024-02-28_13h19.59.029,jersey_experiment_5_v2,2023.2.2,Win32,85.47008547,,,,,,,,,,,,,,,,772.4375,774.2847,774.2847,775.4845,return,0.225,,32.55208333,,,,,,FBP-RB-19.png,0.37,1.2,42,0.25,,,,,,,,,,,,,0,25,25,41,1,,,,,,,,,,,,,,,,,,,,,,,,,,,,
,,,,,V2_003,20,Female,2024-02-28_13h19.59.029,jersey_experiment_5_v2,2023.2.2,Win32,85.47008547,,,,,,,,,,,,,,,,775.4848,777.3317,777.3317,778.6728,return,0.4472,,86.58854167,,,,,,FBP-OG-17.png,0.45,1.2,20,0.25,,,,,,,,,,,,,0,26,26,19,1,,,,,,,,,,,,,,,,,,,,,,,,,,,,
,,,,,V2_003,20,Female,2024-02-28_13h19.59.029,jersey_experiment_5_v2,2023.2.2,Win32,85.47008547,,,,,,,,,,,,,,,,778.673,780.5202,780.5202,782.0611,return,0.2694,,29.55729167,,,,,,FBP-OG-17.png,0.35,1.2,16,0.25,,,,,,,,,,,,,0,27,27,15,1,,,,,,,,,,,,,,,,,,,,,,,,,,,,
,,,,,V2_003,20,Female,2024-02-28_13h19.59.029,jersey_experiment_5_v2,2023.2.2,Win32,85.47008547,,,,,,,,,,,,,,,,782.0613,783.9087,783.9087,786.6614,return,1.7957,,89.97395833,,,,,,FBP-RB-17.png,0.43,1.2,34,0.25,,,,,,,,,,,,,0,28,28,33,1,,,,,,,,,,,,,,,,,,,,,,,,,,,,
,,,,,V2_003,20,Female,2024-02-28_13h19.59.029,jersey_experiment_5_v2,2023.2.2,Win32,85.47008547,,,,,,,,,,,,,,,,786.6615,788.5085,788.5087,790.144,return,0.3665,,89.453125,,,,,,FBP-YG-81.png,0.43,1.2,54,0.25,,,,,,,,,,,,,0,29,29,53,1,,,,,,,,,,,,,,,,,,,,,,,,,,,,
,,,,,V2_003,20,Female,2024-02-28_13h19.59.029,jersey_experiment_5_v2,2023.2.2,Win32,85.47008547,,,,,,,,,,,,,,,,790.1442,791.9911,791.9911,794.3911,return,0.572,,73.4375,,,,,,FBP-RB-17.png,0.4,1.2,33,0.25,,,,,,,,,,,,,0,30,30,32,1,,,,,,,,,,,,,,,,,,,,,,,,,,,,
,,,,,V2_003,20,Female,2024-02-28_13h19.59.029,jersey_experiment_5_v2,2023.2.2,Win32,85.47008547,,,,,,,,,,,,,,,,794.3913,796.25,796.25,798.1444,return,0.6965,,71.875,,,,,,FBP-RB-18.png,0.4,1.2,38,0.25,,,,,,,,,,,,,0,31,31,37,1,,,,,,,,,,,,,,,,,,,,,,,,,,,,
,,,,,V2_003,20,Female,2024-02-28_13h19.59.029,jersey_experiment_5_v2,2023.2.2,Win32,85.47008547,,,,,,,,,,,,,,,,798.1446,800.0032,800.0032,802.6503,return,0.3202,,87.890625,,,,,,FBP-YG-91.png,0.43,1.2,59,0.25,,,,,,,,,,,,,0,32,32,58,1,,,,,,,,,,,,,,,,,,,,,,,,,,,,
,,,,,V2_003,20,Female,2024-02-28_13h19.59.029,jersey_experiment_5_v2,2023.2.2,Win32,85.47008547,,,,,,,,,,,,,,,,802.6506,804.7445,804.7445,806.121,return,0.2759,,88.02083333,,,,,,FBP-PT-18.png,0.4,1.2,8,0.5,,,,,,,,,,,,,0,33,33,7,1,,,,,,,,,,,,,,,,,,,,,,,,,,,,
,,,,,V2_003,20,Female,2024-02-28_13h19.59.029,jersey_experiment_5_v2,2023.2.2,Win32,85.47008547,,,,,,,,,,,,,,,,806.1213,807.98,807.98,809.2151,return,0.2122,,29.296875,,,,,,FBP-YG-71.png,0.35,1.2,46,0.25,,,,,,,,,,,,,0,34,34,45,1,,,,,,,,,,,,,,,,,,,,,,,,,,,,
,,,,,V2_003,20,Female,2024-02-28_13h19.59.029,jersey_experiment_5_v2,2023.2.2,Win32,85.47008547,,,,,,,,,,,,,,,,809.2154,811.0625,811.0626,812.2391,return,0.2358,,40.36458333,,,,,,FBP-RB-17.png,0.35,1.2,31,0.25,,,,,,,,,,,,,0,35,35,30,1,,,,,,,,,,,,,,,,,,,,,,,,,,,,
,,,,,V2_003,20,Female,2024-02-28_13h19.59.029,jersey_experiment_5_v2,2023.2.2,Win32,85.47008547,,,,,,,,,,,,,,,,812.2393,814.3332,814.3332,815.9448,return,0.2407,,36.19791667,,,,,,FBP-PT-17.png,0.35,1.2,1,0.5,,,,,,,,,,,,,0,36,36,0,1,,,,,,,,,,,,,,,,,,,,,,,,,,,,
,,,,,V2_003,20,Female,2024-02-28_13h19.59.029,jersey_experiment_5_v2,2023.2.2,Win32,85.47008547,,,,,,,,,,,,,,,,815.9451,818.0392,818.0392,820.2509,return,1.2597,,57.421875,,,,,,FBP-PT-19.png,0.35,1.2,11,0.5,,,,,,,,,,,,,0,37,37,10,1,,,,,,,,,,,,,,,,,,,,,,,,,,,,
,,,,,V2_003,20,Female,2024-02-28_13h19.59.029,jersey_experiment_5_v2,2023.2.2,Win32,85.47008547,,,,,,,,,,,,,,,,820.2511,822.0982,822.0983,823.6628,return,0.4568,,77.734375,,,,,,FBP-OG-18.png,0.4,1.2,23,0.25,,,,,,,,,,,,,0,38,38,22,1,,,,,,,,,,,,,,,,,,,,,,,,,,,,
,,,,,V2_003,20,Female,2024-02-28_13h19.59.029,jersey_experiment_5_v2,2023.2.2,Win32,85.47008547,,,,,,,,,,,,,,,,823.663,825.51,825.5101,826.957,return,0.3543,,88.80208333,,,,,,FBP-RB-19.png,0.43,1.2,44,0.25,,,,,,,,,,,,,0,39,39,43,1,,,,,,,,,,,,,,,,,,,,,,,,,,,,
,,,,,V2_003,20,Female,2024-02-28_13h19.59.029,jersey_experiment_5_v2,2023.2.2,Win32,85.47008547,,,,,,,,,,,,,,,,826.9572,829.0514,829.0514,830.4631,return,0.1887,,91.66666667,,,,,,FBP-PT-17.png,0.43,1.2,4,0.5,,,,,,,,,,,,,0,40,40,3,1,,,,,,,,,,,,,,,,,,,,,,,,,,,,
,,,,,V2_003,20,Female,2024-02-28_13h19.59.029,jersey_experiment_5_v2,2023.2.2,Win32,85.47008547,,,,,,,,,,,,,,,,830.4633,832.3103,832.3103,834.4867,return,0.2899,,80.72916667,,,,,,FBP-OG-17.png,0.43,1.2,19,0.25,,,,,,,,,,,,,0,41,41,18,1,,,,,,,,,,,,,,,,,,,,,,,,,,,,
,,,,,V2_003,20,Female,2024-02-28_13h19.59.029,jersey_experiment_5_v2,2023.2.2,Win32,85.47008547,,,,,,,,,,,,,,,,834.4869,836.5808,836.5809,838.1104,return,0.1881,,88.93229167,,,,,,FBP-PT-17.png,0.45,1.2,5,0.5,,,,,,,,,,,,,0,42,42,4,1,,,,,,,,,,,,,,,,,,,,,,,,,,,,
,,,,,V2_003,20,Female,2024-02-28_13h19.59.029,jersey_experiment_5_v2,2023.2.2,Win32,85.47008547,,,,,,,,,,,,,,,,838.1105,839.9694,839.9694,841.8045,return,0.8356,,91.796875,,,,,,FBP-RB-19.png,0.45,1.2,45,0.25,,,,,,,,,,,,,0,43,43,44,1,,,,,,,,,,,,,,,,,,,,,,,,,,,,
,,,,,V2_003,20,Female,2024-02-28_13h19.59.029,jersey_experiment_5_v2,2023.2.2,Win32,85.47008547,,,,,,,,,,,,,,,,841.8047,843.6637,843.6637,845.3224,return,0.5902,,71.09375,,,,,,FBP-RB-19.png,0.4,1.2,43,0.25,,,,,,,,,,,,,0,44,44,42,1,,,,,,,,,,,,,,,,,,,,,,,,,,,,
,,,,,V2_003,20,Female,2024-02-28_13h19.59.029,jersey_experiment_5_v2,2023.2.2,Win32,85.47008547,,,,,,,,,,,,,,,,845.3226,847.1697,847.1697,849.7109,return,1.6705,,82.55208333,,,,,,FBP-OG-19.png,0.43,1.2,29,0.25,,,,,,,,,,,,,0,45,45,28,1,,,,,,,,,,,,,,,,,,,,,,,,,,,,
,,,,,V2_003,20,Female,2024-02-28_13h19.59.029,jersey_experiment_5_v2,2023.2.2,Win32,85.47008547,,,,,,,,,,,,,,,,849.7112,851.5697,851.5697,853.6404,return,1.1693,,72.52604167,,,,,,FBP-OG-19.png,0.4,1.2,28,0.25,,,,,,,,,,,,,0,46,46,27,1,,,,,,,,,,,,,,,,,,,,,,,,,,,,
,,,,,V2_003,20,Female,2024-02-28_13h19.59.029,jersey_experiment_5_v2,2023.2.2,Win32,85.47008547,,,,,,,,,,,,,,,,853.6407,855.4877,855.4877,857.1465,return,0.4744,,43.22916667,,,,,,FBP-YG-71.png,0.37,1.2,47,0.25,,,,,,,,,,,,,0,47,47,46,1,,,,,,,,,,,,,,,,,,,,,,,,,,,,
,,,,,V2_003,20,Female,2024-02-28_13h19.59.029,jersey_experiment_5_v2,2023.2.2,Win32,85.47008547,,,,,,,,,,,,,,,,857.1467,858.9937,858.9938,860.5112,return,0.2117,,86.97916667,,,,,,FBP-RB-18.png,0.43,1.2,39,0.25,,,,,,,,,,,,,0,48,48,38,1,,,,,,,,,,,,,,,,,,,,,,,,,,,,
,,,,,V2_003,20,Female,2024-02-28_13h19.59.029,jersey_experiment_5_v2,2023.2.2,Win32,85.47008547,,,,,,,,,,,,,,,,860.5113,862.3586,862.3586,866.0645,return,0.2217,,30.59895833,,,,,,FBP-RB-17.png,0.37,1.2,32,0.25,,,,,,,,,,,,,0,49,49,31,1,,,,,,,,,,,,,,,,,,,,,,,,,,,,
,,,,,V2_003,20,Female,2024-02-28_13h19.59.029,jersey_experiment_5_v2,2023.2.2,Win32,85.47008547,,,,,,,,,,,,,,,,866.0646,867.9115,867.9115,869.335,return,0.1583,,27.60416667,,,,,,FBP-YG-91.png,0.35,1.2,56,0.25,,,,,,,,,,,,,0,50,50,55,1,,,,,,,,,,,,,,,,,,,,,,,,,,,,
,,,,,V2_003,20,Female,2024-02-28_13h19.59.029,jersey_experiment_5_v2,2023.2.2,Win32,85.47008547,,,,,,,,,,,,,,,,869.3352,871.1824,871.1825,872.3352,return,0.1414,,78.25520833,,,,,,FBP-OG-18.png,0.45,1.2,25,0.25,,,,,,,,,,,,,0,51,51,24,1,,,,,,,,,,,,,,,,,,,,,,,,,,,,
,,,,,V2_003,20,Female,2024-02-28_13h19.59.029,jersey_experiment_5_v2,2023.2.2,Win32,85.47008547,,,,,,,,,,,,,,,,872.3354,874.1823,874.1824,875.3352,return,0.1247,,27.734375,,,,,,FBP-YG-91.png,0.37,1.2,57,0.25,,,,,,,,,,,,,0,52,52,56,1,,,,,,,,,,,,,,,,,,,,,,,,,,,,
,,,,,V2_003,20,Female,2024-02-28_13h19.59.029,jersey_experiment_5_v2,2023.2.2,Win32,85.47008547,,,,,,,,,,,,,,,,875.3354,877.1825,877.1826,878.3589,return,0.3254,,81.77083333,,,,,,FBP-OG-17.png,0.4,1.2,18,0.25,,,,,,,,,,,,,0,53,53,17,1,,,,,,,,,,,,,,,,,,,,,,,,,,,,
,,,,,V2_003,20,Female,2024-02-28_13h19.59.029,jersey_experiment_5_v2,2023.2.2,Win32,85.47008547,,,,,,,,,,,,,,,,878.3592,880.2061,880.2061,881.665,return,0.0941,,85.28645833,,,,,,FBP-OG-18.png,0.43,1.2,24,0.25,,,,,,,,,,,,,0,54,54,23,1,,,,,,,,,,,,,,,,,,,,,,,,,,,,
,,,,,V2_003,20,Female,2024-02-28_13h19.59.029,jersey_experiment_5_v2,2023.2.2,Win32,85.47008547,,,,,,,,,,,,,,,,881.6651,883.5237,883.5237,884.1356,return,0.1243,,88.28125,,,,,,FBP-YG-71.png,0.4,1.2,48,0.25,,,,,,,,,,,,,0,55,55,47,1,,,,,,,,,,,,,,,,,,,,,,,,,,,,
,,,,,V2_003,20,Female,2024-02-28_13h19.59.029,jersey_experiment_5_v2,2023.2.2,Win32,85.47008547,,,,,,,,,,,,,,,,884.1358,885.9828,885.9829,887.7711,return,0.1561,,46.61458333,,,,,,FBP-RB-18.png,0.37,1.2,37,0.25,,,,,,,,,,,,,0,56,56,36,1,,,,,,,,,,,,,,,,,,,,,,,,,,,,
,,,,,V2_003,20,Female,2024-02-28_13h19.59.029,jersey_experiment_5_v2,2023.2.2,Win32,85.47008547,,,,,,,,,,,,,,,,887.7713,889.8653,889.8654,890.9595,return,0.1754,,76.82291667,,,,,,FBP-PT-18.png,0.43,1.2,9,0.5,,,,,,,,,,,,,0,57,57,8,1,,,,,,,,,,,,,,,,,,,,,,,,,,,,
,,,,,V2_003,20,Female,2024-02-28_13h19.59.029,jersey_experiment_5_v2,2023.2.2,Win32,85.47008547,,,,,,,,,,,,,,,,890.9597,893.0537,893.0537,894.3948,return,0.0738,,53.90625,,,,,,FBP-PT-18.png,0.35,1.2,6,0.5,,,,,,,,,,,,,0,58,58,5,1,,,,,,,,,,,,,,,,,,,,,,,,,,,,
,,,,,V2_003,20,Female,2024-02-28_13h19.59.029,jersey_experiment_5_v2,2023.2.2,Win32,85.47008547,,,,,,,,,,,,,,,,894.3949,896.4891,896.4891,897.4301,return,0.1491,,79.81770833,,,,,,FBP-PT-18.png,0.45,1.2,10,0.5,,,,,,,,,,,,,0,59,59,9,1,,,,,,,,,,,,,,,,,,,,,,,,,,,,
,,,,,V2_003,20,Female,2024-02-28_13h19.59.029,jersey_experiment_5_v2,2023.2.2,Win32,85.47008547,,,,,,,,,,,,,,,,897.4323,899.2775,899.2775,900.4069,return,0.1131,,33.85416667,,,,,,FBP-YG-17.png,0.35,1.2,46,0.25,,,,,,,,,,,,,,,,,,0,0,0,45,1,,,,,,,,,,,,,,,,,,,,,,,
,,,,,V2_003,20,Female,2024-02-28_13h19.59.029,jersey_experiment_5_v2,2023.2.2,Win32,85.47008547,,,,,,,,,,,,,,,,900.4072,902.254,902.254,903.1834,return,0.1405,,77.60416667,,,,,,FBP-OG-71.png,0.43,1.2,19,0.25,,,,,,,,,,,,,,,,,,0,1,1,18,1,,,,,,,,,,,,,,,,,,,,,,,
,,,,,V2_003,20,Female,2024-02-28_13h19.59.029,jersey_experiment_5_v2,2023.2.2,Win32,85.47008547,,,,,,,,,,,,,,,,903.1836,905.0305,905.0305,906.207,return,0.1881,,74.34895833,,,,,,FBP-YG-18.png,0.37,1.2,52,0.25,,,,,,,,,,,,,,,,,,0,2,2,51,1,,,,,,,,,,,,,,,,,,,,,,,
,,,,,V2_003,20,Female,2024-02-28_13h19.59.029,jersey_experiment_5_v2,2023.2.2,Win32,85.47008547,,,,,,,,,,,,,,,,906.2072,908.0658,908.0659,909.6777,return,0.0722,,47.39583333,,,,,,FBP-OG-91.png,0.35,1.2,26,0.25,,,,,,,,,,,,,,,,,,0,3,3,25,1,,,,,,,,,,,,,,,,,,,,,,,
,,,,,V2_003,20,Female,2024-02-28_13h19.59.029,jersey_experiment_5_v2,2023.2.2,Win32,85.47008547,,,,,,,,,,,,,,,,909.678,911.5249,911.5251,912.7955,return,0.0967,,82.16145833,,,,,,FBP-RB-71.png,0.45,1.2,35,0.25,,,,,,,,,,,,,,,,,,0,4,4,34,1,,,,,,,,,,,,,,,,,,,,,,,
,,,,,V2_003,20,Female,2024-02-28_13h19.59.029,jersey_experiment_5_v2,2023.2.2,Win32,85.47008547,,,,,,,,,,,,,,,,912.7956,914.6544,914.6544,916.5251,return,0.0715,,45.05208333,,,,,,FBP-RB-71.png,0.37,1.2,32,0.25,,,,,,,,,,,,,,,,,,0,5,5,31,1,,,,,,,,,,,,,,,,,,,,,,,
,,,,,V2_003,20,Female,2024-02-28_13h19.59.029,jersey_experiment_5_v2,2023.2.2,Win32,85.47008547,,,,,,,,,,,,,,,,916.5253,918.3722,918.3722,919.2898,return,0.1221,,65.75520833,,,,,,FBP-RB-81.png,0.4,1.2,38,0.25,,,,,,,,,,,,,,,,,,0,6,6,37,1,,,,,,,,,,,,,,,,,,,,,,,
,,,,,V2_003,20,Female,2024-02-28_13h19.59.029,jersey_experiment_5_v2,2023.2.2,Win32,85.47008547,,,,,,,,,,,,,,,,919.2899,921.3842,921.3842,922.4077,return,0.1593,,73.56770833,,,,,,FBP-PT-71.png,0.4,1.2,3,0.5,,,,,,,,,,,,,,,,,,0,7,7,2,1,,,,,,,,,,,,,,,,,,,,,,,
,,,,,V2_003,20,Female,2024-02-28_13h19.59.029,jersey_experiment_5_v2,2023.2.2,Win32,85.47008547,,,,,,,,,,,,,,,,922.4078,924.2546,924.2547,926.9608,return,1.987,,77.47395833,,,,,,FBP-YG-17.png,0.43,1.2,49,0.25,,,,,,,,,,,,,,,,,,0,8,8,48,1,,,,,,,,,,,,,,,,,,,,,,,
,,,,,V2_003,20,Female,2024-02-28_13h19.59.029,jersey_experiment_5_v2,2023.2.2,Win32,85.47008547,,,,,,,,,,,,,,,,926.9609,928.808,928.8081,929.6548,return,0.1474,,86.58854167,,,,,,FBP-OG-71.png,0.45,1.2,20,0.25,,,,,,,,,,,,,,,,,,0,9,9,19,1,,,,,,,,,,,,,,,,,,,,,,,
,,,,,V2_003,20,Female,2024-02-28_13h19.59.029,jersey_experiment_5_v2,2023.2.2,Win32,85.47008547,,,,,,,,,,,,,,,,929.6551,931.5139,931.5139,932.6786,return,0.7477,,86.58854167,,,,,,FBP-RB-71.png,0.43,1.2,34,0.25,,,,,,,,,,,,,,,,,,0,10,10,33,1,,,,,,,,,,,,,,,,,,,,,,,
,,,,,V2_003,20,Female,2024-02-28_13h19.59.029,jersey_experiment_5_v2,2023.2.2,Win32,85.47008547,,,,,,,,,,,,,,,,932.6789,934.5259,934.5259,935.7023,return,0.0666,,34.765625,,,,,,FBP-YG-19.png,0.37,1.2,57,0.25,,,,,,,,,,,,,,,,,,0,11,11,56,1,,,,,,,,,,,,,,,,,,,,,,,
,,,,,V2_003,20,Female,2024-02-28_13h19.59.029,jersey_experiment_5_v2,2023.2.2,Win32,85.47008547,,,,,,,,,,,,,,,,935.7025,937.5494,937.5495,938.5846,return,0.1467,,80.72916667,,,,,,FBP-OG-81.png,0.43,1.2,24,0.25,,,,,,,,,,,,,,,,,,0,12,12,23,1,,,,,,,,,,,,,,,,,,,,,,,
,,,,,V2_003,20,Female,2024-02-28_13h19.59.029,jersey_experiment_5_v2,2023.2.2,Win32,85.47008547,,,,,,,,,,,,,,,,938.5848,940.4319,940.4319,941.8202,return,1.0026,,71.875,,,,,,FBP-RB-91.png,0.4,1.2,43,0.25,,,,,,,,,,,,,,,,,,0,13,13,42,1,,,,,,,,,,,,,,,,,,,,,,,
,,,,,V2_003,20,Female,2024-02-28_13h19.59.029,jersey_experiment_5_v2,2023.2.2,Win32,85.47008547,,,,,,,,,,,,,,,,941.8204,943.6792,943.6793,944.479,return,0.0605,,47.00520833,,,,,,FBP-RB-91.png,0.37,1.2,42,0.25,,,,,,,,,,,,,,,,,,0,14,14,41,1,,,,,,,,,,,,,,,,,,,,,,,
,,,,,V2_003,20,Female,2024-02-28_13h19.59.029,jersey_experiment_5_v2,2023.2.2,Win32,85.47008547,,,,,,,,,,,,,,,,944.4792,946.5733,946.5733,947.5615,return,0.0872,,77.86458333,,,,,,FBP-PT-81.png,0.43,1.2,9,0.5,,,,,,,,,,,,,,,,,,0,15,15,8,1,,,,,,,,,,,,,,,,,,,,,,,
,,,,,V2_003,20,Female,2024-02-28_13h19.59.029,jersey_experiment_5_v2,2023.2.2,Win32,85.47008547,,,,,,,,,,,,,,,,947.5618,949.4088,949.4088,950.6675,return,0.3554,,46.74479167,,,,,,FBP-OG-71.png,0.35,1.2,16,0.25,,,,,,,,,,,,,,,,,,0,16,16,15,1,,,,,,,,,,,,,,,,,,,,,,,
,,,,,V2_003,20,Female,2024-02-28_13h19.59.029,jersey_experiment_5_v2,2023.2.2,Win32,85.47008547,,,,,,,,,,,,,,,,950.6678,952.7618,952.7618,953.5147,return,0.1328,,77.47395833,,,,,,FBP-PT-81.png,0.45,1.2,10,0.5,,,,,,,,,,,,,,,,,,0,17,17,9,1,,,,,,,,,,,,,,,,,,,,,,,
,,,,,V2_003,20,Female,2024-02-28_13h19.59.029,jersey_experiment_5_v2,2023.2.2,Win32,85.47008547,,,,,,,,,,,,,,,,953.5151,955.6091,955.6092,956.5501,return,0.0903,,46.875,,,,,,FBP-PT-91.png,0.37,1.2,12,0.5,,,,,,,,,,,,,,,,,,0,18,18,11,1,,,,,,,,,,,,,,,,,,,,,,,
,,,,,V2_003,20,Female,2024-02-28_13h19.59.029,jersey_experiment_5_v2,2023.2.2,Win32,85.47008547,,,,,,,,,,,,,,,,956.5503,958.409,958.4091,959.1266,return,0.0636,,36.45833333,,,,,,FBP-YG-17.png,0.37,1.2,47,0.25,,,,,,,,,,,,,,,,,,0,19,19,46,1,,,,,,,,,,,,,,,,,,,,,,,
,,,,,V2_003,20,Female,2024-02-28_13h19.59.029,jersey_experiment_5_v2,2023.2.2,Win32,85.47008547,,,,,,,,,,,,,,,,959.1268,961.221,961.221,964.3741,return,0.7701,,83.07291667,,,,,,FBP-PT-91.png,0.45,1.2,15,0.5,,,,,,,,,,,,,,,,,,0,20,20,14,1,,,,,,,,,,,,,,,,,,,,,,,
,,,,,V2_003,20,Female,2024-02-28_13h19.59.029,jersey_experiment_5_v2,2023.2.2,Win32,85.47008547,,,,,,,,,,,,,,,,964.3743,966.2212,966.2212,967.2565,return,0.1446,,22.00520833,,,,,,FBP-RB-81.png,0.35,1.2,36,0.25,,,,,,,,,,,,,,,,,,0,21,21,35,1,,,,,,,,,,,,,,,,,,,,,,,
,,,,,V2_003,20,Female,2024-02-28_13h19.59.029,jersey_experiment_5_v2,2023.2.2,Win32,85.47008547,,,,,,,,,,,,,,,,967.2567,969.1036,969.1037,969.8328,return,0.1335,,83.33333333,,,,,,FBP-RB-81.png,0.45,1.2,40,0.25,,,,,,,,,,,,,,,,,,0,22,22,39,1,,,,,,,,,,,,,,,,,,,,,,,
,,,,,V2_003,20,Female,2024-02-28_13h19.59.029,jersey_experiment_5_v2,2023.2.2,Win32,85.47008547,,,,,,,,,,,,,,,,969.833,971.9272,971.9273,972.8095,return,0.0737,,51.82291667,,,,,,FBP-PT-81.png,0.4,1.2,8,0.5,,,,,,,,,,,,,,,,,,0,23,23,7,1,,,,,,,,,,,,,,,,,,,,,,,
,,,,,V2_003,20,Female,2024-02-28_13h19.59.029,jersey_experiment_5_v2,2023.2.2,Win32,85.47008547,,,,,,,,,,,,,,,,972.8098,974.6684,974.6685,975.6449,return,0.1055,,49.34895833,,,,,,FBP-OG-71.png,0.37,1.2,17,0.25,,,,,,,,,,,,,,,,,,0,24,24,16,1,,,,,,,,,,,,,,,,,,,,,,,
,,,,,V2_003,20,Female,2024-02-28_13h19.59.029,jersey_experiment_5_v2,2023.2.2,Win32,85.47008547,,,,,,,,,,,,,,,,975.645,977.4921,977.4921,978.5039,return,0.1228,,79.16666667,,,,,,FBP-RB-91.png,0.43,1.2,44,0.25,,,,,,,,,,,,,,,,,,0,25,25,43,1,,,,,,,,,,,,,,,,,,,,,,,
,,,,,V2_003,20,Female,2024-02-28_13h19.59.029,jersey_experiment_5_v2,2023.2.2,Win32,85.47008547,,,,,,,,,,,,,,,,978.5041,980.3627,980.3627,981.3746,return,0.1658,,76.5625,,,,,,FBP-OG-71.png,0.4,1.2,18,0.25,,,,,,,,,,,,,,,,,,0,26,26,17,1,,,,,,,,,,,,,,,,,,,,,,,
,,,,,V2_003,20,Female,2024-02-28_13h19.59.029,jersey_experiment_5_v2,2023.2.2,Win32,85.47008547,,,,,,,,,,,,,,,,981.3748,983.2216,983.2217,983.9158,return,0.1893,,85.67708333,,,,,,FBP-YG-19.png,0.43,1.2,59,0.25,,,,,,,,,,,,,,,,,,0,27,27,58,1,,,,,,,,,,,,,,,,,,,,,,,
,,,,,V2_003,20,Female,2024-02-28_13h19.59.029,jersey_experiment_5_v2,2023.2.2,Win32,85.47008547,,,,,,,,,,,,,,,,983.9161,985.7629,985.7629,986.4216,return,0.1832,,90.10416667,,,,,,FBP-RB-91.png,0.45,1.2,45,0.25,,,,,,,,,,,,,,,,,,0,28,28,44,1,,,,,,,,,,,,,,,,,,,,,,,
,,,,,V2_003,20,Female,2024-02-28_13h19.59.029,jersey_experiment_5_v2,2023.2.2,Win32,85.47008547,,,,,,,,,,,,,,,,986.4218,988.516,988.516,989.069,return,0.1306,,90.10416667,,,,,,FBP-PT-71.png,0.45,1.2,5,0.5,,,,,,,,,,,,,,,,,,0,29,29,4,1,,,,,,,,,,,,,,,,,,,,,,,
,,,,,V2_003,20,Female,2024-02-28_13h19.59.029,jersey_experiment_5_v2,2023.2.2,Win32,85.47008547,,,,,,,,,,,,,,,,989.0692,991.1633,991.1633,992.4219,return,0.1962,,35.67708333,,,,,,FBP-PT-71.png,0.35,1.2,1,0.5,,,,,,,,,,,,,,,,,,0,30,30,0,1,,,,,,,,,,,,,,,,,,,,,,,
,,,,,V2_003,20,Female,2024-02-28_13h19.59.029,jersey_experiment_5_v2,2023.2.2,Win32,85.47008547,,,,,,,,,,,,,,,,992.4221,994.2692,994.2693,994.9868,return,0.2011,,30.859375,,,,,,FBP-RB-81.png,0.37,1.2,37,0.25,,,,,,,,,,,,,,,,,,0,31,31,36,1,,,,,,,,,,,,,,,,,,,,,,,
,,,,,V2_003,20,Female,2024-02-28_13h19.59.029,jersey_experiment_5_v2,2023.2.2,Win32,85.47008547,,,,,,,,,,,,,,,,994.987,996.8341,996.8342,997.9987,return,0.174,,88.93229167,,,,,,FBP-YG-18.png,0.45,1.2,55,0.25,,,,,,,,,,,,,,,,,,0,32,32,54,1,,,,,,,,,,,,,,,,,,,,,,,
,,,,,V2_003,20,Female,2024-02-28_13h19.59.029,jersey_experiment_5_v2,2023.2.2,Win32,85.47008547,,,,,,,,,,,,,,,,997.9989,1000.093,1000.093,1000.8105,return,0.2271,,84.63541667,,,,,,FBP-PT-91.png,0.43,1.2,14,0.5,,,,,,,,,,,,,,,,,,0,33,33,13,1,,,,,,,,,,,,,,,,,,,,,,,
,,,,,V2_003,20,Female,2024-02-28_13h19.59.029,jersey_experiment_5_v2,2023.2.2,Win32,85.47008547,,,,,,,,,,,,,,,,1000.8108,1002.9048,1002.9048,1004.6812,return,1.1443,,73.046875,,,,,,FBP-PT-91.png,0.4,1.2,13,0.5,,,,,,,,,,,,,,,,,,0,34,34,12,1,,,,,,,,,,,,,,,,,,,,,,,
,,,,,V2_003,20,Female,2024-02-28_13h19.59.029,jersey_experiment_5_v2,2023.2.2,Win32,85.47008547,,,,,,,,,,,,,,,,1004.6814,1006.5401,1006.5401,1007.552,return,0.1989,,63.02083333,,,,,,FBP-OG-91.png,0.4,1.2,28,0.25,,,,,,,,,,,,,,,,,,0,35,35,27,1,,,,,,,,,,,,,,,,,,,,,,,
,,,,,V2_003,20,Female,2024-02-28_13h19.59.029,jersey_experiment_5_v2,2023.2.2,Win32,85.47008547,,,,,,,,,,,,,,,,1007.5521,1009.4109,1009.4109,1010.3639,return,0.1555,,43.88020833,,,,,,FBP-OG-81.png,0.35,1.2,21,0.25,,,,,,,,,,,,,,,,,,0,36,36,20,1,,,,,,,,,,,,,,,,,,,,,,,
,,,,,V2_003,20,Female,2024-02-28_13h19.59.029,jersey_experiment_5_v2,2023.2.2,Win32,85.47008547,,,,,,,,,,,,,,,,1010.3641,1012.2109,1012.211,1013.1992,return,0.1415,,40.36458333,,,,,,FBP-OG-91.png,0.37,1.2,27,0.25,,,,,,,,,,,,,,,,,,0,37,37,26,1,,,,,,,,,,,,,,,,,,,,,,,
,,,,,V2_003,20,Female,2024-02-28_13h19.59.029,jersey_experiment_5_v2,2023.2.2,Win32,85.47008547,,,,,,,,,,,,,,,,1013.1993,1015.2934,1015.2934,1016.1994,return,0.1469,,37.109375,,,,,,FBP-PT-71.png,0.37,1.2,2,0.5,,,,,,,,,,,,,,,,,,0,38,38,1,1,,,,,,,,,,,,,,,,,,,,,,,
,,,,,V2_003,20,Female,2024-02-28_13h19.59.029,jersey_experiment_5_v2,2023.2.2,Win32,85.47008547,,,,,,,,,,,,,,,,1016.1996,1018.0581,1018.0582,1019.9172,return,0.3528,,51.953125,,,,,,FBP-OG-81.png,0.37,1.2,22,0.25,,,,,,,,,,,,,,,,,,0,39,39,21,1,,,,,,,,,,,,,,,,,,,,,,,
,,,,,V2_003,20,Female,2024-02-28_13h19.59.029,jersey_experiment_5_v2,2023.2.2,Win32,85.47008547,,,,,,,,,,,,,,,,1019.9175,1021.7643,1021.7644,1024.3645,return,0.8941,,65.36458333,,,,,,FBP-YG-18.png,0.4,1.2,53,0.25,,,,,,,,,,,,,,,,,,0,40,40,52,1,,,,,,,,,,,,,,,,,,,,,,,
,,,,,V2_003,20,Female,2024-02-28_13h19.59.029,jersey_experiment_5_v2,2023.2.2,Win32,85.47008547,,,,,,,,,,,,,,,,1024.3648,1026.4587,1026.4588,1028.4704,return,0.6288,,51.43229167,,,,,,FBP-PT-91.png,0.35,1.2,11,0.5,,,,,,,,,,,,,,,,,,0,41,41,10,1,,,,,,,,,,,,,,,,,,,,,,,
,,,,,V2_003,20,Female,2024-02-28_13h19.59.029,jersey_experiment_5_v2,2023.2.2,Win32,85.47008547,,,,,,,,,,,,,,,,1028.4706,1030.3175,1030.3175,1031.1999,return,0.1414,,58.46354167,,,,,,FBP-YG-18.png,0.35,1.2,51,0.25,,,,,,,,,,,,,,,,,,0,42,42,50,1,,,,,,,,,,,,,,,,,,,,,,,
,,,,,V2_003,20,Female,2024-02-28_13h19.59.029,jersey_experiment_5_v2,2023.2.2,Win32,85.47008547,,,,,,,,,,,,,,,,1031.2,1033.0472,1033.0472,1033.9294,return,0.1458,,77.21354167,,,,,,FBP-OG-91.png,0.43,1.2,29,0.25,,,,,,,,,,,,,,,,,,0,43,43,28,1,,,,,,,,,,,,,,,,,,,,,,,
,,,,,V2_003,20,Female,2024-02-28_13h19.59.029,jersey_experiment_5_v2,2023.2.2,Win32,85.47008547,,,,,,,,,,,,,,,,1033.9296,1035.7766,1035.7766,1036.4118,return,0.1894,,85.546875,,,,,,FBP-OG-81.png,0.45,1.2,25,0.25,,,,,,,,,,,,,,,,,,0,44,44,24,1,,,,,,,,,,,,,,,,,,,,,,,
,,,,,V2_003,20,Female,2024-02-28_13h19.59.029,jersey_experiment_5_v2,2023.2.2,Win32,85.47008547,,,,,,,,,,,,,,,,1036.4121,1038.259,1038.259,1039.212,return,0.1316,,65.75520833,,,,,,FBP-RB-91.png,0.35,1.2,41,0.25,,,,,,,,,,,,,,,,,,0,45,45,40,1,,,,,,,,,,,,,,,,,,,,,,,
,,,,,V2_003,20,Female,2024-02-28_13h19.59.029,jersey_experiment_5_v2,2023.2.2,Win32,85.47008547,,,,,,,,,,,,,,,,1039.2124,1041.0591,1041.0592,1043.3885,return,0.0827,,55.46875,,,,,,FBP-YG-19.png,0.35,1.2,56,0.25,,,,,,,,,,,,,,,,,,0,46,46,55,1,,,,,,,,,,,,,,,,,,,,,,,
,,,,,V2_003,20,Female,2024-02-28_13h19.59.029,jersey_experiment_5_v2,2023.2.2,Win32,85.47008547,,,,,,,,,,,,,,,,1043.3887,1045.2357,1045.2357,1046.1181,return,0.1121,,69.40104167,,,,,,FBP-YG-17.png,0.4,1.2,48,0.25,,,,,,,,,,,,,,,,,,0,47,47,47,1,,,,,,,,,,,,,,,,,,,,,,,
,,,,,V2_003,20,Female,2024-02-28_13h19.59.029,jersey_experiment_5_v2,2023.2.2,Win32,85.47008547,,,,,,,,,,,,,,,,1046.1182,1047.9653,1047.9653,1048.8945,return,0.0569,,45.18229167,,,,,,FBP-RB-71.png,0.35,1.2,31,0.25,,,,,,,,,,,,,,,,,,0,48,48,30,1,,,,,,,,,,,,,,,,,,,,,,,
,,,,,V2_003,20,Female,2024-02-28_13h19.59.029,jersey_experiment_5_v2,2023.2.2,Win32,85.47008547,,,,,,,,,,,,,,,,1048.8947,1050.9891,1050.9891,1051.836,return,0.0596,,56.38020833,,,,,,FBP-PT-81.png,0.37,1.2,7,0.5,,,,,,,,,,,,,,,,,,0,49,49,6,1,,,,,,,,,,,,,,,,,,,,,,,
,,,,,V2_003,20,Female,2024-02-28_13h19.59.029,jersey_experiment_5_v2,2023.2.2,Win32,85.47008547,,,,,,,,,,,,,,,,1051.8361,1053.6832,1053.6833,1054.2949,return,0.1004,,78.64583333,,,,,,FBP-YG-18.png,0.43,1.2,54,0.25,,,,,,,,,,,,,,,,,,0,50,50,53,1,,,,,,,,,,,,,,,,,,,,,,,
,,,,,V2_003,20,Female,2024-02-28_13h19.59.029,jersey_experiment_5_v2,2023.2.2,Win32,85.47008547,,,,,,,,,,,,,,,,1054.2952,1056.1419,1056.1419,1057.0714,return,0.1178,,85.41666667,,,,,,FBP-YG-19.png,0.45,1.2,60,0.25,,,,,,,,,,,,,,,,,,0,51,51,59,1,,,,,,,,,,,,,,,,,,,,,,,
,,,,,V2_003,20,Female,2024-02-28_13h19.59.029,jersey_experiment_5_v2,2023.2.2,Win32,85.47008547,,,,,,,,,,,,,,,,1057.0717,1059.1657,1059.1657,1059.9303,return,0.0381,,45.3125,,,,,,FBP-PT-81.png,0.35,1.2,6,0.5,,,,,,,,,,,,,,,,,,0,52,52,5,1,,,,,,,,,,,,,,,,,,,,,,,
,,,,,V2_003,20,Female,2024-02-28_13h19.59.029,jersey_experiment_5_v2,2023.2.2,Win32,85.47008547,,,,,,,,,,,,,,,,1059.9304,1061.7776,1061.7777,1062.5656,return,0.0888,,78.25520833,,,,,,FBP-RB-71.png,0.4,1.2,33,0.25,,,,,,,,,,,,,,,,,,0,53,53,32,1,,,,,,,,,,,,,,,,,,,,,,,
,,,,,V2_003,20,Female,2024-02-28_13h19.59.029,jersey_experiment_5_v2,2023.2.2,Win32,85.47008547,,,,,,,,,,,,,,,,1062.5658,1064.413,1064.4131,1064.9541,return,0.157,,82.68229167,,,,,,FBP-OG-81.png,0.4,1.2,23,0.25,,,,,,,,,,,,,,,,,,0,54,54,22,1,,,,,,,,,,,,,,,,,,,,,,,
,,,,,V2_003,20,Female,2024-02-28_13h19.59.029,jersey_experiment_5_v2,2023.2.2,Win32,85.47008547,,,,,,,,,,,,,,,,1064.9544,1067.0484,1067.0486,1067.6718,return,0.2181,,89.19270833,,,,,,FBP-PT-71.png,0.43,1.2,4,0.5,,,,,,,,,,,,,,,,,,0,55,55,3,1,,,,,,,,,,,,,,,,,,,,,,,
,,,,,V2_003,20,Female,2024-02-28_13h19.59.029,jersey_experiment_5_v2,2023.2.2,Win32,85.47008547,,,,,,,,,,,,,,,,1067.672,1069.519,1069.519,1070.2955,return,0.1127,,88.80208333,,,,,,FBP-YG-19.png,0.4,1.2,58,0.25,,,,,,,,,,,,,,,,,,0,56,56,57,1,,,,,,,,,,,,,,,,,,,,,,,
,,,,,V2_003,20,Female,2024-02-28_13h19.59.029,jersey_experiment_5_v2,2023.2.2,Win32,85.47008547,,,,,,,,,,,,,,,,1070.2957,1072.1543,1072.1544,1072.7661,return,0.2119,,91.92708333,,,,,,FBP-RB-81.png,0.43,1.2,39,0.25,,,,,,,,,,,,,,,,,,0,57,57,38,1,,,,,,,,,,,,,,,,,,,,,,,
,,,,,V2_003,20,Female,2024-02-28_13h19.59.029,jersey_experiment_5_v2,2023.2.2,Win32,85.47008547,,,,,,,,,,,,,,,,1072.7663,1074.6134,1074.6134,1075.131,return,0.1441,,94.40104167,,,,,,FBP-OG-91.png,0.45,1.2,30,0.25,,,,,,,,,,,,,,,,,,0,58,58,29,1,,,,,,,,,,,,,,,,,,,,,,,
,,,,,V2_003,20,Female,2024-02-28_13h19.59.029,jersey_experiment_5_v2,2023.2.2,Win32,85.47008547,,,,,,,,,,,,,,,,1075.131,1076.9782,1076.9782,1077.9781,return,0.1451,,94.01041667,,,,,,FBP-YG-17.png,0.45,1.2,50,0.25,,,,,,,,,,,,,,,,,,0,59,59,49,1,,,,,,,,,,,,,,,,,,,,,,,
,,,,,V2_003,20,Female,2024-02-28_13h19.59.029,jersey_experiment_5_v2,2023.2.2,Win32,85.47008547,,,,,,,,,,,,,,,,,,,,,,,,,,,,,,,,,,,,,,,,,,,,,,,,,,,,,,,,1077.9784,1085.9904,return,8.006,,,,,,,,,,,,,,,,,,,
,,,,,V2_003,20,Female,2024-02-28_13h19.59.029,jersey_experiment_5_v2,2023.2.2,Win32,85.47008547,,,,,,,,,,,,,,,,,,,,,,,,,,,,,,,,,,,,,,,,,,,,,,,,,,,,,,,,,,,,,1085.9905,1091.167,1,4.3876,return,0.7658,,,,,,,,,,,,
,,,,,V2_003,20,Female,2024-02-28_13h19.59.029,jersey_experiment_5_v2,2023.2.2,Win32,85.47008547,,,,,,,,,,,,,,,,,,,,,,,,,,,,,,,,,,,,,,,,,,,,,,,,,,,,,,,,,,,,,,,,,,,,1091.1671,1154.4917,I have an idea but not completely sure. I noticed the pattern that the images were repeated. Perhaps it's a study about intuition and memory.,right,56.4433,,,,,,
,,,,,V2_003,20,Female,2024-02-28_13h19.59.029,jersey_experiment_5_v2,2023.2.2,Win32,85.47008547,,,,,,,,,,,,,,,,,,,,,,,,,,,,,,,,,,,,,,,,,,,,,,,,,,,,,,,,,,,,,,,,,,,,,,,,,,1154.4918,1159.5931,return,5.0939,