requirements.started,requirements.stopped,key_resp_3.keys,key_resp_3.rt,key_resp_3.duration,Subject ID,Age,Gender,date,expName,psychopyVersion,OS,frameRate,instructions1.started,instructions1.stopped,key_resp.keys,key_resp.rt,key_resp.duration,example.started,example.stopped,enter_2.keys,enter_2.rt,enter_2.duration,instructions2.started,instructions2.stopped,enter_3.keys,enter_3.rt,enter_3.duration,image.started,image.stopped,slider_2.started,slider_2.stopped,next.keys,next.rt,next.duration,slider.response,trial_block_1.thisRepN,trial_block_1.thisTrialN,trial_block_1.thisN,trial_block_1.thisIndex,trial_block_1.ran,Path,Width,Height,Index,Duration,trial_block_2.thisRepN,trial_block_2.thisTrialN,trial_block_2.thisN,trial_block_2.thisIndex,trial_block_2.ran,rest_break.started,rest_break.stopped,end_break.started,end_break.stopped,key_resp_5.keys,key_resp_5.rt,key_resp_5.duration,trial_block_3.thisRepN,trial_block_3.thisTrialN,trial_block_3.thisN,trial_block_3.thisIndex,trial_block_3.ran,trial_block_4.thisRepN,trial_block_4.thisTrialN,trial_block_4.thisN,trial_block_4.thisIndex,trial_block_4.ran,questions_intro.started,questions_intro.stopped,enter_12.keys,enter_12.rt,enter_12.duration,question2.started,question2.stopped,question_doingbest.response,question_doingbest.rt,enter_15.keys,enter_15.rt,enter_15.duration,pattern.started,pattern.stopped,pattern_2.text,enter_17.keys,enter_17.rt,enter_17.duration,thankyou.started,thankyou.stopped,enter_14.keys,enter_14.rt,enter_14.duration
1E-04,21.4009,return,21.3893,,V2_012,20,Female,2024-03-01_15h02.05.175,jersey_experiment_5_v2,2023.2.2,Win32,84.74576271,,,,,,,,,,,,,,,,,,,,,,,,,,,,,,,,,,,,,,,,,,,,,,,,,,,,,,,,,,,,,,,,,,,,,,,,,,,,,,
,,,,,V2_012,20,Female,2024-03-01_15h02.05.175,jersey_experiment_5_v2,2023.2.2,Win32,84.74576271,21.4009,30.9661,return,9.5451,,,,,,,,,,,,,,,,,,,,,,,,,,,,,,,,,,,,,,,,,,,,,,,,,,,,,,,,,,,,,,,,,,,,,,,,,,
,,,,,V2_012,20,Female,2024-03-01_15h02.05.175,jersey_experiment_5_v2,2023.2.2,Win32,84.74576271,,,,,,30.9661,34.9659,return,3.9621,,,,,,,,,,,,,,,,,,,,,,,,,,,,,,,,,,,,,,,,,,,,,,,,,,,,,,,,,,,,,,,,,,,,,
,,,,,V2_012,20,Female,2024-03-01_15h02.05.175,jersey_experiment_5_v2,2023.2.2,Win32,84.74576271,,,,,,,,,,,34.9661,54.8611,return,19.8814,,,,,,,,,,,,,,,,,,,,,,,,,,,,,,,,,,,,,,,,,,,,,,,,,,,,,,,,,,,,,,,,
,,,,,V2_012,20,Female,2024-03-01_15h02.05.175,jersey_experiment_5_v2,2023.2.2,Win32,84.74576271,,,,,,,,,,,,,,,,54.8693,56.9667,56.9668,70.9202,return,1.5056,,0.911458333,0,0,0,35,1,FBP-RB-18.png,0.35,1.2,36,0.5,,,,,,,,,,,,,,,,,,,,,,,,,,,,,,,,,,,,,,,,,,,,,
,,,,,V2_012,20,Female,2024-03-01_15h02.05.175,jersey_experiment_5_v2,2023.2.2,Win32,84.74576271,,,,,,,,,,,,,,,,70.9205,72.7671,72.7672,74.9673,return,0.2364,,49.73958333,0,1,1,13,1,FBP-PT-19.png,0.43,1.2,14,0.25,,,,,,,,,,,,,,,,,,,,,,,,,,,,,,,,,,,,,,,,,,,,,
,,,,,V2_012,20,Female,2024-03-01_15h02.05.175,jersey_experiment_5_v2,2023.2.2,Win32,84.74576271,,,,,,,,,,,,,,,,74.9675,77.0615,77.0615,78.1792,return,0.2188,,69.66145833,0,2,2,49,1,FBP-YG-71.png,0.45,1.2,50,0.5,,,,,,,,,,,,,,,,,,,,,,,,,,,,,,,,,,,,,,,,,,,,,
,,,,,V2_012,20,Female,2024-03-01_15h02.05.175,jersey_experiment_5_v2,2023.2.2,Win32,84.74576271,,,,,,,,,,,,,,,,78.1794,80.2851,80.2852,81.7793,return,0.1332,,75.13020833,0,3,3,39,1,FBP-RB-18.png,0.45,1.2,40,0.5,,,,,,,,,,,,,,,,,,,,,,,,,,,,,,,,,,,,,,,,,,,,,
,,,,,V2_012,20,Female,2024-03-01_15h02.05.175,jersey_experiment_5_v2,2023.2.2,Win32,84.74576271,,,,,,,,,,,,,,,,81.7795,83.8735,83.8735,85.1324,return,0.1899,,15.49479167,0,4,4,21,1,FBP-OG-18.png,0.37,1.2,22,0.5,,,,,,,,,,,,,,,,,,,,,,,,,,,,,,,,,,,,,,,,,,,,,
,,,,,V2_012,20,Female,2024-03-01_15h02.05.175,jersey_experiment_5_v2,2023.2.2,Win32,84.74576271,,,,,,,,,,,,,,,,85.1327,87.2384,87.2385,88.2972,return,0.1888,,7.942708333,0,5,5,25,1,FBP-OG-19.png,0.35,1.2,26,0.5,,,,,,,,,,,,,,,,,,,,,,,,,,,,,,,,,,,,,,,,,,,,,
,,,,,V2_012,20,Female,2024-03-01_15h02.05.175,jersey_experiment_5_v2,2023.2.2,Win32,84.74576271,,,,,,,,,,,,,,,,88.2973,90.1445,90.1445,92.2502,return,0.5045,,91.40625,0,6,6,9,1,FBP-PT-18.png,0.45,1.2,10,0.25,,,,,,,,,,,,,,,,,,,,,,,,,,,,,,,,,,,,,,,,,,,,,
,,,,,V2_012,20,Female,2024-03-01_15h02.05.175,jersey_experiment_5_v2,2023.2.2,Win32,84.74576271,,,,,,,,,,,,,,,,92.2505,94.3447,94.3447,95.6857,return,0.1791,,7.03125,0,7,7,36,1,FBP-RB-18.png,0.37,1.2,37,0.5,,,,,,,,,,,,,,,,,,,,,,,,,,,,,,,,,,,,,,,,,,,,,
,,,,,V2_012,20,Female,2024-03-01_15h02.05.175,jersey_experiment_5_v2,2023.2.2,Win32,84.74576271,,,,,,,,,,,,,,,,95.6859,97.7799,97.7799,98.8505,return,0.217,,18.48958333,0,8,8,37,1,FBP-RB-18.png,0.4,1.2,38,0.5,,,,,,,,,,,,,,,,,,,,,,,,,,,,,,,,,,,,,,,,,,,,,
,,,,,V2_012,20,Female,2024-03-01_15h02.05.175,jersey_experiment_5_v2,2023.2.2,Win32,84.74576271,,,,,,,,,,,,,,,,98.8507,100.9449,100.9449,102.0506,return,0.1601,,75.390625,0,9,9,58,1,FBP-YG-91.png,0.43,1.2,59,0.5,,,,,,,,,,,,,,,,,,,,,,,,,,,,,,,,,,,,,,,,,,,,,
,,,,,V2_012,20,Female,2024-03-01_15h02.05.175,jersey_experiment_5_v2,2023.2.2,Win32,84.74576271,,,,,,,,,,,,,,,,102.0509,104.145,104.145,105.2508,return,0.2544,,44.921875,0,10,10,51,1,FBP-YG-81.png,0.37,1.2,52,0.5,,,,,,,,,,,,,,,,,,,,,,,,,,,,,,,,,,,,,,,,,,,,,
,,,,,V2_012,20,Female,2024-03-01_15h02.05.175,jersey_experiment_5_v2,2023.2.2,Win32,84.74576271,,,,,,,,,,,,,,,,105.251,107.1096,107.1097,108.1685,return,0.1794,,47.265625,0,11,11,2,1,FBP-PT-17.png,0.4,1.2,3,0.25,,,,,,,,,,,,,,,,,,,,,,,,,,,,,,,,,,,,,,,,,,,,,
,,,,,V2_012,20,Female,2024-03-01_15h02.05.175,jersey_experiment_5_v2,2023.2.2,Win32,84.74576271,,,,,,,,,,,,,,,,108.1688,110.0159,110.0159,111.2509,return,0.1598,,83.59375,0,12,12,3,1,FBP-PT-17.png,0.43,1.2,4,0.25,,,,,,,,,,,,,,,,,,,,,,,,,,,,,,,,,,,,,,,,,,,,,
,,,,,V2_012,20,Female,2024-03-01_15h02.05.175,jersey_experiment_5_v2,2023.2.2,Win32,84.74576271,,,,,,,,,,,,,,,,111.2511,113.3452,113.3453,114.3216,return,0.1965,,96.09375,0,13,13,29,1,FBP-OG-19.png,0.45,1.2,30,0.5,,,,,,,,,,,,,,,,,,,,,,,,,,,,,,,,,,,,,,,,,,,,,
,,,,,V2_012,20,Female,2024-03-01_15h02.05.175,jersey_experiment_5_v2,2023.2.2,Win32,84.74576271,,,,,,,,,,,,,,,,114.3218,116.4157,116.4159,118.0866,return,0.2729,,99.609375,0,14,14,19,1,FBP-OG-17.png,0.45,1.2,20,0.5,,,,,,,,,,,,,,,,,,,,,,,,,,,,,,,,,,,,,,,,,,,,,
,,,,,V2_012,20,Female,2024-03-01_15h02.05.175,jersey_experiment_5_v2,2023.2.2,Win32,84.74576271,,,,,,,,,,,,,,,,118.0868,120.1927,120.1927,122.1219,return,0.1311,,21.35416667,0,15,15,46,1,FBP-YG-71.png,0.37,1.2,47,0.5,,,,,,,,,,,,,,,,,,,,,,,,,,,,,,,,,,,,,,,,,,,,,
,,,,,V2_012,20,Female,2024-03-01_15h02.05.175,jersey_experiment_5_v2,2023.2.2,Win32,84.74576271,,,,,,,,,,,,,,,,122.1222,124.2162,124.2162,125.4044,return,0.447,,37.63020833,0,16,16,22,1,FBP-OG-18.png,0.4,1.2,23,0.5,,,,,,,,,,,,,,,,,,,,,,,,,,,,,,,,,,,,,,,,,,,,,
,,,,,V2_012,20,Female,2024-03-01_15h02.05.175,jersey_experiment_5_v2,2023.2.2,Win32,84.74576271,,,,,,,,,,,,,,,,125.4047,127.4988,127.4989,128.7458,return,0.2352,,33.46354167,0,17,17,42,1,FBP-RB-19.png,0.4,1.2,43,0.5,,,,,,,,,,,,,,,,,,,,,,,,,,,,,,,,,,,,,,,,,,,,,
,,,,,V2_012,20,Female,2024-03-01_15h02.05.175,jersey_experiment_5_v2,2023.2.2,Win32,84.74576271,,,,,,,,,,,,,,,,128.746,130.6045,130.6046,131.6517,return,0.2299,,2.734375,0,18,18,5,1,FBP-PT-18.png,0.35,1.2,6,0.25,,,,,,,,,,,,,,,,,,,,,,,,,,,,,,,,,,,,,,,,,,,,,
,,,,,V2_012,20,Female,2024-03-01_15h02.05.175,jersey_experiment_5_v2,2023.2.2,Win32,84.74576271,,,,,,,,,,,,,,,,131.652,133.746,133.746,135.205,return,0.145,,30.72916667,0,19,19,47,1,FBP-YG-71.png,0.4,1.2,48,0.5,,,,,,,,,,,,,,,,,,,,,,,,,,,,,,,,,,,,,,,,,,,,,
,,,,,V2_012,20,Female,2024-03-01_15h02.05.175,jersey_experiment_5_v2,2023.2.2,Win32,84.74576271,,,,,,,,,,,,,,,,135.2053,137.3108,137.3108,138.2284,return,0.1338,,16.27604167,0,20,20,56,1,FBP-YG-91.png,0.37,1.2,57,0.5,,,,,,,,,,,,,,,,,,,,,,,,,,,,,,,,,,,,,,,,,,,,,
,,,,,V2_012,20,Female,2024-03-01_15h02.05.175,jersey_experiment_5_v2,2023.2.2,Win32,84.74576271,,,,,,,,,,,,,,,,138.2285,140.3228,140.3228,141.8756,return,0.1711,,80.46875,0,21,21,59,1,FBP-YG-91.png,0.45,1.2,60,0.5,,,,,,,,,,,,,,,,,,,,,,,,,,,,,,,,,,,,,,,,,,,,,
,,,,,V2_012,20,Female,2024-03-01_15h02.05.175,jersey_experiment_5_v2,2023.2.2,Win32,84.74576271,,,,,,,,,,,,,,,,141.8758,143.723,143.723,144.8875,return,0.1765,,0.390625,0,22,22,0,1,FBP-PT-17.png,0.35,1.2,1,0.25,,,,,,,,,,,,,,,,,,,,,,,,,,,,,,,,,,,,,,,,,,,,,
,,,,,V2_012,20,Female,2024-03-01_15h02.05.175,jersey_experiment_5_v2,2023.2.2,Win32,84.74576271,,,,,,,,,,,,,,,,144.8876,146.9816,146.9816,149.9112,return,0.2839,,1.041666667,0,23,23,55,1,FBP-YG-91.png,0.35,1.2,56,0.5,,,,,,,,,,,,,,,,,,,,,,,,,,,,,,,,,,,,,,,,,,,,,
,,,,,V2_012,20,Female,2024-03-01_15h02.05.175,jersey_experiment_5_v2,2023.2.2,Win32,84.74576271,,,,,,,,,,,,,,,,149.9115,151.7583,151.7583,152.8525,return,0.0878,,20.57291667,0,24,24,6,1,FBP-PT-18.png,0.37,1.2,7,0.25,,,,,,,,,,,,,,,,,,,,,,,,,,,,,,,,,,,,,,,,,,,,,
,,,,,V2_012,20,Female,2024-03-01_15h02.05.175,jersey_experiment_5_v2,2023.2.2,Win32,84.74576271,,,,,,,,,,,,,,,,152.8528,154.9469,154.947,156.0525,return,0.2517,,1.692708333,0,25,25,40,1,FBP-RB-19.png,0.35,1.2,41,0.5,,,,,,,,,,,,,,,,,,,,,,,,,,,,,,,,,,,,,,,,,,,,,
,,,,,V2_012,20,Female,2024-03-01_15h02.05.175,jersey_experiment_5_v2,2023.2.2,Win32,84.74576271,,,,,,,,,,,,,,,,156.0527,158.147,158.1471,159.394,return,0.1954,,95.96354167,0,26,26,53,1,FBP-YG-81.png,0.43,1.2,54,0.5,,,,,,,,,,,,,,,,,,,,,,,,,,,,,,,,,,,,,,,,,,,,,
,,,,,V2_012,20,Female,2024-03-01_15h02.05.175,jersey_experiment_5_v2,2023.2.2,Win32,84.74576271,,,,,,,,,,,,,,,,159.3942,161.4883,161.4884,162.9941,return,0.8666,,25.26041667,0,27,27,41,1,FBP-RB-19.png,0.37,1.2,42,0.5,,,,,,,,,,,,,,,,,,,,,,,,,,,,,,,,,,,,,,,,,,,,,
,,,,,V2_012,20,Female,2024-03-01_15h02.05.175,jersey_experiment_5_v2,2023.2.2,Win32,84.74576271,,,,,,,,,,,,,,,,162.9943,164.8413,164.8413,165.9706,return,0.1721,,59.63541667,0,28,28,12,1,FBP-PT-19.png,0.4,1.2,13,0.25,,,,,,,,,,,,,,,,,,,,,,,,,,,,,,,,,,,,,,,,,,,,,
,,,,,V2_012,20,Female,2024-03-01_15h02.05.175,jersey_experiment_5_v2,2023.2.2,Win32,84.74576271,,,,,,,,,,,,,,,,165.9708,167.8177,167.8178,169.0412,return,0.2428,,91.14583333,0,29,29,8,1,FBP-PT-18.png,0.43,1.2,9,0.25,,,,,,,,,,,,,,,,,,,,,,,,,,,,,,,,,,,,,,,,,,,,,
,,,,,V2_012,20,Female,2024-03-01_15h02.05.175,jersey_experiment_5_v2,2023.2.2,Win32,84.74576271,,,,,,,,,,,,,,,,169.0415,171.1356,171.1357,173.6887,return,0.4483,,13.02083333,0,30,30,26,1,FBP-OG-19.png,0.37,1.2,27,0.5,,,,,,,,,,,,,,,,,,,,,,,,,,,,,,,,,,,,,,,,,,,,,
,,,,,V2_012,20,Female,2024-03-01_15h02.05.175,jersey_experiment_5_v2,2023.2.2,Win32,84.74576271,,,,,,,,,,,,,,,,173.6889,175.5358,175.5358,177.7827,return,1.2033,,8.463541667,0,31,31,10,1,FBP-PT-19.png,0.35,1.2,11,0.25,,,,,,,,,,,,,,,,,,,,,,,,,,,,,,,,,,,,,,,,,,,,,
,,,,,V2_012,20,Female,2024-03-01_15h02.05.175,jersey_experiment_5_v2,2023.2.2,Win32,84.74576271,,,,,,,,,,,,,,,,177.7829,179.877,179.877,180.8888,return,0.1054,,8.854166667,0,32,32,50,1,FBP-YG-81.png,0.35,1.2,51,0.5,,,,,,,,,,,,,,,,,,,,,,,,,,,,,,,,,,,,,,,,,,,,,
,,,,,V2_012,20,Female,2024-03-01_15h02.05.175,jersey_experiment_5_v2,2023.2.2,Win32,84.74576271,,,,,,,,,,,,,,,,180.889,182.9831,182.9831,185.8893,return,0.8445,,84.765625,0,33,33,54,1,FBP-YG-81.png,0.45,1.2,55,0.5,,,,,,,,,,,,,,,,,,,,,,,,,,,,,,,,,,,,,,,,,,,,,
,,,,,V2_012,20,Female,2024-03-01_15h02.05.175,jersey_experiment_5_v2,2023.2.2,Win32,84.74576271,,,,,,,,,,,,,,,,185.8894,187.7479,187.748,188.8185,return,0.1723,,99.609375,0,34,34,4,1,FBP-PT-17.png,0.45,1.2,5,0.25,,,,,,,,,,,,,,,,,,,,,,,,,,,,,,,,,,,,,,,,,,,,,
,,,,,V2_012,20,Female,2024-03-01_15h02.05.175,jersey_experiment_5_v2,2023.2.2,Win32,84.74576271,,,,,,,,,,,,,,,,188.8188,190.9127,190.9128,192.9482,return,1.053,,22.52604167,0,35,35,16,1,FBP-OG-17.png,0.37,1.2,17,0.5,,,,,,,,,,,,,,,,,,,,,,,,,,,,,,,,,,,,,,,,,,,,,
,,,,,V2_012,20,Female,2024-03-01_15h02.05.175,jersey_experiment_5_v2,2023.2.2,Win32,84.74576271,,,,,,,,,,,,,,,,192.9484,195.0423,195.0424,196.9718,return,0.1414,,78.90625,0,36,36,43,1,FBP-RB-19.png,0.43,1.2,44,0.5,,,,,,,,,,,,,,,,,,,,,,,,,,,,,,,,,,,,,,,,,,,,,
,,,,,V2_012,20,Female,2024-03-01_15h02.05.175,jersey_experiment_5_v2,2023.2.2,Win32,84.74576271,,,,,,,,,,,,,,,,196.9721,198.8308,198.8308,199.8307,return,0.1786,,52.34375,0,37,37,7,1,FBP-PT-18.png,0.4,1.2,8,0.25,,,,,,,,,,,,,,,,,,,,,,,,,,,,,,,,,,,,,,,,,,,,,
,,,,,V2_012,20,Female,2024-03-01_15h02.05.175,jersey_experiment_5_v2,2023.2.2,Win32,84.74576271,,,,,,,,,,,,,,,,199.8308,201.9248,201.9248,202.7602,return,0.1417,,38.41145833,0,38,38,30,1,FBP-RB-17.png,0.35,1.2,31,0.5,,,,,,,,,,,,,,,,,,,,,,,,,,,,,,,,,,,,,,,,,,,,,
,,,,,V2_012,20,Female,2024-03-01_15h02.05.175,jersey_experiment_5_v2,2023.2.2,Win32,84.74576271,,,,,,,,,,,,,,,,202.7604,204.8663,204.8663,206.0191,return,0.2659,,94.79166667,0,39,39,44,1,FBP-RB-19.png,0.45,1.2,45,0.5,,,,,,,,,,,,,,,,,,,,,,,,,,,,,,,,,,,,,,,,,,,,,
,,,,,V2_012,20,Female,2024-03-01_15h02.05.175,jersey_experiment_5_v2,2023.2.2,Win32,84.74576271,,,,,,,,,,,,,,,,206.0193,208.1133,208.1134,208.984,return,0.1522,,14.453125,0,40,40,45,1,FBP-YG-71.png,0.35,1.2,46,0.5,,,,,,,,,,,,,,,,,,,,,,,,,,,,,,,,,,,,,,,,,,,,,
,,,,,V2_012,20,Female,2024-03-01_15h02.05.175,jersey_experiment_5_v2,2023.2.2,Win32,84.74576271,,,,,,,,,,,,,,,,208.9841,211.0781,211.0782,213.9724,return,1.1921,,49.21875,0,41,41,23,1,FBP-OG-18.png,0.43,1.2,24,0.5,,,,,,,,,,,,,,,,,,,,,,,,,,,,,,,,,,,,,,,,,,,,,
,,,,,V2_012,20,Female,2024-03-01_15h02.05.175,jersey_experiment_5_v2,2023.2.2,Win32,84.74576271,,,,,,,,,,,,,,,,213.9726,215.8197,215.8198,216.6783,return,0.084,,80.46875,0,42,42,14,1,FBP-PT-19.png,0.45,1.2,15,0.25,,,,,,,,,,,,,,,,,,,,,,,,,,,,,,,,,,,,,,,,,,,,,
,,,,,V2_012,20,Female,2024-03-01_15h02.05.175,jersey_experiment_5_v2,2023.2.2,Win32,84.74576271,,,,,,,,,,,,,,,,216.6784,218.7844,218.7844,219.7373,return,0.1181,,85.546875,0,43,43,48,1,FBP-YG-71.png,0.43,1.2,49,0.5,,,,,,,,,,,,,,,,,,,,,,,,,,,,,,,,,,,,,,,,,,,,,
,,,,,V2_012,20,Female,2024-03-01_15h02.05.175,jersey_experiment_5_v2,2023.2.2,Win32,84.74576271,,,,,,,,,,,,,,,,219.7375,221.8317,221.8317,222.9375,return,0.1414,,60.67708333,0,44,44,52,1,FBP-YG-81.png,0.4,1.2,53,0.5,,,,,,,,,,,,,,,,,,,,,,,,,,,,,,,,,,,,,,,,,,,,,
,,,,,V2_012,20,Female,2024-03-01_15h02.05.175,jersey_experiment_5_v2,2023.2.2,Win32,84.74576271,,,,,,,,,,,,,,,,222.9376,224.7849,224.7849,227.5963,return,1.2,,12.36979167,0,45,45,1,1,FBP-PT-17.png,0.37,1.2,2,0.25,,,,,,,,,,,,,,,,,,,,,,,,,,,,,,,,,,,,,,,,,,,,,
,,,,,V2_012,20,Female,2024-03-01_15h02.05.175,jersey_experiment_5_v2,2023.2.2,Win32,84.74576271,,,,,,,,,,,,,,,,227.5965,229.6907,229.6907,230.9378,return,0.1281,,36.84895833,0,46,46,27,1,FBP-OG-19.png,0.4,1.2,28,0.5,,,,,,,,,,,,,,,,,,,,,,,,,,,,,,,,,,,,,,,,,,,,,
,,,,,V2_012,20,Female,2024-03-01_15h02.05.175,jersey_experiment_5_v2,2023.2.2,Win32,84.74576271,,,,,,,,,,,,,,,,230.9379,233.0319,233.0319,233.7849,return,0.1897,,36.58854167,0,47,47,32,1,FBP-RB-17.png,0.4,1.2,33,0.5,,,,,,,,,,,,,,,,,,,,,,,,,,,,,,,,,,,,,,,,,,,,,
,,,,,V2_012,20,Female,2024-03-01_15h02.05.175,jersey_experiment_5_v2,2023.2.2,Win32,84.74576271,,,,,,,,,,,,,,,,233.7853,235.8908,235.8908,237.2909,return,0.1048,,63.93229167,0,48,48,34,1,FBP-RB-17.png,0.45,1.2,35,0.5,,,,,,,,,,,,,,,,,,,,,,,,,,,,,,,,,,,,,,,,,,,,,
,,,,,V2_012,20,Female,2024-03-01_15h02.05.175,jersey_experiment_5_v2,2023.2.2,Win32,84.74576271,,,,,,,,,,,,,,,,237.2911,239.385,239.3851,240.5144,return,0.0651,,71.74479167,0,49,49,33,1,FBP-RB-17.png,0.43,1.2,34,0.5,,,,,,,,,,,,,,,,,,,,,,,,,,,,,,,,,,,,,,,,,,,,,
,,,,,V2_012,20,Female,2024-03-01_15h02.05.175,jersey_experiment_5_v2,2023.2.2,Win32,84.74576271,,,,,,,,,,,,,,,,240.5146,242.3617,242.3618,244.0557,return,0.1421,,24.73958333,0,50,50,11,1,FBP-PT-19.png,0.37,1.2,12,0.25,,,,,,,,,,,,,,,,,,,,,,,,,,,,,,,,,,,,,,,,,,,,,
,,,,,V2_012,20,Female,2024-03-01_15h02.05.175,jersey_experiment_5_v2,2023.2.2,Win32,84.74576271,,,,,,,,,,,,,,,,244.0561,246.1619,246.1619,247.3031,return,0.179,,87.23958333,0,51,51,38,1,FBP-RB-18.png,0.43,1.2,39,0.5,,,,,,,,,,,,,,,,,,,,,,,,,,,,,,,,,,,,,,,,,,,,,
,,,,,V2_012,20,Female,2024-03-01_15h02.05.175,jersey_experiment_5_v2,2023.2.2,Win32,84.74576271,,,,,,,,,,,,,,,,247.3034,249.4089,249.4089,250.5384,return,0.0811,,31.11979167,0,52,52,20,1,FBP-OG-18.png,0.35,1.2,21,0.5,,,,,,,,,,,,,,,,,,,,,,,,,,,,,,,,,,,,,,,,,,,,,
,,,,,V2_012,20,Female,2024-03-01_15h02.05.175,jersey_experiment_5_v2,2023.2.2,Win32,84.74576271,,,,,,,,,,,,,,,,250.5386,252.6328,252.6328,253.6563,return,0.1188,,78.90625,0,53,53,28,1,FBP-OG-19.png,0.43,1.2,29,0.5,,,,,,,,,,,,,,,,,,,,,,,,,,,,,,,,,,,,,,,,,,,,,
,,,,,V2_012,20,Female,2024-03-01_15h02.05.175,jersey_experiment_5_v2,2023.2.2,Win32,84.74576271,,,,,,,,,,,,,,,,253.6565,255.7504,255.7505,259.08,return,2.2239,,99.609375,0,54,54,24,1,FBP-OG-18.png,0.45,1.2,25,0.5,,,,,,,,,,,,,,,,,,,,,,,,,,,,,,,,,,,,,,,,,,,,,
,,,,,V2_012,20,Female,2024-03-01_15h02.05.175,jersey_experiment_5_v2,2023.2.2,Win32,84.74576271,,,,,,,,,,,,,,,,259.0801,261.1742,261.1743,262.8565,return,0.1551,,68.09895833,0,55,55,17,1,FBP-OG-17.png,0.4,1.2,18,0.5,,,,,,,,,,,,,,,,,,,,,,,,,,,,,,,,,,,,,,,,,,,,,
,,,,,V2_012,20,Female,2024-03-01_15h02.05.175,jersey_experiment_5_v2,2023.2.2,Win32,84.74576271,,,,,,,,,,,,,,,,262.8567,264.9509,264.9509,266.2919,return,0.0881,,27.60416667,0,56,56,15,1,FBP-OG-17.png,0.35,1.2,16,0.5,,,,,,,,,,,,,,,,,,,,,,,,,,,,,,,,,,,,,,,,,,,,,
,,,,,V2_012,20,Female,2024-03-01_15h02.05.175,jersey_experiment_5_v2,2023.2.2,Win32,84.74576271,,,,,,,,,,,,,,,,266.2921,268.3864,268.3864,269.5156,return,0.3441,,32.8125,0,57,57,31,1,FBP-RB-17.png,0.37,1.2,32,0.5,,,,,,,,,,,,,,,,,,,,,,,,,,,,,,,,,,,,,,,,,,,,,
,,,,,V2_012,20,Female,2024-03-01_15h02.05.175,jersey_experiment_5_v2,2023.2.2,Win32,84.74576271,,,,,,,,,,,,,,,,269.5159,271.61,271.61,272.6098,return,0.0882,,92.70833333,0,58,58,18,1,FBP-OG-17.png,0.43,1.2,19,0.5,,,,,,,,,,,,,,,,,,,,,,,,,,,,,,,,,,,,,,,,,,,,,
,,,,,V2_012,20,Female,2024-03-01_15h02.05.175,jersey_experiment_5_v2,2023.2.2,Win32,84.74576271,,,,,,,,,,,,,,,,272.61,274.704,274.7041,276.4923,return,0.6679,,75.13020833,0,59,59,57,1,FBP-YG-91.png,0.4,1.2,58,0.5,,,,,,,,,,,,,,,,,,,,,,,,,,,,,,,,,,,,,,,,,,,,,
,,,,,V2_012,20,Female,2024-03-01_15h02.05.175,jersey_experiment_5_v2,2023.2.2,Win32,84.74576271,,,,,,,,,,,,,,,,276.4945,278.3512,278.3512,280.1514,return,0.1426,,83.59375,,,,,,FBP-PT-91.png,0.4,1.2,13,0.25,0,0,0,12,1,,,,,,,,,,,,,,,,,,,,,,,,,,,,,,,,,,,,,,,,
,,,,,V2_012,20,Female,2024-03-01_15h02.05.175,jersey_experiment_5_v2,2023.2.2,Win32,84.74576271,,,,,,,,,,,,,,,,280.1516,282.2573,282.2573,284.6338,return,0.1419,,27.86458333,,,,,,FBP-RB-91.png,0.35,1.2,41,0.5,0,1,1,40,1,,,,,,,,,,,,,,,,,,,,,,,,,,,,,,,,,,,,,,,,
,,,,,V2_012,20,Female,2024-03-01_15h02.05.175,jersey_experiment_5_v2,2023.2.2,Win32,84.74576271,,,,,,,,,,,,,,,,284.634,286.7281,286.7282,287.9751,return,0.2016,,80.46875,,,,,,FBP-OG-91.png,0.43,1.2,29,0.5,0,2,2,28,1,,,,,,,,,,,,,,,,,,,,,,,,,,,,,,,,,,,,,,,,
,,,,,V2_012,20,Female,2024-03-01_15h02.05.175,jersey_experiment_5_v2,2023.2.2,Win32,84.74576271,,,,,,,,,,,,,,,,287.9754,290.0694,290.0694,291.7165,return,0.5933,,42.96875,,,,,,FBP-RB-81.png,0.35,1.2,36,0.5,0,3,3,35,1,,,,,,,,,,,,,,,,,,,,,,,,,,,,,,,,,,,,,,,,
,,,,,V2_012,20,Female,2024-03-01_15h02.05.175,jersey_experiment_5_v2,2023.2.2,Win32,84.74576271,,,,,,,,,,,,,,,,291.7166,293.5637,293.5638,295.2108,return,0.1419,,32.421875,,,,,,FBP-PT-91.png,0.37,1.2,12,0.25,0,4,4,11,1,,,,,,,,,,,,,,,,,,,,,,,,,,,,,,,,,,,,,,,,
,,,,,V2_012,20,Female,2024-03-01_15h02.05.175,jersey_experiment_5_v2,2023.2.2,Win32,84.74576271,,,,,,,,,,,,,,,,295.2109,297.3049,297.305,299.0343,return,0.1884,,85.546875,,,,,,FBP-OG-91.png,0.45,1.2,30,0.5,0,5,5,29,1,,,,,,,,,,,,,,,,,,,,,,,,,,,,,,,,,,,,,,,,
,,,,,V2_012,20,Female,2024-03-01_15h02.05.175,jersey_experiment_5_v2,2023.2.2,Win32,84.74576271,,,,,,,,,,,,,,,,299.0345,301.1287,301.1287,302.211,return,0.1818,,75.65104167,,,,,,FBP-RB-71.png,0.4,1.2,33,0.5,0,6,6,32,1,,,,,,,,,,,,,,,,,,,,,,,,,,,,,,,,,,,,,,,,
,,,,,V2_012,20,Female,2024-03-01_15h02.05.175,jersey_experiment_5_v2,2023.2.2,Win32,84.74576271,,,,,,,,,,,,,,,,302.2111,304.3052,304.3052,305.5757,return,0.2011,,98.828125,,,,,,FBP-YG-18.png,0.45,1.2,55,0.5,0,7,7,54,1,,,,,,,,,,,,,,,,,,,,,,,,,,,,,,,,,,,,,,,,
,,,,,V2_012,20,Female,2024-03-01_15h02.05.175,jersey_experiment_5_v2,2023.2.2,Win32,84.74576271,,,,,,,,,,,,,,,,305.5759,307.6819,307.6819,308.9406,return,0.1177,,48.56770833,,,,,,FBP-YG-19.png,0.37,1.2,57,0.5,0,8,8,56,1,,,,,,,,,,,,,,,,,,,,,,,,,,,,,,,,,,,,,,,,
,,,,,V2_012,20,Female,2024-03-01_15h02.05.175,jersey_experiment_5_v2,2023.2.2,Win32,84.74576271,,,,,,,,,,,,,,,,308.9407,311.0349,311.0349,311.929,return,0.1059,,84.89583333,,,,,,FBP-RB-71.png,0.43,1.2,34,0.5,0,9,9,33,1,,,,,,,,,,,,,,,,,,,,,,,,,,,,,,,,,,,,,,,,
,,,,,V2_012,20,Female,2024-03-01_15h02.05.175,jersey_experiment_5_v2,2023.2.2,Win32,84.74576271,,,,,,,,,,,,,,,,311.9292,314.0232,314.0232,315.2349,return,0.1471,,84.89583333,,,,,,FBP-OG-81.png,0.43,1.2,24,0.5,0,10,10,23,1,,,,,,,,,,,,,,,,,,,,,,,,,,,,,,,,,,,,,,,,
,,,,,V2_012,20,Female,2024-03-01_15h02.05.175,jersey_experiment_5_v2,2023.2.2,Win32,84.74576271,,,,,,,,,,,,,,,,315.2352,317.3292,317.3292,320.9529,return,0.79,,32.68229167,,,,,,FBP-YG-18.png,0.35,1.2,51,0.5,0,11,11,50,1,,,,,,,,,,,,,,,,,,,,,,,,,,,,,,,,,,,,,,,,
,,,,,V2_012,20,Female,2024-03-01_15h02.05.175,jersey_experiment_5_v2,2023.2.2,Win32,84.74576271,,,,,,,,,,,,,,,,320.9531,322.8117,322.8118,324.8118,return,0.1654,,18.61979167,,,,,,FBP-PT-71.png,0.35,1.2,1,0.25,0,12,12,0,1,,,,,,,,,,,,,,,,,,,,,,,,,,,,,,,,,,,,,,,,
,,,,,V2_012,20,Female,2024-03-01_15h02.05.175,jersey_experiment_5_v2,2023.2.2,Win32,84.74576271,,,,,,,,,,,,,,,,324.8121,326.9061,326.9061,329.5884,return,0.2528,,92.05729167,,,,,,FBP-RB-91.png,0.45,1.2,45,0.5,0,13,13,44,1,,,,,,,,,,,,,,,,,,,,,,,,,,,,,,,,,,,,,,,,
,,,,,V2_012,20,Female,2024-03-01_15h02.05.175,jersey_experiment_5_v2,2023.2.2,Win32,84.74576271,,,,,,,,,,,,,,,,329.5885,331.6827,331.6827,333.0356,return,0.1413,,71.484375,,,,,,FBP-YG-18.png,0.4,1.2,53,0.5,0,14,14,52,1,,,,,,,,,,,,,,,,,,,,,,,,,,,,,,,,,,,,,,,,
,,,,,V2_012,20,Female,2024-03-01_15h02.05.175,jersey_experiment_5_v2,2023.2.2,Win32,84.74576271,,,,,,,,,,,,,,,,333.0358,334.8828,334.8828,336.0239,return,0.1521,,77.60416667,,,,,,FBP-PT-71.png,0.43,1.2,4,0.25,0,15,15,3,1,,,,,,,,,,,,,,,,,,,,,,,,,,,,,,,,,,,,,,,,
,,,,,V2_012,20,Female,2024-03-01_15h02.05.175,jersey_experiment_5_v2,2023.2.2,Win32,84.74576271,,,,,,,,,,,,,,,,336.0241,338.1181,338.1181,339.0123,return,0.1569,,77.734375,,,,,,FBP-RB-91.png,0.4,1.2,43,0.5,0,16,16,42,1,,,,,,,,,,,,,,,,,,,,,,,,,,,,,,,,,,,,,,,,
,,,,,V2_012,20,Female,2024-03-01_15h02.05.175,jersey_experiment_5_v2,2023.2.2,Win32,84.74576271,,,,,,,,,,,,,,,,339.0124,341.1066,341.1066,342.2478,return,0.1316,,7.8125,,,,,,FBP-YG-17.png,0.35,1.2,46,0.5,0,17,17,45,1,,,,,,,,,,,,,,,,,,,,,,,,,,,,,,,,,,,,,,,,
,,,,,V2_012,20,Female,2024-03-01_15h02.05.175,jersey_experiment_5_v2,2023.2.2,Win32,84.74576271,,,,,,,,,,,,,,,,342.2479,344.3421,344.3421,345.3184,return,0.0974,,7.8125,,,,,,FBP-RB-71.png,0.35,1.2,31,0.5,0,18,18,30,1,,,,,,,,,,,,,,,,,,,,,,,,,,,,,,,,,,,,,,,,
,,,,,V2_012,20,Female,2024-03-01_15h02.05.175,jersey_experiment_5_v2,2023.2.2,Win32,84.74576271,,,,,,,,,,,,,,,,345.3186,347.4127,347.4127,348.4244,return,0.2133,,55.078125,,,,,,FBP-RB-81.png,0.4,1.2,38,0.5,0,19,19,37,1,,,,,,,,,,,,,,,,,,,,,,,,,,,,,,,,,,,,,,,,
,,,,,V2_012,20,Female,2024-03-01_15h02.05.175,jersey_experiment_5_v2,2023.2.2,Win32,84.74576271,,,,,,,,,,,,,,,,348.4246,350.5304,350.5304,351.3304,return,0.1136,,57.03125,,,,,,FBP-YG-18.png,0.37,1.2,52,0.5,0,20,20,51,1,,,,,,,,,,,,,,,,,,,,,,,,,,,,,,,,,,,,,,,,
,,,,,V2_012,20,Female,2024-03-01_15h02.05.175,jersey_experiment_5_v2,2023.2.2,Win32,84.74576271,,,,,,,,,,,,,,,,351.3306,353.4246,353.4246,354.0245,return,0.1043,,57.55208333,,,,,,FBP-RB-81.png,0.37,1.2,37,0.5,0,21,21,36,1,,,,,,,,,,,,,,,,,,,,,,,,,,,,,,,,,,,,,,,,
,,,,,V2_012,20,Female,2024-03-01_15h02.05.175,jersey_experiment_5_v2,2023.2.2,Win32,84.74576271,,,,,,,,,,,,,,,,354.0247,356.1306,356.1306,357.201,return,0.2312,,74.47916667,,,,,,FBP-OG-81.png,0.4,1.2,23,0.5,0,22,22,22,1,,,,,,,,,,,,,,,,,,,,,,,,,,,,,,,,,,,,,,,,
,,,,,V2_012,20,Female,2024-03-01_15h02.05.175,jersey_experiment_5_v2,2023.2.2,Win32,84.74576271,,,,,,,,,,,,,,,,357.2013,359.3073,359.3074,360.4367,return,0.1454,,88.93229167,,,,,,FBP-RB-91.png,0.43,1.2,44,0.5,0,23,23,43,1,,,,,,,,,,,,,,,,,,,,,,,,,,,,,,,,,,,,,,,,
,,,,,V2_012,20,Female,2024-03-01_15h02.05.175,jersey_experiment_5_v2,2023.2.2,Win32,84.74576271,,,,,,,,,,,,,,,,360.4369,362.5309,362.5309,363.3189,return,0.178,,75.52083333,,,,,,FBP-OG-91.png,0.4,1.2,28,0.5,0,24,24,27,1,,,,,,,,,,,,,,,,,,,,,,,,,,,,,,,,,,,,,,,,
,,,,,V2_012,20,Female,2024-03-01_15h02.05.175,jersey_experiment_5_v2,2023.2.2,Win32,84.74576271,,,,,,,,,,,,,,,,363.3191,365.4134,365.4134,366.2486,return,0.1309,,57.8125,,,,,,FBP-OG-81.png,0.37,1.2,22,0.5,0,25,25,21,1,,,,,,,,,,,,,,,,,,,,,,,,,,,,,,,,,,,,,,,,
,,,,,V2_012,20,Female,2024-03-01_15h02.05.175,jersey_experiment_5_v2,2023.2.2,Win32,84.74576271,,,,,,,,,,,,,,,,366.2489,368.343,368.3431,369.3311,return,0.207,,34.89583333,,,,,,FBP-OG-81.png,0.35,1.2,21,0.5,0,26,26,20,1,,,,,,,,,,,,,,,,,,,,,,,,,,,,,,,,,,,,,,,,
,,,,,V2_012,20,Female,2024-03-01_15h02.05.175,jersey_experiment_5_v2,2023.2.2,Win32,84.74576271,,,,,,,,,,,,,,,,369.3313,371.4253,371.4254,372.2488,return,0.1771,,35.15625,,,,,,FBP-OG-71.png,0.35,1.2,16,0.5,0,27,27,15,1,,,,,,,,,,,,,,,,,,,,,,,,,,,,,,,,,,,,,,,,
,,,,,V2_012,20,Female,2024-03-01_15h02.05.175,jersey_experiment_5_v2,2023.2.2,Win32,84.74576271,,,,,,,,,,,,,,,,372.2491,374.3547,374.3547,379.4021,return,2.1893,,68.359375,,,,,,FBP-YG-17.png,0.4,1.2,48,0.5,0,28,28,47,1,,,,,,,,,,,,,,,,,,,,,,,,,,,,,,,,,,,,,,,,
,,,,,V2_012,20,Female,2024-03-01_15h02.05.175,jersey_experiment_5_v2,2023.2.2,Win32,84.74576271,,,,,,,,,,,,,,,,379.4024,381.4963,381.4963,384.7434,return,0.9418,,69.921875,,,,,,FBP-OG-71.png,0.4,1.2,18,0.5,0,29,29,17,1,,,,,,,,,,,,,,,,,,,,,,,,,,,,,,,,,,,,,,,,
,,,,,V2_012,20,Female,2024-03-01_15h02.05.175,jersey_experiment_5_v2,2023.2.2,Win32,84.74576271,,,,,,,,,,,,,,,,384.7436,386.8378,386.8378,388.0024,return,0.1723,,98.4375,,,,,,FBP-RB-81.png,0.45,1.2,40,0.5,0,30,30,39,1,,,,,,,,,,,,,,,,,,,,,,,,,,,,,,,,,,,,,,,,
,,,,,V2_012,20,Female,2024-03-01_15h02.05.175,jersey_experiment_5_v2,2023.2.2,Win32,84.74576271,,,,,,,,,,,,,,,,388.0026,390.0967,390.0967,391.6494,return,0.6297,,98.4375,,,,,,FBP-YG-17.png,0.45,1.2,50,0.5,0,31,31,49,1,,,,,,,,,,,,,,,,,,,,,,,,,,,,,,,,,,,,,,,,
,,,,,V2_012,20,Female,2024-03-01_15h02.05.175,jersey_experiment_5_v2,2023.2.2,Win32,84.74576271,,,,,,,,,,,,,,,,391.6496,393.7438,393.7438,394.6263,return,0.1609,,99.47916667,,,,,,FBP-OG-71.png,0.45,1.2,20,0.5,0,32,32,19,1,,,,,,,,,,,,,,,,,,,,,,,,,,,,,,,,,,,,,,,,
,,,,,V2_012,20,Female,2024-03-01_15h02.05.175,jersey_experiment_5_v2,2023.2.2,Win32,84.74576271,,,,,,,,,,,,,,,,394.6265,396.7206,396.7206,397.6262,return,0.1991,,82.94270833,,,,,,FBP-YG-18.png,0.43,1.2,54,0.5,0,33,33,53,1,,,,,,,,,,,,,,,,,,,,,,,,,,,,,,,,,,,,,,,,
,,,,,V2_012,20,Female,2024-03-01_15h02.05.175,jersey_experiment_5_v2,2023.2.2,Win32,84.74576271,,,,,,,,,,,,,,,,397.6264,399.7206,399.7206,402.1793,return,0.1126,,50,,,,,,FBP-OG-91.png,0.37,1.2,27,0.5,0,34,34,26,1,,,,,,,,,,,,,,,,,,,,,,,,,,,,,,,,,,,,,,,,
,,,,,V2_012,20,Female,2024-03-01_15h02.05.175,jersey_experiment_5_v2,2023.2.2,Win32,84.74576271,,,,,,,,,,,,,,,,402.1796,404.2736,404.2736,406.3323,return,1.2707,,90.625,,,,,,FBP-RB-71.png,0.45,1.2,35,0.5,0,35,35,34,1,,,,,,,,,,,,,,,,,,,,,,,,,,,,,,,,,,,,,,,,
,,,,,V2_012,20,Female,2024-03-01_15h02.05.175,jersey_experiment_5_v2,2023.2.2,Win32,84.74576271,,,,,,,,,,,,,,,,406.3326,408.4268,408.4268,411.2267,return,1.5167,,46.09375,,,,,,FBP-OG-71.png,0.37,1.2,17,0.5,0,36,36,16,1,,,,,,,,,,,,,,,,,,,,,,,,,,,,,,,,,,,,,,,,
,,,,,V2_012,20,Female,2024-03-01_15h02.05.175,jersey_experiment_5_v2,2023.2.2,Win32,84.74576271,,,,,,,,,,,,,,,,411.2269,413.3209,413.3209,414.121,return,0.1291,,24.73958333,,,,,,FBP-OG-91.png,0.35,1.2,26,0.5,0,37,37,25,1,,,,,,,,,,,,,,,,,,,,,,,,,,,,,,,,,,,,,,,,
,,,,,V2_012,20,Female,2024-03-01_15h02.05.175,jersey_experiment_5_v2,2023.2.2,Win32,84.74576271,,,,,,,,,,,,,,,,414.1211,415.9682,415.9682,417.4976,return,0.1777,,69.79166667,,,,,,FBP-PT-91.png,0.43,1.2,14,0.25,0,38,38,13,1,,,,,,,,,,,,,,,,,,,,,,,,,,,,,,,,,,,,,,,,
,,,,,V2_012,20,Female,2024-03-01_15h02.05.175,jersey_experiment_5_v2,2023.2.2,Win32,84.74576271,,,,,,,,,,,,,,,,417.4978,419.3447,419.3447,421.58,return,0.3169,,25.26041667,,,,,,FBP-PT-81.png,0.37,1.2,7,0.25,0,39,39,6,1,,,,,,,,,,,,,,,,,,,,,,,,,,,,,,,,,,,,,,,,
,,,,,V2_012,20,Female,2024-03-01_15h02.05.175,jersey_experiment_5_v2,2023.2.2,Win32,84.74576271,,,,,,,,,,,,,,,,421.5803,423.6743,423.6744,427.5213,return,0.1015,,44.40104167,,,,,,FBP-RB-91.png,0.37,1.2,42,0.5,0,40,40,41,1,,,,,,,,,,,,,,,,,,,,,,,,,,,,,,,,,,,,,,,,
,,,,,V2_012,20,Female,2024-03-01_15h02.05.175,jersey_experiment_5_v2,2023.2.2,Win32,84.74576271,,,,,,,,,,,,,,,,427.5216,429.6156,429.6156,430.5449,return,0.1501,,44.66145833,,,,,,FBP-YG-17.png,0.37,1.2,47,0.5,0,41,41,46,1,,,,,,,,,,,,,,,,,,,,,,,,,,,,,,,,,,,,,,,,
,,,,,V2_012,20,Female,2024-03-01_15h02.05.175,jersey_experiment_5_v2,2023.2.2,Win32,84.74576271,,,,,,,,,,,,,,,,430.5451,432.6392,432.6393,434.2511,return,0.1181,,48.69791667,,,,,,FBP-RB-71.png,0.37,1.2,32,0.5,0,42,42,31,1,,,,,,,,,,,,,,,,,,,,,,,,,,,,,,,,,,,,,,,,
,,,,,V2_012,20,Female,2024-03-01_15h02.05.175,jersey_experiment_5_v2,2023.2.2,Win32,84.74576271,,,,,,,,,,,,,,,,434.2513,436.0983,436.0984,437.0512,return,0.1179,,18.48958333,,,,,,FBP-PT-81.png,0.35,1.2,6,0.25,0,43,43,5,1,,,,,,,,,,,,,,,,,,,,,,,,,,,,,,,,,,,,,,,,
,,,,,V2_012,20,Female,2024-03-01_15h02.05.175,jersey_experiment_5_v2,2023.2.2,Win32,84.74576271,,,,,,,,,,,,,,,,437.0516,439.1456,439.1456,440.6985,return,0.2021,,75.52083333,,,,,,FBP-OG-81.png,0.45,1.2,25,0.5,0,44,44,24,1,,,,,,,,,,,,,,,,,,,,,,,,,,,,,,,,,,,,,,,,
,,,,,V2_012,20,Female,2024-03-01_15h02.05.175,jersey_experiment_5_v2,2023.2.2,Win32,84.74576271,,,,,,,,,,,,,,,,440.6986,442.5572,442.5572,443.3455,return,0.0894,,79.6875,,,,,,FBP-PT-71.png,0.4,1.2,3,0.25,0,45,45,2,1,,,,,,,,,,,,,,,,,,,,,,,,,,,,,,,,,,,,,,,,
,,,,,V2_012,20,Female,2024-03-01_15h02.05.175,jersey_experiment_5_v2,2023.2.2,Win32,84.74576271,,,,,,,,,,,,,,,,443.3458,445.4515,445.4515,446.4749,return,0.1176,,89.453125,,,,,,FBP-OG-71.png,0.43,1.2,19,0.5,0,46,46,18,1,,,,,,,,,,,,,,,,,,,,,,,,,,,,,,,,,,,,,,,,
,,,,,V2_012,20,Female,2024-03-01_15h02.05.175,jersey_experiment_5_v2,2023.2.2,Win32,84.74576271,,,,,,,,,,,,,,,,446.4751,448.334,448.334,449.9693,return,0.2791,,99.47916667,,,,,,FBP-PT-71.png,0.45,1.2,5,0.25,0,47,47,4,1,,,,,,,,,,,,,,,,,,,,,,,,,,,,,,,,,,,,,,,,
,,,,,V2_012,20,Female,2024-03-01_15h02.05.175,jersey_experiment_5_v2,2023.2.2,Win32,84.74576271,,,,,,,,,,,,,,,,449.9695,451.8166,451.8166,453.0519,return,0.3789,,99.86979167,,,,,,FBP-PT-91.png,0.45,1.2,15,0.25,0,48,48,14,1,,,,,,,,,,,,,,,,,,,,,,,,,,,,,,,,,,,,,,,,
,,,,,V2_012,20,Female,2024-03-01_15h02.05.175,jersey_experiment_5_v2,2023.2.2,Win32,84.74576271,,,,,,,,,,,,,,,,453.0521,454.899,454.899,456.0284,return,0.1501,,77.99479167,,,,,,FBP-PT-81.png,0.4,1.2,8,0.25,0,49,49,7,1,,,,,,,,,,,,,,,,,,,,,,,,,,,,,,,,,,,,,,,,
,,,,,V2_012,20,Female,2024-03-01_15h02.05.175,jersey_experiment_5_v2,2023.2.2,Win32,84.74576271,,,,,,,,,,,,,,,,456.0287,458.1226,458.1227,459.9226,return,0.3018,,28.64583333,,,,,,FBP-YG-19.png,0.35,1.2,56,0.5,0,50,50,55,1,,,,,,,,,,,,,,,,,,,,,,,,,,,,,,,,,,,,,,,,
,,,,,V2_012,20,Female,2024-03-01_15h02.05.175,jersey_experiment_5_v2,2023.2.2,Win32,84.74576271,,,,,,,,,,,,,,,,459.9229,462.0286,462.0286,462.8875,return,0.1316,,90.625,,,,,,FBP-YG-19.png,0.45,1.2,60,0.5,0,51,51,59,1,,,,,,,,,,,,,,,,,,,,,,,,,,,,,,,,,,,,,,,,
,,,,,V2_012,20,Female,2024-03-01_15h02.05.175,jersey_experiment_5_v2,2023.2.2,Win32,84.74576271,,,,,,,,,,,,,,,,462.8877,464.9816,464.9816,466.1934,return,0.1965,,90.234375,,,,,,FBP-YG-19.png,0.4,1.2,58,0.5,0,52,52,57,1,,,,,,,,,,,,,,,,,,,,,,,,,,,,,,,,,,,,,,,,
,,,,,V2_012,20,Female,2024-03-01_15h02.05.175,jersey_experiment_5_v2,2023.2.2,Win32,84.74576271,,,,,,,,,,,,,,,,466.1936,468.0408,468.0408,468.9231,return,0.1408,,99.609375,,,,,,FBP-PT-81.png,0.45,1.2,10,0.25,0,53,53,9,1,,,,,,,,,,,,,,,,,,,,,,,,,,,,,,,,,,,,,,,,
,,,,,V2_012,20,Female,2024-03-01_15h02.05.175,jersey_experiment_5_v2,2023.2.2,Win32,84.74576271,,,,,,,,,,,,,,,,468.9233,470.7703,470.7703,471.782,return,0.1336,,74.73958333,,,,,,FBP-PT-81.png,0.43,1.2,9,0.25,0,54,54,8,1,,,,,,,,,,,,,,,,,,,,,,,,,,,,,,,,,,,,,,,,
,,,,,V2_012,20,Female,2024-03-01_15h02.05.175,jersey_experiment_5_v2,2023.2.2,Win32,84.74576271,,,,,,,,,,,,,,,,471.7822,473.8762,473.8762,474.6527,return,0.1074,,82.16145833,,,,,,FBP-YG-17.png,0.43,1.2,49,0.5,0,55,55,48,1,,,,,,,,,,,,,,,,,,,,,,,,,,,,,,,,,,,,,,,,
,,,,,V2_012,20,Female,2024-03-01_15h02.05.175,jersey_experiment_5_v2,2023.2.2,Win32,84.74576271,,,,,,,,,,,,,,,,474.6529,476.4998,476.4998,477.5468,return,0.1411,,24.47916667,,,,,,FBP-PT-71.png,0.37,1.2,2,0.25,0,56,56,1,1,,,,,,,,,,,,,,,,,,,,,,,,,,,,,,,,,,,,,,,,
,,,,,V2_012,20,Female,2024-03-01_15h02.05.175,jersey_experiment_5_v2,2023.2.2,Win32,84.74576271,,,,,,,,,,,,,,,,477.547,479.3939,479.394,480.4881,return,0.3662,,0.390625,,,,,,FBP-PT-91.png,0.35,1.2,11,0.25,0,57,57,10,1,,,,,,,,,,,,,,,,,,,,,,,,,,,,,,,,,,,,,,,,
,,,,,V2_012,20,Female,2024-03-01_15h02.05.175,jersey_experiment_5_v2,2023.2.2,Win32,84.74576271,,,,,,,,,,,,,,,,480.4883,482.594,482.5941,490.6413,return,6.8088,,78.25520833,,,,,,FBP-YG-19.png,0.43,1.2,59,0.5,0,58,58,58,1,,,,,,,,,,,,,,,,,,,,,,,,,,,,,,,,,,,,,,,,
,,,,,V2_012,20,Female,2024-03-01_15h02.05.175,jersey_experiment_5_v2,2023.2.2,Win32,84.74576271,,,,,,,,,,,,,,,,490.6457,492.7591,492.7591,494.4416,return,0.5872,,83.33333333,,,,,,FBP-RB-81.png,0.43,1.2,39,0.5,0,59,59,38,1,,,,,,,,,,,,,,,,,,,,,,,,,,,,,,,,,,,,,,,,
,,,,,V2_012,20,Female,2024-03-01_15h02.05.175,jersey_experiment_5_v2,2023.2.2,Win32,84.74576271,,,,,,,,,,,,,,,,,,,,,,,,,,,,,,,,,,,,,,,494.442,614.4345,,,,,,,,,,,,,,,,,,,,,,,,,,,,,,,,,,,,,,
,,,,,V2_012,20,Female,2024-03-01_15h02.05.175,jersey_experiment_5_v2,2023.2.2,Win32,84.74576271,,,,,,,,,,,,,,,,,,,,,,,,,,,,,,,,,,,,,,,,,614.4345,620.9171,return,6.4746,,,,,,,,,,,,,,,,,,,,,,,,,,,,,,,,,,
,,,,,V2_012,20,Female,2024-03-01_15h02.05.175,jersey_experiment_5_v2,2023.2.2,Win32,84.74576271,,,,,,,,,,,,,,,,620.9234,622.7874,622.7875,624.5875,return,0.6599,,62.5,,,,,,FBP-YG-91.png,0.45,1.2,60,0.25,,,,,,,,,,,,,0,0,0,59,1,,,,,,,,,,,,,,,,,,,,,,,,,,,,
,,,,,V2_012,20,Female,2024-03-01_15h02.05.175,jersey_experiment_5_v2,2023.2.2,Win32,84.74576271,,,,,,,,,,,,,,,,624.5877,626.6936,626.6936,628.0112,return,0.3635,,25.26041667,,,,,,FBP-PT-18.png,0.37,1.2,7,0.5,,,,,,,,,,,,,0,1,1,6,1,,,,,,,,,,,,,,,,,,,,,,,,,,,,
,,,,,V2_012,20,Female,2024-03-01_15h02.05.175,jersey_experiment_5_v2,2023.2.2,Win32,84.74576271,,,,,,,,,,,,,,,,628.0114,629.8584,629.8585,631.1877,return,0.1002,,81.640625,,,,,,FBP-YG-91.png,0.43,1.2,59,0.25,,,,,,,,,,,,,0,2,2,58,1,,,,,,,,,,,,,,,,,,,,,,,,,,,,
,,,,,V2_012,20,Female,2024-03-01_15h02.05.175,jersey_experiment_5_v2,2023.2.2,Win32,84.74576271,,,,,,,,,,,,,,,,631.188,633.0349,633.035,634.0701,return,0.1799,,67.83854167,,,,,,FBP-YG-81.png,0.4,1.2,53,0.25,,,,,,,,,,,,,0,3,3,52,1,,,,,,,,,,,,,,,,,,,,,,,,,,,,
,,,,,V2_012,20,Female,2024-03-01_15h02.05.175,jersey_experiment_5_v2,2023.2.2,Win32,84.74576271,,,,,,,,,,,,,,,,634.0705,635.9175,635.9175,636.6351,return,0.0608,,32.421875,,,,,,FBP-YG-81.png,0.35,1.2,51,0.25,,,,,,,,,,,,,0,4,4,50,1,,,,,,,,,,,,,,,,,,,,,,,,,,,,
,,,,,V2_012,20,Female,2024-03-01_15h02.05.175,jersey_experiment_5_v2,2023.2.2,Win32,84.74576271,,,,,,,,,,,,,,,,636.6353,638.4821,638.4822,639.4116,return,0.0745,,66.14583333,,,,,,FBP-YG-71.png,0.4,1.2,48,0.25,,,,,,,,,,,,,0,5,5,47,1,,,,,,,,,,,,,,,,,,,,,,,,,,,,
,,,,,V2_012,20,Female,2024-03-01_15h02.05.175,jersey_experiment_5_v2,2023.2.2,Win32,84.74576271,,,,,,,,,,,,,,,,639.4119,641.5175,641.5175,642.2823,return,0.0838,,29.16666667,,,,,,FBP-PT-18.png,0.35,1.2,6,0.5,,,,,,,,,,,,,0,6,6,5,1,,,,,,,,,,,,,,,,,,,,,,,,,,,,
,,,,,V2_012,20,Female,2024-03-01_15h02.05.175,jersey_experiment_5_v2,2023.2.2,Win32,84.74576271,,,,,,,,,,,,,,,,642.2825,644.1294,644.1294,644.7646,return,0.0802,,84.63541667,,,,,,FBP-OG-17.png,0.43,1.2,19,0.25,,,,,,,,,,,,,0,7,7,18,1,,,,,,,,,,,,,,,,,,,,,,,,,,,,
,,,,,V2_012,20,Female,2024-03-01_15h02.05.175,jersey_experiment_5_v2,2023.2.2,Win32,84.74576271,,,,,,,,,,,,,,,,644.7649,646.6235,646.6236,647.3178,return,0.0956,,92.578125,,,,,,FBP-YG-81.png,0.45,1.2,55,0.25,,,,,,,,,,,,,0,8,8,54,1,,,,,,,,,,,,,,,,,,,,,,,,,,,,
,,,,,V2_012,20,Female,2024-03-01_15h02.05.175,jersey_experiment_5_v2,2023.2.2,Win32,84.74576271,,,,,,,,,,,,,,,,647.318,649.1767,649.1767,649.8826,return,0.0614,,94.27083333,,,,,,FBP-OG-17.png,0.45,1.2,20,0.25,,,,,,,,,,,,,0,9,9,19,1,,,,,,,,,,,,,,,,,,,,,,,,,,,,
,,,,,V2_012,20,Female,2024-03-01_15h02.05.175,jersey_experiment_5_v2,2023.2.2,Win32,84.74576271,,,,,,,,,,,,,,,,649.8828,651.9887,651.9887,653.0944,return,0.131,,24.34895833,,,,,,FBP-PT-17.png,0.35,1.2,1,0.5,,,,,,,,,,,,,0,10,10,0,1,,,,,,,,,,,,,,,,,,,,,,,,,,,,
,,,,,V2_012,20,Female,2024-03-01_15h02.05.175,jersey_experiment_5_v2,2023.2.2,Win32,84.74576271,,,,,,,,,,,,,,,,653.0947,654.9416,654.9416,655.577,return,0.0936,,36.45833333,,,,,,FBP-OG-19.png,0.4,1.2,28,0.25,,,,,,,,,,,,,0,11,11,27,1,,,,,,,,,,,,,,,,,,,,,,,,,,,,
,,,,,V2_012,20,Female,2024-03-01_15h02.05.175,jersey_experiment_5_v2,2023.2.2,Win32,84.74576271,,,,,,,,,,,,,,,,655.5773,657.4241,657.4241,658.2125,return,0.1215,,95.83333333,,,,,,FBP-OG-18.png,0.45,1.2,25,0.25,,,,,,,,,,,,,0,12,12,24,1,,,,,,,,,,,,,,,,,,,,,,,,,,,,
,,,,,V2_012,20,Female,2024-03-01_15h02.05.175,jersey_experiment_5_v2,2023.2.2,Win32,84.74576271,,,,,,,,,,,,,,,,658.2127,660.0594,660.0594,661.836,return,0.5078,,31.11979167,,,,,,FBP-RB-17.png,0.35,1.2,31,0.25,,,,,,,,,,,,,0,13,13,30,1,,,,,,,,,,,,,,,,,,,,,,,,,,,,
,,,,,V2_012,20,Female,2024-03-01_15h02.05.175,jersey_experiment_5_v2,2023.2.2,Win32,84.74576271,,,,,,,,,,,,,,,,661.8362,663.683,663.6831,664.5303,return,0.1353,,98.046875,,,,,,FBP-RB-18.png,0.45,1.2,40,0.25,,,,,,,,,,,,,0,14,14,39,1,,,,,,,,,,,,,,,,,,,,,,,,,,,,
,,,,,V2_012,20,Female,2024-03-01_15h02.05.175,jersey_experiment_5_v2,2023.2.2,Win32,84.74576271,,,,,,,,,,,,,,,,664.5305,666.3773,666.3773,667.7771,return,0.089,,29.296875,,,,,,FBP-OG-17.png,0.37,1.2,17,0.25,,,,,,,,,,,,,0,15,15,16,1,,,,,,,,,,,,,,,,,,,,,,,,,,,,
,,,,,V2_012,20,Female,2024-03-01_15h02.05.175,jersey_experiment_5_v2,2023.2.2,Win32,84.74576271,,,,,,,,,,,,,,,,667.7774,669.6245,669.6246,670.5068,return,0.1415,,26.5625,,,,,,FBP-YG-91.png,0.35,1.2,56,0.25,,,,,,,,,,,,,0,16,16,55,1,,,,,,,,,,,,,,,,,,,,,,,,,,,,
,,,,,V2_012,20,Female,2024-03-01_15h02.05.175,jersey_experiment_5_v2,2023.2.2,Win32,84.74576271,,,,,,,,,,,,,,,,670.507,672.3541,672.3542,673.2599,return,0.151,,75.390625,,,,,,FBP-OG-19.png,0.43,1.2,29,0.25,,,,,,,,,,,,,0,17,17,28,1,,,,,,,,,,,,,,,,,,,,,,,,,,,,
,,,,,V2_012,20,Female,2024-03-01_15h02.05.175,jersey_experiment_5_v2,2023.2.2,Win32,84.74576271,,,,,,,,,,,,,,,,673.2601,675.1072,675.1072,675.86,return,0.1686,,82.68229167,,,,,,FBP-RB-19.png,0.43,1.2,44,0.25,,,,,,,,,,,,,0,18,18,43,1,,,,,,,,,,,,,,,,,,,,,,,,,,,,
,,,,,V2_012,20,Female,2024-03-01_15h02.05.175,jersey_experiment_5_v2,2023.2.2,Win32,84.74576271,,,,,,,,,,,,,,,,675.8603,677.7071,677.7072,678.5189,return,0.0716,,84.765625,,,,,,FBP-YG-71.png,0.43,1.2,49,0.25,,,,,,,,,,,,,0,19,19,48,1,,,,,,,,,,,,,,,,,,,,,,,,,,,,
,,,,,V2_012,20,Female,2024-03-01_15h02.05.175,jersey_experiment_5_v2,2023.2.2,Win32,84.74576271,,,,,,,,,,,,,,,,678.5192,680.3661,680.3661,684.4602,return,2.1181,,35.546875,,,,,,FBP-OG-19.png,0.37,1.2,27,0.25,,,,,,,,,,,,,0,20,20,26,1,,,,,,,,,,,,,,,,,,,,,,,,,,,,
,,,,,V2_012,20,Female,2024-03-01_15h02.05.175,jersey_experiment_5_v2,2023.2.2,Win32,84.74576271,,,,,,,,,,,,,,,,684.4604,686.3073,686.3074,687.484,return,0.1557,,22.52604167,,,,,,FBP-YG-71.png,0.37,1.2,47,0.25,,,,,,,,,,,,,0,21,21,46,1,,,,,,,,,,,,,,,,,,,,,,,,,,,,
,,,,,V2_012,20,Female,2024-03-01_15h02.05.175,jersey_experiment_5_v2,2023.2.2,Win32,84.74576271,,,,,,,,,,,,,,,,687.4842,689.3431,689.3431,690.1546,return,0.1416,,70.96354167,,,,,,FBP-RB-18.png,0.43,1.2,39,0.25,,,,,,,,,,,,,0,22,22,38,1,,,,,,,,,,,,,,,,,,,,,,,,,,,,
,,,,,V2_012,20,Female,2024-03-01_15h02.05.175,jersey_experiment_5_v2,2023.2.2,Win32,84.74576271,,,,,,,,,,,,,,,,690.1548,692.0018,692.0018,692.7077,return,0.1228,,60.67708333,,,,,,FBP-RB-19.png,0.4,1.2,43,0.25,,,,,,,,,,,,,0,23,23,42,1,,,,,,,,,,,,,,,,,,,,,,,,,,,,
,,,,,V2_012,20,Female,2024-03-01_15h02.05.175,jersey_experiment_5_v2,2023.2.2,Win32,84.74576271,,,,,,,,,,,,,,,,692.708,694.8136,694.8136,696.2254,return,0.1121,,20.703125,,,,,,FBP-PT-19.png,0.35,1.2,11,0.5,,,,,,,,,,,,,0,24,24,10,1,,,,,,,,,,,,,,,,,,,,,,,,,,,,
,,,,,V2_012,20,Female,2024-03-01_15h02.05.175,jersey_experiment_5_v2,2023.2.2,Win32,84.74576271,,,,,,,,,,,,,,,,696.2256,698.0725,698.0726,699.0609,return,0.0981,,63.54166667,,,,,,FBP-RB-17.png,0.4,1.2,33,0.25,,,,,,,,,,,,,0,25,25,32,1,,,,,,,,,,,,,,,,,,,,,,,,,,,,
,,,,,V2_012,20,Female,2024-03-01_15h02.05.175,jersey_experiment_5_v2,2023.2.2,Win32,84.74576271,,,,,,,,,,,,,,,,699.0611,700.9081,700.9081,702.0374,return,0.1219,,36.71875,,,,,,FBP-OG-18.png,0.35,1.2,21,0.25,,,,,,,,,,,,,0,26,26,20,1,,,,,,,,,,,,,,,,,,,,,,,,,,,,
,,,,,V2_012,20,Female,2024-03-01_15h02.05.175,jersey_experiment_5_v2,2023.2.2,Win32,84.74576271,,,,,,,,,,,,,,,,702.0376,703.8846,703.8847,704.8375,return,0.1217,,38.02083333,,,,,,FBP-YG-91.png,0.37,1.2,57,0.25,,,,,,,,,,,,,0,27,27,56,1,,,,,,,,,,,,,,,,,,,,,,,,,,,,
,,,,,V2_012,20,Female,2024-03-01_15h02.05.175,jersey_experiment_5_v2,2023.2.2,Win32,84.74576271,,,,,,,,,,,,,,,,704.8377,706.9436,706.9437,707.9788,return,0.1656,,81.77083333,,,,,,FBP-PT-18.png,0.43,1.2,9,0.5,,,,,,,,,,,,,0,28,28,8,1,,,,,,,,,,,,,,,,,,,,,,,,,,,,
,,,,,V2_012,20,Female,2024-03-01_15h02.05.175,jersey_experiment_5_v2,2023.2.2,Win32,84.74576271,,,,,,,,,,,,,,,,707.9792,709.838,709.838,710.626,return,0.0656,,94.27083333,,,,,,FBP-RB-17.png,0.45,1.2,35,0.25,,,,,,,,,,,,,0,29,29,34,1,,,,,,,,,,,,,,,,,,,,,,,,,,,,
,,,,,V2_012,20,Female,2024-03-01_15h02.05.175,jersey_experiment_5_v2,2023.2.2,Win32,84.74576271,,,,,,,,,,,,,,,,710.6262,712.4848,712.4848,713.6496,return,0.1142,,67.70833333,,,,,,FBP-RB-18.png,0.4,1.2,38,0.25,,,,,,,,,,,,,0,30,30,37,1,,,,,,,,,,,,,,,,,,,,,,,,,,,,
,,,,,V2_012,20,Female,2024-03-01_15h02.05.175,jersey_experiment_5_v2,2023.2.2,Win32,84.74576271,,,,,,,,,,,,,,,,713.6498,715.4967,715.4967,717.4731,return,0.9832,,25.65104167,,,,,,FBP-RB-19.png,0.35,1.2,41,0.25,,,,,,,,,,,,,0,31,31,40,1,,,,,,,,,,,,,,,,,,,,,,,,,,,,
,,,,,V2_012,20,Female,2024-03-01_15h02.05.175,jersey_experiment_5_v2,2023.2.2,Win32,84.74576271,,,,,,,,,,,,,,,,717.4734,719.3207,719.3207,719.8732,return,0.0886,,12.63020833,,,,,,FBP-RB-18.png,0.35,1.2,36,0.25,,,,,,,,,,,,,0,32,32,35,1,,,,,,,,,,,,,,,,,,,,,,,,,,,,
,,,,,V2_012,20,Female,2024-03-01_15h02.05.175,jersey_experiment_5_v2,2023.2.2,Win32,84.74576271,,,,,,,,,,,,,,,,719.8733,721.7208,721.7208,722.2617,return,0.0865,,21.22395833,,,,,,FBP-OG-19.png,0.35,1.2,26,0.25,,,,,,,,,,,,,0,33,33,25,1,,,,,,,,,,,,,,,,,,,,,,,,,,,,
,,,,,V2_012,20,Female,2024-03-01_15h02.05.175,jersey_experiment_5_v2,2023.2.2,Win32,84.74576271,,,,,,,,,,,,,,,,722.2618,724.1089,724.1089,725.6266,return,0.6833,,68.75,,,,,,FBP-YG-91.png,0.4,1.2,58,0.25,,,,,,,,,,,,,0,34,34,57,1,,,,,,,,,,,,,,,,,,,,,,,,,,,,
,,,,,V2_012,20,Female,2024-03-01_15h02.05.175,jersey_experiment_5_v2,2023.2.2,Win32,84.74576271,,,,,,,,,,,,,,,,725.6269,727.7207,727.7207,728.5208,return,0.1074,,91.015625,,,,,,FBP-PT-17.png,0.43,1.2,4,0.5,,,,,,,,,,,,,0,35,35,3,1,,,,,,,,,,,,,,,,,,,,,,,,,,,,
,,,,,V2_012,20,Female,2024-03-01_15h02.05.175,jersey_experiment_5_v2,2023.2.2,Win32,84.74576271,,,,,,,,,,,,,,,,728.5211,730.6267,730.6267,731.8267,return,0.1012,,71.484375,,,,,,FBP-PT-17.png,0.4,1.2,3,0.5,,,,,,,,,,,,,0,36,36,2,1,,,,,,,,,,,,,,,,,,,,,,,,,,,,
,,,,,V2_012,20,Female,2024-03-01_15h02.05.175,jersey_experiment_5_v2,2023.2.2,Win32,84.74576271,,,,,,,,,,,,,,,,731.8268,733.6856,733.6856,734.2974,return,0.0813,,90.49479167,,,,,,FBP-OG-19.png,0.45,1.2,30,0.25,,,,,,,,,,,,,0,37,37,29,1,,,,,,,,,,,,,,,,,,,,,,,,,,,,
,,,,,V2_012,20,Female,2024-03-01_15h02.05.175,jersey_experiment_5_v2,2023.2.2,Win32,84.74576271,,,,,,,,,,,,,,,,734.2976,736.1563,736.1563,737.074,return,0.1018,,58.59375,,,,,,FBP-OG-17.png,0.4,1.2,18,0.25,,,,,,,,,,,,,0,38,38,17,1,,,,,,,,,,,,,,,,,,,,,,,,,,,,
,,,,,V2_012,20,Female,2024-03-01_15h02.05.175,jersey_experiment_5_v2,2023.2.2,Win32,84.74576271,,,,,,,,,,,,,,,,737.0741,739.1683,739.1683,740.0388,return,0.0971,,83.984375,,,,,,FBP-PT-18.png,0.45,1.2,10,0.5,,,,,,,,,,,,,0,39,39,9,1,,,,,,,,,,,,,,,,,,,,,,,,,,,,
,,,,,V2_012,20,Female,2024-03-01_15h02.05.175,jersey_experiment_5_v2,2023.2.2,Win32,84.74576271,,,,,,,,,,,,,,,,740.039,742.1331,742.1331,742.9213,return,0.1184,,87.36979167,,,,,,FBP-PT-19.png,0.45,1.2,15,0.5,,,,,,,,,,,,,0,40,40,14,1,,,,,,,,,,,,,,,,,,,,,,,,,,,,
,,,,,V2_012,20,Female,2024-03-01_15h02.05.175,jersey_experiment_5_v2,2023.2.2,Win32,84.74576271,,,,,,,,,,,,,,,,742.9214,744.7683,744.7684,745.7802,return,0.1231,,71.74479167,,,,,,FBP-OG-18.png,0.43,1.2,24,0.25,,,,,,,,,,,,,0,41,41,23,1,,,,,,,,,,,,,,,,,,,,,,,,,,,,
,,,,,V2_012,20,Female,2024-03-01_15h02.05.175,jersey_experiment_5_v2,2023.2.2,Win32,84.74576271,,,,,,,,,,,,,,,,745.7804,747.6274,747.6274,749.8979,return,0.0802,,81.77083333,,,,,,FBP-YG-71.png,0.45,1.2,50,0.25,,,,,,,,,,,,,0,42,42,49,1,,,,,,,,,,,,,,,,,,,,,,,,,,,,
,,,,,V2_012,20,Female,2024-03-01_15h02.05.175,jersey_experiment_5_v2,2023.2.2,Win32,84.74576271,,,,,,,,,,,,,,,,749.8982,752.0039,752.0039,755.0746,return,0.6529,,63.54166667,,,,,,FBP-PT-19.png,0.4,1.2,13,0.5,,,,,,,,,,,,,0,43,43,12,1,,,,,,,,,,,,,,,,,,,,,,,,,,,,
,,,,,V2_012,20,Female,2024-03-01_15h02.05.175,jersey_experiment_5_v2,2023.2.2,Win32,84.74576271,,,,,,,,,,,,,,,,755.075,756.9218,756.9219,757.5218,return,0.0315,,79.16666667,,,,,,FBP-YG-81.png,0.43,1.2,54,0.25,,,,,,,,,,,,,0,44,44,53,1,,,,,,,,,,,,,,,,,,,,,,,,,,,,
,,,,,V2_012,20,Female,2024-03-01_15h02.05.175,jersey_experiment_5_v2,2023.2.2,Win32,84.74576271,,,,,,,,,,,,,,,,757.5219,759.3807,759.3807,761.6748,return,0.2268,,32.68229167,,,,,,FBP-OG-18.png,0.37,1.2,22,0.25,,,,,,,,,,,,,0,45,45,21,1,,,,,,,,,,,,,,,,,,,,,,,,,,,,
,,,,,V2_012,20,Female,2024-03-01_15h02.05.175,jersey_experiment_5_v2,2023.2.2,Win32,84.74576271,,,,,,,,,,,,,,,,761.675,763.5338,763.5338,765.2517,return,0.6769,,47.39583333,,,,,,FBP-YG-81.png,0.37,1.2,52,0.25,,,,,,,,,,,,,0,46,46,51,1,,,,,,,,,,,,,,,,,,,,,,,,,,,,
,,,,,V2_012,20,Female,2024-03-01_15h02.05.175,jersey_experiment_5_v2,2023.2.2,Win32,84.74576271,,,,,,,,,,,,,,,,765.2519,767.0987,767.0987,767.9105,return,0.1908,,29.296875,,,,,,FBP-RB-17.png,0.37,1.2,32,0.25,,,,,,,,,,,,,0,47,47,31,1,,,,,,,,,,,,,,,,,,,,,,,,,,,,
,,,,,V2_012,20,Female,2024-03-01_15h02.05.175,jersey_experiment_5_v2,2023.2.2,Win32,84.74576271,,,,,,,,,,,,,,,,767.9107,769.7576,769.7577,770.534,return,0.0742,,60.02604167,,,,,,FBP-OG-18.png,0.4,1.2,23,0.25,,,,,,,,,,,,,0,48,48,22,1,,,,,,,,,,,,,,,,,,,,,,,,,,,,
,,,,,V2_012,20,Female,2024-03-01_15h02.05.175,jersey_experiment_5_v2,2023.2.2,Win32,84.74576271,,,,,,,,,,,,,,,,770.5342,772.3814,772.3814,773.2756,return,0.1316,,16.14583333,,,,,,FBP-OG-17.png,0.35,1.2,16,0.25,,,,,,,,,,,,,0,49,49,15,1,,,,,,,,,,,,,,,,,,,,,,,,,,,,
,,,,,V2_012,20,Female,2024-03-01_15h02.05.175,jersey_experiment_5_v2,2023.2.2,Win32,84.74576271,,,,,,,,,,,,,,,,773.2757,775.1225,775.1225,776.6755,return,0.6288,,67.31770833,,,,,,FBP-RB-17.png,0.43,1.2,34,0.25,,,,,,,,,,,,,0,50,50,33,1,,,,,,,,,,,,,,,,,,,,,,,,,,,,
,,,,,V2_012,20,Female,2024-03-01_15h02.05.175,jersey_experiment_5_v2,2023.2.2,Win32,84.74576271,,,,,,,,,,,,,,,,776.6756,778.7697,778.7697,781.5464,return,0.1993,,85.9375,,,,,,FBP-PT-17.png,0.45,1.2,5,0.5,,,,,,,,,,,,,0,51,51,4,1,,,,,,,,,,,,,,,,,,,,,,,,,,,,
,,,,,V2_012,20,Female,2024-03-01_15h02.05.175,jersey_experiment_5_v2,2023.2.2,Win32,84.74576271,,,,,,,,,,,,,,,,781.5467,783.6522,783.6523,785.0757,return,0.1567,,58.33333333,,,,,,FBP-PT-18.png,0.4,1.2,8,0.5,,,,,,,,,,,,,0,52,52,7,1,,,,,,,,,,,,,,,,,,,,,,,,,,,,
,,,,,V2_012,20,Female,2024-03-01_15h02.05.175,jersey_experiment_5_v2,2023.2.2,Win32,84.74576271,,,,,,,,,,,,,,,,785.0759,787.1819,787.1819,788.3935,return,0.0802,,32.421875,,,,,,FBP-PT-19.png,0.37,1.2,12,0.5,,,,,,,,,,,,,0,53,53,11,1,,,,,,,,,,,,,,,,,,,,,,,,,,,,
,,,,,V2_012,20,Female,2024-03-01_15h02.05.175,jersey_experiment_5_v2,2023.2.2,Win32,84.74576271,,,,,,,,,,,,,,,,788.3938,790.2523,790.2524,790.923,return,0.1179,,35.546875,,,,,,FBP-RB-18.png,0.37,1.2,37,0.25,,,,,,,,,,,,,0,54,54,36,1,,,,,,,,,,,,,,,,,,,,,,,,,,,,
,,,,,V2_012,20,Female,2024-03-01_15h02.05.175,jersey_experiment_5_v2,2023.2.2,Win32,84.74576271,,,,,,,,,,,,,,,,790.9233,792.7701,792.7701,793.4173,return,0.1422,,35.02604167,,,,,,FBP-RB-19.png,0.37,1.2,42,0.25,,,,,,,,,,,,,0,55,55,41,1,,,,,,,,,,,,,,,,,,,,,,,,,,,,
,,,,,V2_012,20,Female,2024-03-01_15h02.05.175,jersey_experiment_5_v2,2023.2.2,Win32,84.74576271,,,,,,,,,,,,,,,,793.4174,795.5117,795.5117,796.3939,return,0.1048,,44.921875,,,,,,FBP-PT-17.png,0.37,1.2,2,0.5,,,,,,,,,,,,,0,56,56,1,1,,,,,,,,,,,,,,,,,,,,,,,,,,,,
,,,,,V2_012,20,Female,2024-03-01_15h02.05.175,jersey_experiment_5_v2,2023.2.2,Win32,84.74576271,,,,,,,,,,,,,,,,796.3942,798.2526,798.2526,799.2058,return,0.12,,40.10416667,,,,,,FBP-YG-71.png,0.35,1.2,46,0.25,,,,,,,,,,,,,0,57,57,45,1,,,,,,,,,,,,,,,,,,,,,,,,,,,,
,,,,,V2_012,20,Female,2024-03-01_15h02.05.175,jersey_experiment_5_v2,2023.2.2,Win32,84.74576271,,,,,,,,,,,,,,,,799.206,801.3116,801.3117,802.3117,return,0.1891,,73.56770833,,,,,,FBP-PT-19.png,0.43,1.2,14,0.5,,,,,,,,,,,,,0,58,58,13,1,,,,,,,,,,,,,,,,,,,,,,,,,,,,
,,,,,V2_012,20,Female,2024-03-01_15h02.05.175,jersey_experiment_5_v2,2023.2.2,Win32,84.74576271,,,,,,,,,,,,,,,,802.3119,804.1589,804.1589,804.9353,return,0.0965,,89.0625,,,,,,FBP-RB-19.png,0.45,1.2,45,0.25,,,,,,,,,,,,,0,59,59,44,1,,,,,,,,,,,,,,,,,,,,,,,,,,,,
,,,,,V2_012,20,Female,2024-03-01_15h02.05.175,jersey_experiment_5_v2,2023.2.2,Win32,84.74576271,,,,,,,,,,,,,,,,804.9373,806.7826,806.7827,808.1236,return,0.119,,50.390625,,,,,,FBP-RB-81.png,0.35,1.2,36,0.25,,,,,,,,,,,,,,,,,,0,0,0,35,1,,,,,,,,,,,,,,,,,,,,,,,
,,,,,V2_012,20,Female,2024-03-01_15h02.05.175,jersey_experiment_5_v2,2023.2.2,Win32,84.74576271,,,,,,,,,,,,,,,,808.1238,810.2178,810.2179,811.1708,return,0.1107,,44.01041667,,,,,,FBP-PT-81.png,0.35,1.2,6,0.5,,,,,,,,,,,,,,,,,,0,1,1,5,1,,,,,,,,,,,,,,,,,,,,,,,
,,,,,V2_012,20,Female,2024-03-01_15h02.05.175,jersey_experiment_5_v2,2023.2.2,Win32,84.74576271,,,,,,,,,,,,,,,,811.171,813.0181,813.0181,814.1356,return,0.1294,,80.59895833,,,,,,FBP-OG-71.png,0.43,1.2,19,0.25,,,,,,,,,,,,,,,,,,0,2,2,18,1,,,,,,,,,,,,,,,,,,,,,,,
,,,,,V2_012,20,Female,2024-03-01_15h02.05.175,jersey_experiment_5_v2,2023.2.2,Win32,84.74576271,,,,,,,,,,,,,,,,814.1358,815.9828,815.9828,816.9946,return,0.0893,,67.70833333,,,,,,FBP-OG-91.png,0.37,1.2,27,0.25,,,,,,,,,,,,,,,,,,0,3,3,26,1,,,,,,,,,,,,,,,,,,,,,,,
,,,,,V2_012,20,Female,2024-03-01_15h02.05.175,jersey_experiment_5_v2,2023.2.2,Win32,84.74576271,,,,,,,,,,,,,,,,816.9949,818.8418,818.8418,819.6182,return,0.0635,,89.71354167,,,,,,FBP-YG-18.png,0.4,1.2,53,0.25,,,,,,,,,,,,,,,,,,0,4,4,52,1,,,,,,,,,,,,,,,,,,,,,,,
,,,,,V2_012,20,Female,2024-03-01_15h02.05.175,jersey_experiment_5_v2,2023.2.2,Win32,84.74576271,,,,,,,,,,,,,,,,819.6184,821.4771,821.4772,822.277,return,0.2035,,96.484375,,,,,,FBP-YG-18.png,0.43,1.2,54,0.25,,,,,,,,,,,,,,,,,,0,5,5,53,1,,,,,,,,,,,,,,,,,,,,,,,
,,,,,V2_012,20,Female,2024-03-01_15h02.05.175,jersey_experiment_5_v2,2023.2.2,Win32,84.74576271,,,,,,,,,,,,,,,,822.2772,824.1359,824.1359,825.042,return,0.1843,,87.109375,,,,,,FBP-OG-91.png,0.43,1.2,29,0.25,,,,,,,,,,,,,,,,,,0,6,6,28,1,,,,,,,,,,,,,,,,,,,,,,,
,,,,,V2_012,20,Female,2024-03-01_15h02.05.175,jersey_experiment_5_v2,2023.2.2,Win32,84.74576271,,,,,,,,,,,,,,,,825.0422,826.9009,826.9009,827.7244,return,0.2112,,98.4375,,,,,,FBP-OG-81.png,0.45,1.2,25,0.25,,,,,,,,,,,,,,,,,,0,7,7,24,1,,,,,,,,,,,,,,,,,,,,,,,
,,,,,V2_012,20,Female,2024-03-01_15h02.05.175,jersey_experiment_5_v2,2023.2.2,Win32,84.74576271,,,,,,,,,,,,,,,,827.7247,829.5833,829.5833,830.9363,return,0.2238,,53.125,,,,,,FBP-OG-71.png,0.37,1.2,17,0.25,,,,,,,,,,,,,,,,,,0,8,8,16,1,,,,,,,,,,,,,,,,,,,,,,,
,,,,,V2_012,20,Female,2024-03-01_15h02.05.175,jersey_experiment_5_v2,2023.2.2,Win32,84.74576271,,,,,,,,,,,,,,,,830.9365,832.7952,832.7952,833.8305,return,0.1548,,79.16666667,,,,,,FBP-RB-91.png,0.43,1.2,44,0.25,,,,,,,,,,,,,,,,,,0,9,9,43,1,,,,,,,,,,,,,,,,,,,,,,,
,,,,,V2_012,20,Female,2024-03-01_15h02.05.175,jersey_experiment_5_v2,2023.2.2,Win32,84.74576271,,,,,,,,,,,,,,,,833.8307,835.6777,835.6777,837.0777,return,0.05,,28.38541667,,,,,,FBP-YG-19.png,0.35,1.2,56,0.25,,,,,,,,,,,,,,,,,,0,10,10,55,1,,,,,,,,,,,,,,,,,,,,,,,
,,,,,V2_012,20,Female,2024-03-01_15h02.05.175,jersey_experiment_5_v2,2023.2.2,Win32,84.74576271,,,,,,,,,,,,,,,,837.0779,838.925,838.925,839.9132,return,0.5415,,33.72395833,,,,,,FBP-RB-81.png,0.37,1.2,37,0.25,,,,,,,,,,,,,,,,,,0,11,11,36,1,,,,,,,,,,,,,,,,,,,,,,,
,,,,,V2_012,20,Female,2024-03-01_15h02.05.175,jersey_experiment_5_v2,2023.2.2,Win32,84.74576271,,,,,,,,,,,,,,,,839.9134,841.772,841.7721,842.6662,return,0.1085,,78.90625,,,,,,FBP-YG-19.png,0.43,1.2,59,0.25,,,,,,,,,,,,,,,,,,0,12,12,58,1,,,,,,,,,,,,,,,,,,,,,,,
,,,,,V2_012,20,Female,2024-03-01_15h02.05.175,jersey_experiment_5_v2,2023.2.2,Win32,84.74576271,,,,,,,,,,,,,,,,842.6664,844.5251,844.5252,845.8191,return,0.0713,,25.390625,,,,,,FBP-YG-18.png,0.35,1.2,51,0.25,,,,,,,,,,,,,,,,,,0,13,13,50,1,,,,,,,,,,,,,,,,,,,,,,,
,,,,,V2_012,20,Female,2024-03-01_15h02.05.175,jersey_experiment_5_v2,2023.2.2,Win32,84.74576271,,,,,,,,,,,,,,,,845.8193,847.6663,847.6663,848.5487,return,0.0507,,35.41666667,,,,,,FBP-RB-91.png,0.37,1.2,42,0.25,,,,,,,,,,,,,,,,,,0,14,14,41,1,,,,,,,,,,,,,,,,,,,,,,,
,,,,,V2_012,20,Female,2024-03-01_15h02.05.175,jersey_experiment_5_v2,2023.2.2,Win32,84.74576271,,,,,,,,,,,,,,,,848.549,850.4076,850.4076,852.8193,return,0.1343,,50.26041667,,,,,,FBP-OG-71.png,0.4,1.2,18,0.25,,,,,,,,,,,,,,,,,,0,15,15,17,1,,,,,,,,,,,,,,,,,,,,,,,
,,,,,V2_012,20,Female,2024-03-01_15h02.05.175,jersey_experiment_5_v2,2023.2.2,Win32,84.74576271,,,,,,,,,,,,,,,,852.8196,854.6666,854.6667,855.4432,return,0.1231,,18.22916667,,,,,,FBP-OG-71.png,0.35,1.2,16,0.25,,,,,,,,,,,,,,,,,,0,16,16,15,1,,,,,,,,,,,,,,,,,,,,,,,
,,,,,V2_012,20,Female,2024-03-01_15h02.05.175,jersey_experiment_5_v2,2023.2.2,Win32,84.74576271,,,,,,,,,,,,,,,,855.4433,857.302,857.3021,858.3962,return,0.1505,,84.89583333,,,,,,FBP-OG-91.png,0.45,1.2,30,0.25,,,,,,,,,,,,,,,,,,0,17,17,29,1,,,,,,,,,,,,,,,,,,,,,,,
,,,,,V2_012,20,Female,2024-03-01_15h02.05.175,jersey_experiment_5_v2,2023.2.2,Win32,84.74576271,,,,,,,,,,,,,,,,858.3963,860.2433,860.2433,861.3844,return,0.1427,,25.91145833,,,,,,FBP-OG-81.png,0.35,1.2,21,0.25,,,,,,,,,,,,,,,,,,0,18,18,20,1,,,,,,,,,,,,,,,,,,,,,,,
,,,,,V2_012,20,Female,2024-03-01_15h02.05.175,jersey_experiment_5_v2,2023.2.2,Win32,84.74576271,,,,,,,,,,,,,,,,861.3847,863.4787,863.4787,864.2786,return,0.1767,,35.28645833,,,,,,FBP-PT-91.png,0.4,1.2,13,0.5,,,,,,,,,,,,,,,,,,0,19,19,12,1,,,,,,,,,,,,,,,,,,,,,,,
,,,,,V2_012,20,Female,2024-03-01_15h02.05.175,jersey_experiment_5_v2,2023.2.2,Win32,84.74576271,,,,,,,,,,,,,,,,864.2788,866.3728,866.3728,867.4908,return,0.278,,67.578125,,,,,,FBP-PT-71.png,0.43,1.2,4,0.5,,,,,,,,,,,,,,,,,,0,20,20,3,1,,,,,,,,,,,,,,,,,,,,,,,
,,,,,V2_012,20,Female,2024-03-01_15h02.05.175,jersey_experiment_5_v2,2023.2.2,Win32,84.74576271,,,,,,,,,,,,,,,,867.4909,869.3377,869.3378,870.0083,return,0.1794,,53.64583333,,,,,,FBP-OG-81.png,0.37,1.2,22,0.25,,,,,,,,,,,,,,,,,,0,21,21,21,1,,,,,,,,,,,,,,,,,,,,,,,
,,,,,V2_012,20,Female,2024-03-01_15h02.05.175,jersey_experiment_5_v2,2023.2.2,Win32,84.74576271,,,,,,,,,,,,,,,,870.0086,872.1026,872.1026,872.6908,return,0.0989,,40.88541667,,,,,,FBP-PT-91.png,0.37,1.2,12,0.5,,,,,,,,,,,,,,,,,,0,22,22,11,1,,,,,,,,,,,,,,,,,,,,,,,
,,,,,V2_012,20,Female,2024-03-01_15h02.05.175,jersey_experiment_5_v2,2023.2.2,Win32,84.74576271,,,,,,,,,,,,,,,,872.6911,874.7852,874.7852,875.3026,return,0.1324,,36.45833333,,,,,,FBP-PT-71.png,0.35,1.2,1,0.5,,,,,,,,,,,,,,,,,,0,23,23,0,1,,,,,,,,,,,,,,,,,,,,,,,
,,,,,V2_012,20,Female,2024-03-01_15h02.05.175,jersey_experiment_5_v2,2023.2.2,Win32,84.74576271,,,,,,,,,,,,,,,,875.3029,877.1498,877.1498,878.2204,return,0.1086,,97.265625,,,,,,FBP-RB-71.png,0.45,1.2,35,0.25,,,,,,,,,,,,,,,,,,0,24,24,34,1,,,,,,,,,,,,,,,,,,,,,,,
,,,,,V2_012,20,Female,2024-03-01_15h02.05.175,jersey_experiment_5_v2,2023.2.2,Win32,84.74576271,,,,,,,,,,,,,,,,878.2206,880.0794,880.0794,881.5853,return,0.6882,,93.359375,,,,,,FBP-OG-71.png,0.45,1.2,20,0.25,,,,,,,,,,,,,,,,,,0,25,25,19,1,,,,,,,,,,,,,,,,,,,,,,,
,,,,,V2_012,20,Female,2024-03-01_15h02.05.175,jersey_experiment_5_v2,2023.2.2,Win32,84.74576271,,,,,,,,,,,,,,,,881.5855,883.4324,883.4324,885.7853,return,0.1519,,56.90104167,,,,,,FBP-OG-81.png,0.4,1.2,23,0.25,,,,,,,,,,,,,,,,,,0,26,26,22,1,,,,,,,,,,,,,,,,,,,,,,,
,,,,,V2_012,20,Female,2024-03-01_15h02.05.175,jersey_experiment_5_v2,2023.2.2,Win32,84.74576271,,,,,,,,,,,,,,,,885.7856,887.6325,887.6325,888.3385,return,0.0662,,80.59895833,,,,,,FBP-YG-17.png,0.43,1.2,49,0.25,,,,,,,,,,,,,,,,,,0,27,27,48,1,,,,,,,,,,,,,,,,,,,,,,,
,,,,,V2_012,20,Female,2024-03-01_15h02.05.175,jersey_experiment_5_v2,2023.2.2,Win32,84.74576271,,,,,,,,,,,,,,,,888.3387,890.4327,890.4329,891.2208,return,0.1462,,90.234375,,,,,,FBP-PT-81.png,0.45,1.2,10,0.5,,,,,,,,,,,,,,,,,,0,28,28,9,1,,,,,,,,,,,,,,,,,,,,,,,
,,,,,V2_012,20,Female,2024-03-01_15h02.05.175,jersey_experiment_5_v2,2023.2.2,Win32,84.74576271,,,,,,,,,,,,,,,,891.2211,893.3268,893.3269,894.1385,return,0.1178,,89.453125,,,,,,FBP-PT-91.png,0.45,1.2,15,0.5,,,,,,,,,,,,,,,,,,0,29,29,14,1,,,,,,,,,,,,,,,,,,,,,,,
,,,,,V2_012,20,Female,2024-03-01_15h02.05.175,jersey_experiment_5_v2,2023.2.2,Win32,84.74576271,,,,,,,,,,,,,,,,894.1388,895.986,895.986,897.3622,return,0.0885,,63.80208333,,,,,,FBP-YG-19.png,0.4,1.2,58,0.25,,,,,,,,,,,,,,,,,,0,30,30,57,1,,,,,,,,,,,,,,,,,,,,,,,
,,,,,V2_012,20,Female,2024-03-01_15h02.05.175,jersey_experiment_5_v2,2023.2.2,Win32,84.74576271,,,,,,,,,,,,,,,,897.3624,899.2211,899.2211,900.0095,return,0.1308,,43.09895833,,,,,,FBP-YG-17.png,0.37,1.2,47,0.25,,,,,,,,,,,,,,,,,,0,31,31,46,1,,,,,,,,,,,,,,,,,,,,,,,
,,,,,V2_012,20,Female,2024-03-01_15h02.05.175,jersey_experiment_5_v2,2023.2.2,Win32,84.74576271,,,,,,,,,,,,,,,,900.0097,902.1155,902.1155,903.033,return,0.1288,,75.13020833,,,,,,FBP-PT-91.png,0.43,1.2,14,0.5,,,,,,,,,,,,,,,,,,0,32,32,13,1,,,,,,,,,,,,,,,,,,,,,,,
,,,,,V2_012,20,Female,2024-03-01_15h02.05.175,jersey_experiment_5_v2,2023.2.2,Win32,84.74576271,,,,,,,,,,,,,,,,903.0333,905.1389,905.139,905.8449,return,0.121,,48.69791667,,,,,,FBP-PT-71.png,0.37,1.2,2,0.5,,,,,,,,,,,,,,,,,,0,33,33,1,1,,,,,,,,,,,,,,,,,,,,,,,
,,,,,V2_012,20,Female,2024-03-01_15h02.05.175,jersey_experiment_5_v2,2023.2.2,Win32,84.74576271,,,,,,,,,,,,,,,,905.8452,907.9508,907.9509,908.9626,return,0.1718,,76.5625,,,,,,FBP-PT-81.png,0.43,1.2,9,0.5,,,,,,,,,,,,,,,,,,0,34,34,8,1,,,,,,,,,,,,,,,,,,,,,,,
,,,,,V2_012,20,Female,2024-03-01_15h02.05.175,jersey_experiment_5_v2,2023.2.2,Win32,84.74576271,,,,,,,,,,,,,,,,908.9628,910.8217,910.8218,911.3626,return,0.0874,,79.296875,,,,,,FBP-OG-81.png,0.43,1.2,24,0.25,,,,,,,,,,,,,,,,,,0,35,35,23,1,,,,,,,,,,,,,,,,,,,,,,,
,,,,,V2_012,20,Female,2024-03-01_15h02.05.175,jersey_experiment_5_v2,2023.2.2,Win32,84.74576271,,,,,,,,,,,,,,,,911.3628,913.2218,913.2218,914.7628,return,0.1176,,64.32291667,,,,,,FBP-RB-71.png,0.4,1.2,33,0.25,,,,,,,,,,,,,,,,,,0,36,36,32,1,,,,,,,,,,,,,,,,,,,,,,,
,,,,,V2_012,20,Female,2024-03-01_15h02.05.175,jersey_experiment_5_v2,2023.2.2,Win32,84.74576271,,,,,,,,,,,,,,,,914.763,916.8689,916.869,917.7983,return,0.086,,36.06770833,,,,,,FBP-PT-91.png,0.35,1.2,11,0.5,,,,,,,,,,,,,,,,,,0,37,37,10,1,,,,,,,,,,,,,,,,,,,,,,,
,,,,,V2_012,20,Female,2024-03-01_15h02.05.175,jersey_experiment_5_v2,2023.2.2,Win32,84.74576271,,,,,,,,,,,,,,,,917.7985,919.8926,919.8927,920.5631,return,0.0304,,49.73958333,,,,,,FBP-PT-81.png,0.37,1.2,7,0.5,,,,,,,,,,,,,,,,,,0,38,38,6,1,,,,,,,,,,,,,,,,,,,,,,,
,,,,,V2_012,20,Female,2024-03-01_15h02.05.175,jersey_experiment_5_v2,2023.2.2,Win32,84.74576271,,,,,,,,,,,,,,,,920.5633,922.4103,922.4103,923.3868,return,0.0707,,88.93229167,,,,,,FBP-YG-19.png,0.45,1.2,60,0.25,,,,,,,,,,,,,,,,,,0,39,39,59,1,,,,,,,,,,,,,,,,,,,,,,,
,,,,,V2_012,20,Female,2024-03-01_15h02.05.175,jersey_experiment_5_v2,2023.2.2,Win32,84.74576271,,,,,,,,,,,,,,,,923.387,925.2339,925.234,926.4104,return,0.0856,,78.77604167,,,,,,FBP-YG-17.png,0.4,1.2,48,0.25,,,,,,,,,,,,,,,,,,0,40,40,47,1,,,,,,,,,,,,,,,,,,,,,,,
,,,,,V2_012,20,Female,2024-03-01_15h02.05.175,jersey_experiment_5_v2,2023.2.2,Win32,84.74576271,,,,,,,,,,,,,,,,926.4106,928.5047,928.5047,929.9282,return,0.1429,,79.42708333,,,,,,FBP-PT-81.png,0.4,1.2,8,0.5,,,,,,,,,,,,,,,,,,0,41,41,7,1,,,,,,,,,,,,,,,,,,,,,,,
,,,,,V2_012,20,Female,2024-03-01_15h02.05.175,jersey_experiment_5_v2,2023.2.2,Win32,84.74576271,,,,,,,,,,,,,,,,929.9284,931.7754,931.7755,932.54,return,0.1174,,85.02604167,,,,,,FBP-RB-71.png,0.43,1.2,34,0.25,,,,,,,,,,,,,,,,,,0,42,42,33,1,,,,,,,,,,,,,,,,,,,,,,,
,,,,,V2_012,20,Female,2024-03-01_15h02.05.175,jersey_experiment_5_v2,2023.2.2,Win32,84.74576271,,,,,,,,,,,,,,,,932.5402,934.3872,934.3872,935.1637,return,0.1549,,83.07291667,,,,,,FBP-RB-81.png,0.45,1.2,40,0.25,,,,,,,,,,,,,,,,,,0,43,43,39,1,,,,,,,,,,,,,,,,,,,,,,,
,,,,,V2_012,20,Female,2024-03-01_15h02.05.175,jersey_experiment_5_v2,2023.2.2,Win32,84.74576271,,,,,,,,,,,,,,,,935.1639,937.2579,937.2579,937.7048,return,0.1641,,83.07291667,,,,,,FBP-PT-71.png,0.45,1.2,5,0.5,,,,,,,,,,,,,,,,,,0,44,44,4,1,,,,,,,,,,,,,,,,,,,,,,,
,,,,,V2_012,20,Female,2024-03-01_15h02.05.175,jersey_experiment_5_v2,2023.2.2,Win32,84.74576271,,,,,,,,,,,,,,,,937.7051,939.5521,939.5522,940.2343,return,0.1041,,54.94791667,,,,,,FBP-OG-91.png,0.4,1.2,28,0.25,,,,,,,,,,,,,,,,,,0,45,45,27,1,,,,,,,,,,,,,,,,,,,,,,,
,,,,,V2_012,20,Female,2024-03-01_15h02.05.175,jersey_experiment_5_v2,2023.2.2,Win32,84.74576271,,,,,,,,,,,,,,,,940.2345,942.0932,942.0933,943.2345,return,0.1235,,38.15104167,,,,,,FBP-YG-17.png,0.35,1.2,46,0.25,,,,,,,,,,,,,,,,,,0,46,46,45,1,,,,,,,,,,,,,,,,,,,,,,,
,,,,,V2_012,20,Female,2024-03-01_15h02.05.175,jersey_experiment_5_v2,2023.2.2,Win32,84.74576271,,,,,,,,,,,,,,,,943.2348,945.0817,945.0817,946.0347,return,0.1232,,63.02083333,,,,,,FBP-RB-81.png,0.43,1.2,39,0.25,,,,,,,,,,,,,,,,,,0,47,47,38,1,,,,,,,,,,,,,,,,,,,,,,,
,,,,,V2_012,20,Female,2024-03-01_15h02.05.175,jersey_experiment_5_v2,2023.2.2,Win32,84.74576271,,,,,,,,,,,,,,,,946.0349,948.1405,948.1405,949.729,return,0.1852,,55.078125,,,,,,FBP-PT-71.png,0.4,1.2,3,0.5,,,,,,,,,,,,,,,,,,0,48,48,2,1,,,,,,,,,,,,,,,,,,,,,,,
,,,,,V2_012,20,Female,2024-03-01_15h02.05.175,jersey_experiment_5_v2,2023.2.2,Win32,84.74576271,,,,,,,,,,,,,,,,949.7291,951.5878,951.5878,952.6819,return,0.1282,,58.984375,,,,,,FBP-RB-81.png,0.4,1.2,38,0.25,,,,,,,,,,,,,,,,,,0,49,49,37,1,,,,,,,,,,,,,,,,,,,,,,,
,,,,,V2_012,20,Female,2024-03-01_15h02.05.175,jersey_experiment_5_v2,2023.2.2,Win32,84.74576271,,,,,,,,,,,,,,,,952.6822,954.5292,954.5292,955.1879,return,0.0749,,50.65104167,,,,,,FBP-YG-18.png,0.37,1.2,52,0.25,,,,,,,,,,,,,,,,,,0,50,50,51,1,,,,,,,,,,,,,,,,,,,,,,,
,,,,,V2_012,20,Female,2024-03-01_15h02.05.175,jersey_experiment_5_v2,2023.2.2,Win32,84.74576271,,,,,,,,,,,,,,,,955.1881,957.0351,957.0351,958.1645,return,0.5798,,82.03125,,,,,,FBP-YG-17.png,0.45,1.2,50,0.25,,,,,,,,,,,,,,,,,,0,51,51,49,1,,,,,,,,,,,,,,,,,,,,,,,
,,,,,V2_012,20,Female,2024-03-01_15h02.05.175,jersey_experiment_5_v2,2023.2.2,Win32,84.74576271,,,,,,,,,,,,,,,,958.1647,960.0118,960.0119,961.3058,return,0.1786,,37.63020833,,,,,,FBP-RB-91.png,0.35,1.2,41,0.25,,,,,,,,,,,,,,,,,,0,52,52,40,1,,,,,,,,,,,,,,,,,,,,,,,
,,,,,V2_012,20,Female,2024-03-01_15h02.05.175,jersey_experiment_5_v2,2023.2.2,Win32,84.74576271,,,,,,,,,,,,,,,,961.3061,963.1529,963.1529,964.0117,return,0.1552,,26.69270833,,,,,,FBP-RB-71.png,0.35,1.2,31,0.25,,,,,,,,,,,,,,,,,,0,53,53,30,1,,,,,,,,,,,,,,,,,,,,,,,
,,,,,V2_012,20,Female,2024-03-01_15h02.05.175,jersey_experiment_5_v2,2023.2.2,Win32,84.74576271,,,,,,,,,,,,,,,,964.012,965.8707,965.8707,966.6824,return,0.1886,,25.26041667,,,,,,FBP-OG-91.png,0.35,1.2,26,0.25,,,,,,,,,,,,,,,,,,0,54,54,25,1,,,,,,,,,,,,,,,,,,,,,,,
,,,,,V2_012,20,Female,2024-03-01_15h02.05.175,jersey_experiment_5_v2,2023.2.2,Win32,84.74576271,,,,,,,,,,,,,,,,966.6826,968.5295,968.5296,969.0825,return,0.1282,,26.5625,,,,,,FBP-YG-19.png,0.37,1.2,57,0.25,,,,,,,,,,,,,,,,,,0,55,55,56,1,,,,,,,,,,,,,,,,,,,,,,,
,,,,,V2_012,20,Female,2024-03-01_15h02.05.175,jersey_experiment_5_v2,2023.2.2,Win32,84.74576271,,,,,,,,,,,,,,,,969.0827,970.9297,970.9298,971.4356,return,0.1412,,30.72916667,,,,,,FBP-RB-71.png,0.37,1.2,32,0.25,,,,,,,,,,,,,,,,,,0,56,56,31,1,,,,,,,,,,,,,,,,,,,,,,,
,,,,,V2_012,20,Female,2024-03-01_15h02.05.175,jersey_experiment_5_v2,2023.2.2,Win32,84.74576271,,,,,,,,,,,,,,,,971.4357,973.2827,973.2827,974.4828,return,0.5835,,80.59895833,,,,,,FBP-YG-18.png,0.45,1.2,55,0.25,,,,,,,,,,,,,,,,,,0,57,57,54,1,,,,,,,,,,,,,,,,,,,,,,,
,,,,,V2_012,20,Female,2024-03-01_15h02.05.175,jersey_experiment_5_v2,2023.2.2,Win32,84.74576271,,,,,,,,,,,,,,,,974.4829,976.3299,976.3299,976.9181,return,0.1308,,91.14583333,,,,,,FBP-RB-91.png,0.45,1.2,45,0.25,,,,,,,,,,,,,,,,,,0,58,58,44,1,,,,,,,,,,,,,,,,,,,,,,,
,,,,,V2_012,20,Female,2024-03-01_15h02.05.175,jersey_experiment_5_v2,2023.2.2,Win32,84.74576271,,,,,,,,,,,,,,,,976.9183,978.7654,978.7654,979.5418,return,0.096,,65.10416667,,,,,,FBP-RB-91.png,0.4,1.2,43,0.25,,,,,,,,,,,,,,,,,,0,59,59,42,1,,,,,,,,,,,,,,,,,,,,,,,
,,,,,V2_012,20,Female,2024-03-01_15h02.05.175,jersey_experiment_5_v2,2023.2.2,Win32,84.74576271,,,,,,,,,,,,,,,,,,,,,,,,,,,,,,,,,,,,,,,,,,,,,,,,,,,,,,,,979.5421,985.4835,return,5.9296,,,,,,,,,,,,,,,,,,,
,,,,,V2_012,20,Female,2024-03-01_15h02.05.175,jersey_experiment_5_v2,2023.2.2,Win32,84.74576271,,,,,,,,,,,,,,,,,,,,,,,,,,,,,,,,,,,,,,,,,,,,,,,,,,,,,,,,,,,,,985.4837,988.86,1,2.4649,return,0.8932,,,,,,,,,,,,
,,,,,V2_012,20,Female,2024-03-01_15h02.05.175,jersey_experiment_5_v2,2023.2.2,Win32,84.74576271,,,,,,,,,,,,,,,,,,,,,,,,,,,,,,,,,,,,,,,,,,,,,,,,,,,,,,,,,,,,,,,,,,,,988.8602,1036.0313,I think some of the football players were shown for longer amounts of time than others. There also may have been the same size shown back to back sometimes.,right,41.5068,,,,,,
,,,,,V2_012,20,Female,2024-03-01_15h02.05.175,jersey_experiment_5_v2,2023.2.2,Win32,84.74576271,,,,,,,,,,,,,,,,,,,,,,,,,,,,,,,,,,,,,,,,,,,,,,,,,,,,,,,,,,,,,,,,,,,,,,,,,,1036.0314,1040.8028,return,4.7658,