requirements.started,requirements.stopped,key_resp_3.keys,key_resp_3.rt,key_resp_3.duration,Subject ID,Age,Gender,date,expName,psychopyVersion,OS,frameRate,instructions1.started,instructions1.stopped,key_resp.keys,key_resp.rt,key_resp.duration,example.started,example.stopped,enter_2.keys,enter_2.rt,enter_2.duration,instructions2.started,instructions2.stopped,enter_3.keys,enter_3.rt,enter_3.duration,image.started,image.stopped,slider_2.started,slider_2.stopped,next.keys,next.rt,next.duration,slider.response,trial_block_1.thisRepN,trial_block_1.thisTrialN,trial_block_1.thisN,trial_block_1.thisIndex,trial_block_1.ran,Path,Width,Height,Index,Duration,trial_block_2.thisRepN,trial_block_2.thisTrialN,trial_block_2.thisN,trial_block_2.thisIndex,trial_block_2.ran,rest_break.started,rest_break.stopped,end_break.started,end_break.stopped,key_resp_5.keys,key_resp_5.rt,key_resp_5.duration,trial_block_3.thisRepN,trial_block_3.thisTrialN,trial_block_3.thisN,trial_block_3.thisIndex,trial_block_3.ran,trial_block_4.thisRepN,trial_block_4.thisTrialN,trial_block_4.thisN,trial_block_4.thisIndex,trial_block_4.ran,questions_intro.started,questions_intro.stopped,enter_12.keys,enter_12.rt,enter_12.duration,question2.started,question2.stopped,question_doingbest.response,question_doingbest.rt,enter_15.keys,enter_15.rt,enter_15.duration,pattern.started,pattern.stopped,pattern_2.text,enter_17.keys,enter_17.rt,enter_17.duration,thankyou.started,thankyou.stopped,enter_14.keys,enter_14.rt,enter_14.duration
0,10.6502,return,10.644,,V2_005,22,Female,2024-03-01_09h29.05.468,jersey_experiment_5_v2,2023.2.2,Win32,85.47008547,,,,,,,,,,,,,,,,,,,,,,,,,,,,,,,,,,,,,,,,,,,,,,,,,,,,,,,,,,,,,,,,,,,,,,,,,,,,,,
,,,,,V2_005,22,Female,2024-03-01_09h29.05.468,jersey_experiment_5_v2,2023.2.2,Win32,85.47008547,10.6503,21.6959,return,11.0228,,,,,,,,,,,,,,,,,,,,,,,,,,,,,,,,,,,,,,,,,,,,,,,,,,,,,,,,,,,,,,,,,,,,,,,,,,
,,,,,V2_005,22,Female,2024-03-01_09h29.05.468,jersey_experiment_5_v2,2023.2.2,Win32,85.47008547,,,,,,21.6959,26.2372,return,4.5039,,,,,,,,,,,,,,,,,,,,,,,,,,,,,,,,,,,,,,,,,,,,,,,,,,,,,,,,,,,,,,,,,,,,,
,,,,,V2_005,22,Female,2024-03-01_09h29.05.468,jersey_experiment_5_v2,2023.2.2,Win32,85.47008547,,,,,,,,,,,26.2374,49.1675,return,22.9189,,,,,,,,,,,,,,,,,,,,,,,,,,,,,,,,,,,,,,,,,,,,,,,,,,,,,,,,,,,,,,,,
,,,,,V2_005,22,Female,2024-03-01_09h29.05.468,jersey_experiment_5_v2,2023.2.2,Win32,85.47008547,,,,,,,,,,,,,,,,49.1749,51.2731,51.2732,66.6386,return,6.3154,,24.47916667,0,0,0,46,1,FBP-YG-71.png,0.37,1.2,47,0.5,,,,,,,,,,,,,,,,,,,,,,,,,,,,,,,,,,,,,,,,,,,,,
,,,,,V2_005,22,Female,2024-03-01_09h29.05.468,jersey_experiment_5_v2,2023.2.2,Win32,85.47008547,,,,,,,,,,,,,,,,66.6436,68.756,68.7561,75.0034,return,4.5796,,74.08854167,0,1,1,24,1,FBP-OG-18.png,0.45,1.2,25,0.5,,,,,,,,,,,,,,,,,,,,,,,,,,,,,,,,,,,,,,,,,,,,,
,,,,,V2_005,22,Female,2024-03-01_09h29.05.468,jersey_experiment_5_v2,2023.2.2,Win32,85.47008547,,,,,,,,,,,,,,,,75.0079,76.8504,76.8505,80.6624,return,2.3939,,74.08854167,0,2,2,6,1,FBP-PT-18.png,0.37,1.2,7,0.25,,,,,,,,,,,,,,,,,,,,,,,,,,,,,,,,,,,,,,,,,,,,,
,,,,,V2_005,22,Female,2024-03-01_09h29.05.468,jersey_experiment_5_v2,2023.2.2,Win32,85.47008547,,,,,,,,,,,,,,,,80.6627,82.7683,82.7683,86.639,return,1.2328,,74.08854167,0,3,3,57,1,FBP-YG-91.png,0.4,1.2,58,0.5,,,,,,,,,,,,,,,,,,,,,,,,,,,,,,,,,,,,,,,,,,,,,
,,,,,V2_005,22,Female,2024-03-01_09h29.05.468,jersey_experiment_5_v2,2023.2.2,Win32,85.47008547,,,,,,,,,,,,,,,,86.6393,88.7332,88.7333,93.2746,return,2.8042,,50.78125,0,4,4,45,1,FBP-YG-71.png,0.35,1.2,46,0.5,,,,,,,,,,,,,,,,,,,,,,,,,,,,,,,,,,,,,,,,,,,,,
,,,,,V2_005,22,Female,2024-03-01_09h29.05.468,jersey_experiment_5_v2,2023.2.2,Win32,85.47008547,,,,,,,,,,,,,,,,93.2806,95.3923,95.3924,99.6866,return,1.9728,,85.80729167,0,5,5,34,1,FBP-RB-17.png,0.45,1.2,35,0.5,,,,,,,,,,,,,,,,,,,,,,,,,,,,,,,,,,,,,,,,,,,,,
,,,,,V2_005,22,Female,2024-03-01_09h29.05.468,jersey_experiment_5_v2,2023.2.2,Win32,85.47008547,,,,,,,,,,,,,,,,99.6869,101.7926,101.7926,117.3344,return,13.5734,,65.625,0,6,6,52,1,FBP-YG-81.png,0.4,1.2,53,0.5,,,,,,,,,,,,,,,,,,,,,,,,,,,,,,,,,,,,,,,,,,,,,
,,,,,V2_005,22,Female,2024-03-01_09h29.05.468,jersey_experiment_5_v2,2023.2.2,Win32,85.47008547,,,,,,,,,,,,,,,,117.339,119.1815,119.1815,121.4522,return,0.7057,,37.76041667,0,7,7,11,1,FBP-PT-19.png,0.37,1.2,12,0.25,,,,,,,,,,,,,,,,,,,,,,,,,,,,,,,,,,,,,,,,,,,,,
,,,,,V2_005,22,Female,2024-03-01_09h29.05.468,jersey_experiment_5_v2,2023.2.2,Win32,85.47008547,,,,,,,,,,,,,,,,121.4524,123.5463,123.5463,125.0993,return,0.7677,,37.76041667,0,8,8,35,1,FBP-RB-18.png,0.35,1.2,36,0.5,,,,,,,,,,,,,,,,,,,,,,,,,,,,,,,,,,,,,,,,,,,,,
,,,,,V2_005,22,Female,2024-03-01_09h29.05.468,jersey_experiment_5_v2,2023.2.2,Win32,85.47008547,,,,,,,,,,,,,,,,125.0996,127.1935,127.1936,129.1346,return,0.7159,,44.66145833,0,9,9,16,1,FBP-OG-17.png,0.37,1.2,17,0.5,,,,,,,,,,,,,,,,,,,,,,,,,,,,,,,,,,,,,,,,,,,,,
,,,,,V2_005,22,Female,2024-03-01_09h29.05.468,jersey_experiment_5_v2,2023.2.2,Win32,85.47008547,,,,,,,,,,,,,,,,129.1349,131.2289,131.229,132.829,return,0.5662,,49.47916667,0,10,10,42,1,FBP-RB-19.png,0.4,1.2,43,0.5,,,,,,,,,,,,,,,,,,,,,,,,,,,,,,,,,,,,,,,,,,,,,
,,,,,V2_005,22,Female,2024-03-01_09h29.05.468,jersey_experiment_5_v2,2023.2.2,Win32,85.47008547,,,,,,,,,,,,,,,,132.8292,134.9232,134.9232,136.2056,return,0.7059,,49.47916667,0,11,11,26,1,FBP-OG-19.png,0.37,1.2,27,0.5,,,,,,,,,,,,,,,,,,,,,,,,,,,,,,,,,,,,,,,,,,,,,
,,,,,V2_005,22,Female,2024-03-01_09h29.05.468,jersey_experiment_5_v2,2023.2.2,Win32,85.47008547,,,,,,,,,,,,,,,,136.2058,138.0644,138.0645,140.5117,return,0.8234,,49.47916667,0,12,12,0,1,FBP-PT-17.png,0.35,1.2,1,0.25,,,,,,,,,,,,,,,,,,,,,,,,,,,,,,,,,,,,,,,,,,,,,
,,,,,V2_005,22,Female,2024-03-01_09h29.05.468,jersey_experiment_5_v2,2023.2.2,Win32,85.47008547,,,,,,,,,,,,,,,,140.512,142.6059,142.6059,144.2293,return,0.6796,,57.94270833,0,13,13,41,1,FBP-RB-19.png,0.37,1.2,42,0.5,,,,,,,,,,,,,,,,,,,,,,,,,,,,,,,,,,,,,,,,,,,,,
,,,,,V2_005,22,Female,2024-03-01_09h29.05.468,jersey_experiment_5_v2,2023.2.2,Win32,85.47008547,,,,,,,,,,,,,,,,144.2296,146.3238,146.3239,153.418,return,5.9107,,49.86979167,0,14,14,21,1,FBP-OG-18.png,0.37,1.2,22,0.5,,,,,,,,,,,,,,,,,,,,,,,,,,,,,,,,,,,,,,,,,,,,,
,,,,,V2_005,22,Female,2024-03-01_09h29.05.468,jersey_experiment_5_v2,2023.2.2,Win32,85.47008547,,,,,,,,,,,,,,,,153.4183,155.2768,155.2769,159.4536,return,2.1321,,68.48958333,0,15,15,7,1,FBP-PT-18.png,0.4,1.2,8,0.25,,,,,,,,,,,,,,,,,,,,,,,,,,,,,,,,,,,,,,,,,,,,,
,,,,,V2_005,22,Female,2024-03-01_09h29.05.468,jersey_experiment_5_v2,2023.2.2,Win32,85.47008547,,,,,,,,,,,,,,,,159.4582,161.3007,161.3007,164.5714,return,1.2502,,64.58333333,0,16,16,10,1,FBP-PT-19.png,0.35,1.2,11,0.25,,,,,,,,,,,,,,,,,,,,,,,,,,,,,,,,,,,,,,,,,,,,,
,,,,,V2_005,22,Female,2024-03-01_09h29.05.468,jersey_experiment_5_v2,2023.2.2,Win32,85.47008547,,,,,,,,,,,,,,,,164.5716,166.6657,166.6657,169.2303,return,1.539,,80.59895833,0,17,17,28,1,FBP-OG-19.png,0.43,1.2,29,0.5,,,,,,,,,,,,,,,,,,,,,,,,,,,,,,,,,,,,,,,,,,,,,
,,,,,V2_005,22,Female,2024-03-01_09h29.05.468,jersey_experiment_5_v2,2023.2.2,Win32,85.47008547,,,,,,,,,,,,,,,,169.2304,171.3363,171.3363,174.7364,return,0.6923,,25.26041667,0,18,18,50,1,FBP-YG-81.png,0.35,1.2,51,0.5,,,,,,,,,,,,,,,,,,,,,,,,,,,,,,,,,,,,,,,,,,,,,
,,,,,V2_005,22,Female,2024-03-01_09h29.05.468,jersey_experiment_5_v2,2023.2.2,Win32,85.47008547,,,,,,,,,,,,,,,,174.7366,176.8425,176.8425,180.6308,return,0.8903,,99.609375,0,19,19,54,1,FBP-YG-81.png,0.45,1.2,55,0.5,,,,,,,,,,,,,,,,,,,,,,,,,,,,,,,,,,,,,,,,,,,,,
,,,,,V2_005,22,Female,2024-03-01_09h29.05.468,jersey_experiment_5_v2,2023.2.2,Win32,85.47008547,,,,,,,,,,,,,,,,180.6311,182.7366,182.7367,184.6075,return,0.5879,,100,0,20,20,19,1,FBP-OG-17.png,0.45,1.2,20,0.5,,,,,,,,,,,,,,,,,,,,,,,,,,,,,,,,,,,,,,,,,,,,,
,,,,,V2_005,22,Female,2024-03-01_09h29.05.468,jersey_experiment_5_v2,2023.2.2,Win32,85.47008547,,,,,,,,,,,,,,,,184.6077,186.7017,186.7017,189.0076,return,1.0263,,49.86979167,0,21,21,20,1,FBP-OG-18.png,0.35,1.2,21,0.5,,,,,,,,,,,,,,,,,,,,,,,,,,,,,,,,,,,,,,,,,,,,,
,,,,,V2_005,22,Female,2024-03-01_09h29.05.468,jersey_experiment_5_v2,2023.2.2,Win32,85.47008547,,,,,,,,,,,,,,,,189.0079,191.1135,191.1135,193.7018,return,0.6441,,88.28125,0,22,22,18,1,FBP-OG-17.png,0.43,1.2,19,0.5,,,,,,,,,,,,,,,,,,,,,,,,,,,,,,,,,,,,,,,,,,,,,
,,,,,V2_005,22,Female,2024-03-01_09h29.05.468,jersey_experiment_5_v2,2023.2.2,Win32,85.47008547,,,,,,,,,,,,,,,,193.702,195.7961,195.7962,199.7021,return,0.8645,,100,0,23,23,53,1,FBP-YG-81.png,0.43,1.2,54,0.5,,,,,,,,,,,,,,,,,,,,,,,,,,,,,,,,,,,,,,,,,,,,,
,,,,,V2_005,22,Female,2024-03-01_09h29.05.468,jersey_experiment_5_v2,2023.2.2,Win32,85.47008547,,,,,,,,,,,,,,,,199.7022,201.5492,201.5492,203.6433,return,0.7914,,77.86458333,0,24,24,13,1,FBP-PT-19.png,0.43,1.2,14,0.25,,,,,,,,,,,,,,,,,,,,,,,,,,,,,,,,,,,,,,,,,,,,,
,,,,,V2_005,22,Female,2024-03-01_09h29.05.468,jersey_experiment_5_v2,2023.2.2,Win32,85.47008547,,,,,,,,,,,,,,,,203.6435,205.7376,205.7376,207.5141,return,0.8987,,85.02604167,0,25,25,43,1,FBP-RB-19.png,0.43,1.2,44,0.5,,,,,,,,,,,,,,,,,,,,,,,,,,,,,,,,,,,,,,,,,,,,,
,,,,,V2_005,22,Female,2024-03-01_09h29.05.468,jersey_experiment_5_v2,2023.2.2,Win32,85.47008547,,,,,,,,,,,,,,,,207.5143,209.62,209.62,212.5379,return,0.6608,,58.72395833,0,26,26,40,1,FBP-RB-19.png,0.35,1.2,41,0.5,,,,,,,,,,,,,,,,,,,,,,,,,,,,,,,,,,,,,,,,,,,,,
,,,,,V2_005,22,Female,2024-03-01_09h29.05.468,jersey_experiment_5_v2,2023.2.2,Win32,85.47008547,,,,,,,,,,,,,,,,212.5381,214.6438,214.6438,216.1497,return,0.8183,,58.72395833,0,27,27,55,1,FBP-YG-91.png,0.35,1.2,56,0.5,,,,,,,,,,,,,,,,,,,,,,,,,,,,,,,,,,,,,,,,,,,,,
,,,,,V2_005,22,Female,2024-03-01_09h29.05.468,jersey_experiment_5_v2,2023.2.2,Win32,85.47008547,,,,,,,,,,,,,,,,216.1499,218.244,218.244,219.8322,return,0.8886,,49.47916667,0,28,28,36,1,FBP-RB-18.png,0.37,1.2,37,0.5,,,,,,,,,,,,,,,,,,,,,,,,,,,,,,,,,,,,,,,,,,,,,
,,,,,V2_005,22,Female,2024-03-01_09h29.05.468,jersey_experiment_5_v2,2023.2.2,Win32,85.47008547,,,,,,,,,,,,,,,,219.8325,221.9265,221.9266,226.8443,return,4.0004,,62.109375,0,29,29,32,1,FBP-RB-17.png,0.4,1.2,33,0.5,,,,,,,,,,,,,,,,,,,,,,,,,,,,,,,,,,,,,,,,,,,,,
,,,,,V2_005,22,Female,2024-03-01_09h29.05.468,jersey_experiment_5_v2,2023.2.2,Win32,85.47008547,,,,,,,,,,,,,,,,226.8445,228.9385,228.9385,233.4209,return,0.7078,,61.58854167,0,30,30,17,1,FBP-OG-17.png,0.4,1.2,18,0.5,,,,,,,,,,,,,,,,,,,,,,,,,,,,,,,,,,,,,,,,,,,,,
,,,,,V2_005,22,Female,2024-03-01_09h29.05.468,jersey_experiment_5_v2,2023.2.2,Win32,85.47008547,,,,,,,,,,,,,,,,233.4212,235.5152,235.5153,237.7035,return,0.7695,,49.73958333,0,31,31,27,1,FBP-OG-19.png,0.4,1.2,28,0.5,,,,,,,,,,,,,,,,,,,,,,,,,,,,,,,,,,,,,,,,,,,,,
,,,,,V2_005,22,Female,2024-03-01_09h29.05.468,jersey_experiment_5_v2,2023.2.2,Win32,85.47008547,,,,,,,,,,,,,,,,237.7037,239.5507,239.5508,242.4212,return,1.3712,,74.86979167,0,32,32,8,1,FBP-PT-18.png,0.43,1.2,9,0.25,,,,,,,,,,,,,,,,,,,,,,,,,,,,,,,,,,,,,,,,,,,,,
,,,,,V2_005,22,Female,2024-03-01_09h29.05.468,jersey_experiment_5_v2,2023.2.2,Win32,85.47008547,,,,,,,,,,,,,,,,242.4214,244.2685,244.2686,248.2803,return,2.7473,,100,0,33,33,4,1,FBP-PT-17.png,0.45,1.2,5,0.25,,,,,,,,,,,,,,,,,,,,,,,,,,,,,,,,,,,,,,,,,,,,,
,,,,,V2_005,22,Female,2024-03-01_09h29.05.468,jersey_experiment_5_v2,2023.2.2,Win32,85.47008547,,,,,,,,,,,,,,,,248.2806,250.3745,250.3746,253.1276,return,0.8188,,61.45833333,0,34,34,23,1,FBP-OG-18.png,0.43,1.2,24,0.5,,,,,,,,,,,,,,,,,,,,,,,,,,,,,,,,,,,,,,,,,,,,,
,,,,,V2_005,22,Female,2024-03-01_09h29.05.468,jersey_experiment_5_v2,2023.2.2,Win32,85.47008547,,,,,,,,,,,,,,,,253.1279,255.2218,255.2218,264.7162,return,7.1789,,50.26041667,0,35,35,38,1,FBP-RB-18.png,0.43,1.2,39,0.5,,,,,,,,,,,,,,,,,,,,,,,,,,,,,,,,,,,,,,,,,,,,,
,,,,,V2_005,22,Female,2024-03-01_09h29.05.468,jersey_experiment_5_v2,2023.2.2,Win32,85.47008547,,,,,,,,,,,,,,,,264.7164,266.8222,266.8222,270.1988,return,1.1226,,59.11458333,0,36,36,29,1,FBP-OG-19.png,0.45,1.2,30,0.5,,,,,,,,,,,,,,,,,,,,,,,,,,,,,,,,,,,,,,,,,,,,,
,,,,,V2_005,22,Female,2024-03-01_09h29.05.468,jersey_experiment_5_v2,2023.2.2,Win32,85.47008547,,,,,,,,,,,,,,,,270.199,272.0459,272.0459,275.4696,return,0.9889,,75.13020833,0,37,37,14,1,FBP-PT-19.png,0.45,1.2,15,0.25,,,,,,,,,,,,,,,,,,,,,,,,,,,,,,,,,,,,,,,,,,,,,
,,,,,V2_005,22,Female,2024-03-01_09h29.05.468,jersey_experiment_5_v2,2023.2.2,Win32,85.47008547,,,,,,,,,,,,,,,,275.4698,277.5637,277.5638,279.7403,return,0.9647,,87.36979167,0,38,38,59,1,FBP-YG-91.png,0.45,1.2,60,0.5,,,,,,,,,,,,,,,,,,,,,,,,,,,,,,,,,,,,,,,,,,,,,
,,,,,V2_005,22,Female,2024-03-01_09h29.05.468,jersey_experiment_5_v2,2023.2.2,Win32,85.47008547,,,,,,,,,,,,,,,,279.7405,281.8344,281.8345,289.529,return,0.6295,,68.22916667,0,39,39,33,1,FBP-RB-17.png,0.43,1.2,34,0.5,,,,,,,,,,,,,,,,,,,,,,,,,,,,,,,,,,,,,,,,,,,,,
,,,,,V2_005,22,Female,2024-03-01_09h29.05.468,jersey_experiment_5_v2,2023.2.2,Win32,85.47008547,,,,,,,,,,,,,,,,289.5292,291.6232,291.6233,293.6466,return,0.7908,,25.13020833,0,40,40,25,1,FBP-OG-19.png,0.35,1.2,26,0.5,,,,,,,,,,,,,,,,,,,,,,,,,,,,,,,,,,,,,,,,,,,,,
,,,,,V2_005,22,Female,2024-03-01_09h29.05.468,jersey_experiment_5_v2,2023.2.2,Win32,85.47008547,,,,,,,,,,,,,,,,293.6468,295.7526,295.7526,297.9527,return,0.7674,,74.47916667,0,41,41,48,1,FBP-YG-71.png,0.43,1.2,49,0.5,,,,,,,,,,,,,,,,,,,,,,,,,,,,,,,,,,,,,,,,,,,,,
,,,,,V2_005,22,Female,2024-03-01_09h29.05.468,jersey_experiment_5_v2,2023.2.2,Win32,85.47008547,,,,,,,,,,,,,,,,297.953,300.0471,300.0471,303.5295,return,1.2495,,75.26041667,0,42,42,47,1,FBP-YG-71.png,0.4,1.2,48,0.5,,,,,,,,,,,,,,,,,,,,,,,,,,,,,,,,,,,,,,,,,,,,,
,,,,,V2_005,22,Female,2024-03-01_09h29.05.468,jersey_experiment_5_v2,2023.2.2,Win32,85.47008547,,,,,,,,,,,,,,,,303.5297,305.3765,305.3765,307.6709,return,0.8429,,75,0,43,43,3,1,FBP-PT-17.png,0.43,1.2,4,0.25,,,,,,,,,,,,,,,,,,,,,,,,,,,,,,,,,,,,,,,,,,,,,
,,,,,V2_005,22,Female,2024-03-01_09h29.05.468,jersey_experiment_5_v2,2023.2.2,Win32,85.47008547,,,,,,,,,,,,,,,,307.6711,309.765,309.7651,312.1532,return,1.12,,62.23958333,0,44,44,51,1,FBP-YG-81.png,0.37,1.2,52,0.5,,,,,,,,,,,,,,,,,,,,,,,,,,,,,,,,,,,,,,,,,,,,,
,,,,,V2_005,22,Female,2024-03-01_09h29.05.468,jersey_experiment_5_v2,2023.2.2,Win32,85.47008547,,,,,,,,,,,,,,,,312.1535,314.2477,314.2477,317.2005,return,0.7291,,49.86979167,0,45,45,56,1,FBP-YG-91.png,0.37,1.2,57,0.5,,,,,,,,,,,,,,,,,,,,,,,,,,,,,,,,,,,,,,,,,,,,,
,,,,,V2_005,22,Female,2024-03-01_09h29.05.468,jersey_experiment_5_v2,2023.2.2,Win32,85.47008547,,,,,,,,,,,,,,,,317.2008,319.2948,319.2949,321.436,return,1.1063,,62.109375,0,46,46,39,1,FBP-RB-18.png,0.45,1.2,40,0.5,,,,,,,,,,,,,,,,,,,,,,,,,,,,,,,,,,,,,,,,,,,,,
,,,,,V2_005,22,Female,2024-03-01_09h29.05.468,jersey_experiment_5_v2,2023.2.2,Win32,85.47008547,,,,,,,,,,,,,,,,321.4363,323.5302,323.5302,325.7654,return,0.6559,,50,0,47,47,22,1,FBP-OG-18.png,0.4,1.2,23,0.5,,,,,,,,,,,,,,,,,,,,,,,,,,,,,,,,,,,,,,,,,,,,,
,,,,,V2_005,22,Female,2024-03-01_09h29.05.468,jersey_experiment_5_v2,2023.2.2,Win32,85.47008547,,,,,,,,,,,,,,,,325.7657,327.6126,327.6127,329.2716,return,0.4751,,49.86979167,0,48,48,2,1,FBP-PT-17.png,0.4,1.2,3,0.25,,,,,,,,,,,,,,,,,,,,,,,,,,,,,,,,,,,,,,,,,,,,,
,,,,,V2_005,22,Female,2024-03-01_09h29.05.468,jersey_experiment_5_v2,2023.2.2,Win32,85.47008547,,,,,,,,,,,,,,,,329.2718,331.3658,331.3659,332.3305,return,0.2041,,34.765625,0,49,49,15,1,FBP-OG-17.png,0.35,1.2,16,0.5,,,,,,,,,,,,,,,,,,,,,,,,,,,,,,,,,,,,,,,,,,,,,
,,,,,V2_005,22,Female,2024-03-01_09h29.05.468,jersey_experiment_5_v2,2023.2.2,Win32,85.47008547,,,,,,,,,,,,,,,,332.3308,334.4247,334.4248,335.7072,return,0.1677,,25.26041667,0,50,50,30,1,FBP-RB-17.png,0.35,1.2,31,0.5,,,,,,,,,,,,,,,,,,,,,,,,,,,,,,,,,,,,,,,,,,,,,
,,,,,V2_005,22,Female,2024-03-01_09h29.05.468,jersey_experiment_5_v2,2023.2.2,Win32,85.47008547,,,,,,,,,,,,,,,,335.7075,337.8012,337.8012,340.5073,return,0.2623,,86.97916667,0,51,51,49,1,FBP-YG-71.png,0.45,1.2,50,0.5,,,,,,,,,,,,,,,,,,,,,,,,,,,,,,,,,,,,,,,,,,,,,
,,,,,V2_005,22,Female,2024-03-01_09h29.05.468,jersey_experiment_5_v2,2023.2.2,Win32,85.47008547,,,,,,,,,,,,,,,,340.5075,342.6015,342.6016,346.6368,return,0.2261,,50.13020833,0,52,52,37,1,FBP-RB-18.png,0.4,1.2,38,0.5,,,,,,,,,,,,,,,,,,,,,,,,,,,,,,,,,,,,,,,,,,,,,
,,,,,V2_005,22,Female,2024-03-01_09h29.05.468,jersey_experiment_5_v2,2023.2.2,Win32,85.47008547,,,,,,,,,,,,,,,,346.637,348.731,348.7311,350.2841,return,0.6118,,49.86979167,0,53,53,31,1,FBP-RB-17.png,0.37,1.2,32,0.5,,,,,,,,,,,,,,,,,,,,,,,,,,,,,,,,,,,,,,,,,,,,,
,,,,,V2_005,22,Female,2024-03-01_09h29.05.468,jersey_experiment_5_v2,2023.2.2,Win32,85.47008547,,,,,,,,,,,,,,,,350.2843,352.1312,352.1312,354.096,return,0.165,,63.41145833,0,54,54,12,1,FBP-PT-19.png,0.4,1.2,13,0.25,,,,,,,,,,,,,,,,,,,,,,,,,,,,,,,,,,,,,,,,,,,,,
,,,,,V2_005,22,Female,2024-03-01_09h29.05.468,jersey_experiment_5_v2,2023.2.2,Win32,85.47008547,,,,,,,,,,,,,,,,354.0962,355.943,355.9431,357.6256,return,0.8263,,63.41145833,0,55,55,1,1,FBP-PT-17.png,0.37,1.2,2,0.25,,,,,,,,,,,,,,,,,,,,,,,,,,,,,,,,,,,,,,,,,,,,,
,,,,,V2_005,22,Female,2024-03-01_09h29.05.468,jersey_experiment_5_v2,2023.2.2,Win32,85.47008547,,,,,,,,,,,,,,,,357.6258,359.7199,359.72,362.5197,return,0.5456,,75,0,56,56,44,1,FBP-RB-19.png,0.45,1.2,45,0.5,,,,,,,,,,,,,,,,,,,,,,,,,,,,,,,,,,,,,,,,,,,,,
,,,,,V2_005,22,Female,2024-03-01_09h29.05.468,jersey_experiment_5_v2,2023.2.2,Win32,85.47008547,,,,,,,,,,,,,,,,362.52,364.3787,364.3787,368.1201,return,0.192,,87.23958333,0,57,57,9,1,FBP-PT-18.png,0.45,1.2,10,0.25,,,,,,,,,,,,,,,,,,,,,,,,,,,,,,,,,,,,,,,,,,,,,
,,,,,V2_005,22,Female,2024-03-01_09h29.05.468,jersey_experiment_5_v2,2023.2.2,Win32,85.47008547,,,,,,,,,,,,,,,,368.1203,369.9672,369.9672,375.2613,return,0.1187,,3.645833333,0,58,58,5,1,FBP-PT-18.png,0.35,1.2,6,0.25,,,,,,,,,,,,,,,,,,,,,,,,,,,,,,,,,,,,,,,,,,,,,
,,,,,V2_005,22,Female,2024-03-01_09h29.05.468,jersey_experiment_5_v2,2023.2.2,Win32,85.47008547,,,,,,,,,,,,,,,,375.2616,377.3557,377.3557,379.7439,return,0.0463,,49.47916667,0,59,59,58,1,FBP-YG-91.png,0.43,1.2,59,0.5,,,,,,,,,,,,,,,,,,,,,,,,,,,,,,,,,,,,,,,,,,,,,
,,,,,V2_005,22,Female,2024-03-01_09h29.05.468,jersey_experiment_5_v2,2023.2.2,Win32,85.47008547,,,,,,,,,,,,,,,,379.746,381.5911,381.5912,384.5208,return,0.9919,,100,,,,,,FBP-PT-91.png,0.45,1.2,15,0.25,0,0,0,14,1,,,,,,,,,,,,,,,,,,,,,,,,,,,,,,,,,,,,,,,,
,,,,,V2_005,22,Female,2024-03-01_09h29.05.468,jersey_experiment_5_v2,2023.2.2,Win32,85.47008547,,,,,,,,,,,,,,,,384.5212,386.3678,386.3679,387.9797,return,0.0617,,50.13020833,,,,,,FBP-PT-81.png,0.35,1.2,6,0.25,0,1,1,5,1,,,,,,,,,,,,,,,,,,,,,,,,,,,,,,,,,,,,,,,,
,,,,,V2_005,22,Female,2024-03-01_09h29.05.468,jersey_experiment_5_v2,2023.2.2,Win32,85.47008547,,,,,,,,,,,,,,,,387.9799,390.074,390.074,393.2856,return,1.2887,,25,,,,,,FBP-YG-18.png,0.37,1.2,52,0.5,0,2,2,51,1,,,,,,,,,,,,,,,,,,,,,,,,,,,,,,,,,,,,,,,,
,,,,,V2_005,22,Female,2024-03-01_09h29.05.468,jersey_experiment_5_v2,2023.2.2,Win32,85.47008547,,,,,,,,,,,,,,,,393.2858,395.1328,395.1329,399.3212,return,0.2053,,49.86979167,,,,,,FBP-PT-71.png,0.4,1.2,3,0.25,0,3,3,2,1,,,,,,,,,,,,,,,,,,,,,,,,,,,,,,,,,,,,,,,,
,,,,,V2_005,22,Female,2024-03-01_09h29.05.468,jersey_experiment_5_v2,2023.2.2,Win32,85.47008547,,,,,,,,,,,,,,,,399.3215,401.1682,401.1683,404.3449,return,0.2973,,75.13020833,,,,,,FBP-PT-81.png,0.45,1.2,10,0.25,0,4,4,9,1,,,,,,,,,,,,,,,,,,,,,,,,,,,,,,,,,,,,,,,,
,,,,,V2_005,22,Female,2024-03-01_09h29.05.468,jersey_experiment_5_v2,2023.2.2,Win32,85.47008547,,,,,,,,,,,,,,,,404.3453,406.4391,406.4392,409.8394,return,0.3206,,50.13020833,,,,,,FBP-OG-71.png,0.35,1.2,16,0.5,0,5,5,15,1,,,,,,,,,,,,,,,,,,,,,,,,,,,,,,,,,,,,,,,,
,,,,,V2_005,22,Female,2024-03-01_09h29.05.468,jersey_experiment_5_v2,2023.2.2,Win32,85.47008547,,,,,,,,,,,,,,,,409.8397,411.9334,411.9335,414.8866,return,0.243,,24.86979167,,,,,,FBP-RB-71.png,0.35,1.2,31,0.5,0,6,6,30,1,,,,,,,,,,,,,,,,,,,,,,,,,,,,,,,,,,,,,,,,
,,,,,V2_005,22,Female,2024-03-01_09h29.05.468,jersey_experiment_5_v2,2023.2.2,Win32,85.47008547,,,,,,,,,,,,,,,,414.8868,416.9807,416.9808,418.7336,return,0.2123,,74.86979167,,,,,,FBP-YG-18.png,0.45,1.2,55,0.5,0,7,7,54,1,,,,,,,,,,,,,,,,,,,,,,,,,,,,,,,,,,,,,,,,
,,,,,V2_005,22,Female,2024-03-01_09h29.05.468,jersey_experiment_5_v2,2023.2.2,Win32,85.47008547,,,,,,,,,,,,,,,,418.734,420.8396,420.8396,422.4632,return,0.1741,,49.73958333,,,,,,FBP-RB-71.png,0.4,1.2,33,0.5,0,8,8,32,1,,,,,,,,,,,,,,,,,,,,,,,,,,,,,,,,,,,,,,,,
,,,,,V2_005,22,Female,2024-03-01_09h29.05.468,jersey_experiment_5_v2,2023.2.2,Win32,85.47008547,,,,,,,,,,,,,,,,422.4633,424.322,424.3221,427.1341,return,0.1416,,49.609375,,,,,,FBP-PT-91.png,0.4,1.2,13,0.25,0,9,9,12,1,,,,,,,,,,,,,,,,,,,,,,,,,,,,,,,,,,,,,,,,
,,,,,V2_005,22,Female,2024-03-01_09h29.05.468,jersey_experiment_5_v2,2023.2.2,Win32,85.47008547,,,,,,,,,,,,,,,,427.1343,429.2282,429.2282,430.134,return,0.0554,,32.94270833,,,,,,FBP-OG-91.png,0.37,1.2,27,0.5,0,10,10,26,1,,,,,,,,,,,,,,,,,,,,,,,,,,,,,,,,,,,,,,,,
,,,,,V2_005,22,Female,2024-03-01_09h29.05.468,jersey_experiment_5_v2,2023.2.2,Win32,85.47008547,,,,,,,,,,,,,,,,430.1343,432.2283,432.2284,433.6872,return,0.054,,74.73958333,,,,,,FBP-YG-19.png,0.45,1.2,60,0.5,0,11,11,59,1,,,,,,,,,,,,,,,,,,,,,,,,,,,,,,,,,,,,,,,,
,,,,,V2_005,22,Female,2024-03-01_09h29.05.468,jersey_experiment_5_v2,2023.2.2,Win32,85.47008547,,,,,,,,,,,,,,,,433.6875,435.7813,435.7814,437.9462,return,0.1545,,25,,,,,,FBP-YG-19.png,0.35,1.2,56,0.5,0,12,12,55,1,,,,,,,,,,,,,,,,,,,,,,,,,,,,,,,,,,,,,,,,
,,,,,V2_005,22,Female,2024-03-01_09h29.05.468,jersey_experiment_5_v2,2023.2.2,Win32,85.47008547,,,,,,,,,,,,,,,,437.9464,440.0404,440.0404,442.2992,return,0.2478,,62.36979167,,,,,,FBP-OG-71.png,0.4,1.2,18,0.5,0,13,13,17,1,,,,,,,,,,,,,,,,,,,,,,,,,,,,,,,,,,,,,,,,
,,,,,V2_005,22,Female,2024-03-01_09h29.05.468,jersey_experiment_5_v2,2023.2.2,Win32,85.47008547,,,,,,,,,,,,,,,,442.2994,444.1464,444.1465,445.3581,return,0.1413,,60.546875,,,,,,FBP-PT-71.png,0.45,1.2,5,0.25,0,14,14,4,1,,,,,,,,,,,,,,,,,,,,,,,,,,,,,,,,,,,,,,,,
,,,,,V2_005,22,Female,2024-03-01_09h29.05.468,jersey_experiment_5_v2,2023.2.2,Win32,85.47008547,,,,,,,,,,,,,,,,445.3583,447.4524,447.4524,449.8524,return,0.5283,,61.97916667,,,,,,FBP-RB-91.png,0.43,1.2,44,0.5,0,15,15,43,1,,,,,,,,,,,,,,,,,,,,,,,,,,,,,,,,,,,,,,,,
,,,,,V2_005,22,Female,2024-03-01_09h29.05.468,jersey_experiment_5_v2,2023.2.2,Win32,85.47008547,,,,,,,,,,,,,,,,449.8525,451.9584,451.9584,453.3583,return,0.033,,49.73958333,,,,,,FBP-RB-81.png,0.35,1.2,36,0.5,0,16,16,35,1,,,,,,,,,,,,,,,,,,,,,,,,,,,,,,,,,,,,,,,,
,,,,,V2_005,22,Female,2024-03-01_09h29.05.468,jersey_experiment_5_v2,2023.2.2,Win32,85.47008547,,,,,,,,,,,,,,,,453.3586,455.4527,455.4527,456.2996,return,0.0593,,63.671875,,,,,,FBP-OG-91.png,0.45,1.2,30,0.5,0,17,17,29,1,,,,,,,,,,,,,,,,,,,,,,,,,,,,,,,,,,,,,,,,
,,,,,V2_005,22,Female,2024-03-01_09h29.05.468,jersey_experiment_5_v2,2023.2.2,Win32,85.47008547,,,,,,,,,,,,,,,,456.2999,458.1469,458.1469,460.8765,return,0.1087,,50.26041667,,,,,,FBP-PT-91.png,0.43,1.2,14,0.25,0,18,18,13,1,,,,,,,,,,,,,,,,,,,,,,,,,,,,,,,,,,,,,,,,
,,,,,V2_005,22,Female,2024-03-01_09h29.05.468,jersey_experiment_5_v2,2023.2.2,Win32,85.47008547,,,,,,,,,,,,,,,,460.8767,462.9707,462.9707,464.4294,return,0.1322,,74.73958333,,,,,,FBP-OG-71.png,0.43,1.2,19,0.5,0,19,19,18,1,,,,,,,,,,,,,,,,,,,,,,,,,,,,,,,,,,,,,,,,
,,,,,V2_005,22,Female,2024-03-01_09h29.05.468,jersey_experiment_5_v2,2023.2.2,Win32,85.47008547,,,,,,,,,,,,,,,,464.4297,466.5237,466.5237,468.3827,return,0.1411,,49.73958333,,,,,,FBP-OG-91.png,0.43,1.2,29,0.5,0,20,20,28,1,,,,,,,,,,,,,,,,,,,,,,,,,,,,,,,,,,,,,,,,
,,,,,V2_005,22,Female,2024-03-01_09h29.05.468,jersey_experiment_5_v2,2023.2.2,Win32,85.47008547,,,,,,,,,,,,,,,,468.3829,470.4885,470.4886,471.5827,return,0.1551,,25,,,,,,FBP-RB-91.png,0.35,1.2,41,0.5,0,21,21,40,1,,,,,,,,,,,,,,,,,,,,,,,,,,,,,,,,,,,,,,,,
,,,,,V2_005,22,Female,2024-03-01_09h29.05.468,jersey_experiment_5_v2,2023.2.2,Win32,85.47008547,,,,,,,,,,,,,,,,471.583,473.4297,473.4298,475.4063,return,0.4944,,49.86979167,,,,,,FBP-PT-81.png,0.37,1.2,7,0.25,0,22,22,6,1,,,,,,,,,,,,,,,,,,,,,,,,,,,,,,,,,,,,,,,,
,,,,,V2_005,22,Female,2024-03-01_09h29.05.468,jersey_experiment_5_v2,2023.2.2,Win32,85.47008547,,,,,,,,,,,,,,,,475.4066,477.5005,477.5005,479.63,return,0.8375,,25,,,,,,FBP-YG-19.png,0.37,1.2,57,0.5,0,23,23,56,1,,,,,,,,,,,,,,,,,,,,,,,,,,,,,,,,,,,,,,,,
,,,,,V2_005,22,Female,2024-03-01_09h29.05.468,jersey_experiment_5_v2,2023.2.2,Win32,85.47008547,,,,,,,,,,,,,,,,479.6303,481.7242,481.7243,484.3596,return,0.0748,,49.609375,,,,,,FBP-YG-19.png,0.4,1.2,58,0.5,0,24,24,57,1,,,,,,,,,,,,,,,,,,,,,,,,,,,,,,,,,,,,,,,,
,,,,,V2_005,22,Female,2024-03-01_09h29.05.468,jersey_experiment_5_v2,2023.2.2,Win32,85.47008547,,,,,,,,,,,,,,,,484.3599,486.4655,486.4655,488.1125,return,0.0805,,24.609375,,,,,,FBP-YG-17.png,0.4,1.2,48,0.5,0,25,25,47,1,,,,,,,,,,,,,,,,,,,,,,,,,,,,,,,,,,,,,,,,
,,,,,V2_005,22,Female,2024-03-01_09h29.05.468,jersey_experiment_5_v2,2023.2.2,Win32,85.47008547,,,,,,,,,,,,,,,,488.1127,490.2186,490.2187,491.5481,return,0.5436,,24.47916667,,,,,,FBP-RB-71.png,0.37,1.2,32,0.5,0,26,26,31,1,,,,,,,,,,,,,,,,,,,,,,,,,,,,,,,,,,,,,,,,
,,,,,V2_005,22,Female,2024-03-01_09h29.05.468,jersey_experiment_5_v2,2023.2.2,Win32,85.47008547,,,,,,,,,,,,,,,,491.5484,493.6424,493.6424,494.4893,return,0.1086,,49.47916667,,,,,,FBP-OG-81.png,0.43,1.2,24,0.5,0,27,27,23,1,,,,,,,,,,,,,,,,,,,,,,,,,,,,,,,,,,,,,,,,
,,,,,V2_005,22,Female,2024-03-01_09h29.05.468,jersey_experiment_5_v2,2023.2.2,Win32,85.47008547,,,,,,,,,,,,,,,,494.4896,496.5835,496.5835,498.2307,return,0.3936,,49.47916667,,,,,,FBP-OG-71.png,0.37,1.2,17,0.5,0,28,28,16,1,,,,,,,,,,,,,,,,,,,,,,,,,,,,,,,,,,,,,,,,
,,,,,V2_005,22,Female,2024-03-01_09h29.05.468,jersey_experiment_5_v2,2023.2.2,Win32,85.47008547,,,,,,,,,,,,,,,,498.2309,500.3248,500.3249,502.3485,return,0.2137,,25,,,,,,FBP-YG-17.png,0.37,1.2,47,0.5,0,29,29,46,1,,,,,,,,,,,,,,,,,,,,,,,,,,,,,,,,,,,,,,,,
,,,,,V2_005,22,Female,2024-03-01_09h29.05.468,jersey_experiment_5_v2,2023.2.2,Win32,85.47008547,,,,,,,,,,,,,,,,502.3487,504.4427,504.4427,507.7604,return,0.1501,,74.34895833,,,,,,FBP-OG-81.png,0.4,1.2,23,0.5,0,30,30,22,1,,,,,,,,,,,,,,,,,,,,,,,,,,,,,,,,,,,,,,,,
,,,,,V2_005,22,Female,2024-03-01_09h29.05.468,jersey_experiment_5_v2,2023.2.2,Win32,85.47008547,,,,,,,,,,,,,,,,507.7607,509.8546,509.8547,513.1607,return,0.0408,,49.34895833,,,,,,FBP-OG-81.png,0.37,1.2,22,0.5,0,31,31,21,1,,,,,,,,,,,,,,,,,,,,,,,,,,,,,,,,,,,,,,,,
,,,,,V2_005,22,Female,2024-03-01_09h29.05.468,jersey_experiment_5_v2,2023.2.2,Win32,85.47008547,,,,,,,,,,,,,,,,513.1609,515.2665,515.2666,516.4549,return,0.1462,,74.73958333,,,,,,FBP-RB-81.png,0.43,1.2,39,0.5,0,32,32,38,1,,,,,,,,,,,,,,,,,,,,,,,,,,,,,,,,,,,,,,,,
,,,,,V2_005,22,Female,2024-03-01_09h29.05.468,jersey_experiment_5_v2,2023.2.2,Win32,85.47008547,,,,,,,,,,,,,,,,516.4552,518.5608,518.5608,520.2079,return,0.1649,,82.16145833,,,,,,FBP-OG-81.png,0.45,1.2,25,0.5,0,33,33,24,1,,,,,,,,,,,,,,,,,,,,,,,,,,,,,,,,,,,,,,,,
,,,,,V2_005,22,Female,2024-03-01_09h29.05.468,jersey_experiment_5_v2,2023.2.2,Win32,85.47008547,,,,,,,,,,,,,,,,520.2082,522.0552,522.0553,524.0905,return,0.1543,,24.73958333,,,,,,FBP-PT-71.png,0.37,1.2,2,0.25,0,34,34,1,1,,,,,,,,,,,,,,,,,,,,,,,,,,,,,,,,,,,,,,,,
,,,,,V2_005,22,Female,2024-03-01_09h29.05.468,jersey_experiment_5_v2,2023.2.2,Win32,85.47008547,,,,,,,,,,,,,,,,524.0906,526.1847,526.1848,528.8906,return,1.2506,,62.36979167,,,,,,FBP-RB-91.png,0.45,1.2,45,0.5,0,35,35,44,1,,,,,,,,,,,,,,,,,,,,,,,,,,,,,,,,,,,,,,,,
,,,,,V2_005,22,Female,2024-03-01_09h29.05.468,jersey_experiment_5_v2,2023.2.2,Win32,85.47008547,,,,,,,,,,,,,,,,528.8909,530.985,530.985,532.6202,return,0.4001,,49.86979167,,,,,,FBP-OG-91.png,0.35,1.2,26,0.5,0,36,36,25,1,,,,,,,,,,,,,,,,,,,,,,,,,,,,,,,,,,,,,,,,
,,,,,V2_005,22,Female,2024-03-01_09h29.05.468,jersey_experiment_5_v2,2023.2.2,Win32,85.47008547,,,,,,,,,,,,,,,,532.6205,534.7145,534.7145,536.5026,return,0.2402,,61.71875,,,,,,FBP-YG-17.png,0.43,1.2,49,0.5,0,37,37,48,1,,,,,,,,,,,,,,,,,,,,,,,,,,,,,,,,,,,,,,,,
,,,,,V2_005,22,Female,2024-03-01_09h29.05.468,jersey_experiment_5_v2,2023.2.2,Win32,85.47008547,,,,,,,,,,,,,,,,536.5028,538.6086,538.6086,540.7263,return,0.2901,,74.73958333,,,,,,FBP-RB-71.png,0.43,1.2,34,0.5,0,38,38,33,1,,,,,,,,,,,,,,,,,,,,,,,,,,,,,,,,,,,,,,,,
,,,,,V2_005,22,Female,2024-03-01_09h29.05.468,jersey_experiment_5_v2,2023.2.2,Win32,85.47008547,,,,,,,,,,,,,,,,540.7266,542.8206,542.8206,545.256,return,0.1919,,49.609375,,,,,,FBP-OG-71.png,0.45,1.2,20,0.5,0,39,39,19,1,,,,,,,,,,,,,,,,,,,,,,,,,,,,,,,,,,,,,,,,
,,,,,V2_005,22,Female,2024-03-01_09h29.05.468,jersey_experiment_5_v2,2023.2.2,Win32,85.47008547,,,,,,,,,,,,,,,,545.2562,547.1149,547.1149,555.468,return,3.4833,,62.36979167,,,,,,FBP-PT-71.png,0.43,1.2,4,0.25,0,40,40,3,1,,,,,,,,,,,,,,,,,,,,,,,,,,,,,,,,,,,,,,,,
,,,,,V2_005,22,Female,2024-03-01_09h29.05.468,jersey_experiment_5_v2,2023.2.2,Win32,85.47008547,,,,,,,,,,,,,,,,555.4682,557.5624,557.5624,560.821,return,0.2917,,74.08854167,,,,,,FBP-RB-71.png,0.45,1.2,35,0.5,0,41,41,34,1,,,,,,,,,,,,,,,,,,,,,,,,,,,,,,,,,,,,,,,,
,,,,,V2_005,22,Female,2024-03-01_09h29.05.468,jersey_experiment_5_v2,2023.2.2,Win32,85.47008547,,,,,,,,,,,,,,,,560.8213,562.9155,562.9156,563.9271,return,0.1485,,62.23958333,,,,,,FBP-YG-18.png,0.4,1.2,53,0.5,0,42,42,52,1,,,,,,,,,,,,,,,,,,,,,,,,,,,,,,,,,,,,,,,,
,,,,,V2_005,22,Female,2024-03-01_09h29.05.468,jersey_experiment_5_v2,2023.2.2,Win32,85.47008547,,,,,,,,,,,,,,,,563.9275,566.0214,566.0214,569.9157,return,0.0855,,62.5,,,,,,FBP-YG-17.png,0.35,1.2,46,0.5,0,43,43,45,1,,,,,,,,,,,,,,,,,,,,,,,,,,,,,,,,,,,,,,,,
,,,,,V2_005,22,Female,2024-03-01_09h29.05.468,jersey_experiment_5_v2,2023.2.2,Win32,85.47008547,,,,,,,,,,,,,,,,569.9159,572.01,572.0101,573.8451,return,0.3124,,24.34895833,,,,,,FBP-RB-91.png,0.37,1.2,42,0.5,0,44,44,41,1,,,,,,,,,,,,,,,,,,,,,,,,,,,,,,,,,,,,,,,,
,,,,,V2_005,22,Female,2024-03-01_09h29.05.468,jersey_experiment_5_v2,2023.2.2,Win32,85.47008547,,,,,,,,,,,,,,,,573.8454,575.6924,575.6924,576.9748,return,0.1556,,25.390625,,,,,,FBP-PT-71.png,0.35,1.2,1,0.25,0,45,45,0,1,,,,,,,,,,,,,,,,,,,,,,,,,,,,,,,,,,,,,,,,
,,,,,V2_005,22,Female,2024-03-01_09h29.05.468,jersey_experiment_5_v2,2023.2.2,Win32,85.47008547,,,,,,,,,,,,,,,,576.975,579.0807,579.0808,579.7866,return,0.098,,25.390625,,,,,,FBP-RB-81.png,0.4,1.2,38,0.5,0,46,46,37,1,,,,,,,,,,,,,,,,,,,,,,,,,,,,,,,,,,,,,,,,
,,,,,V2_005,22,Female,2024-03-01_09h29.05.468,jersey_experiment_5_v2,2023.2.2,Win32,85.47008547,,,,,,,,,,,,,,,,579.7867,581.8809,581.8809,583.1045,return,0.0238,,50,,,,,,FBP-YG-19.png,0.43,1.2,59,0.5,0,47,47,58,1,,,,,,,,,,,,,,,,,,,,,,,,,,,,,,,,,,,,,,,,
,,,,,V2_005,22,Female,2024-03-01_09h29.05.468,jersey_experiment_5_v2,2023.2.2,Win32,85.47008547,,,,,,,,,,,,,,,,583.1047,585.1986,585.1986,589.5281,return,0.6181,,49.34895833,,,,,,FBP-RB-81.png,0.45,1.2,40,0.5,0,48,48,39,1,,,,,,,,,,,,,,,,,,,,,,,,,,,,,,,,,,,,,,,,
,,,,,V2_005,22,Female,2024-03-01_09h29.05.468,jersey_experiment_5_v2,2023.2.2,Win32,85.47008547,,,,,,,,,,,,,,,,589.5283,591.3753,591.3753,592.3047,return,0.0232,,63.28125,,,,,,FBP-PT-81.png,0.43,1.2,9,0.25,0,49,49,8,1,,,,,,,,,,,,,,,,,,,,,,,,,,,,,,,,,,,,,,,,
,,,,,V2_005,22,Female,2024-03-01_09h29.05.468,jersey_experiment_5_v2,2023.2.2,Win32,85.47008547,,,,,,,,,,,,,,,,592.3049,594.1522,594.1523,595.0342,return,0.0515,,50,,,,,,FBP-PT-91.png,0.37,1.2,12,0.25,0,50,50,11,1,,,,,,,,,,,,,,,,,,,,,,,,,,,,,,,,,,,,,,,,
,,,,,V2_005,22,Female,2024-03-01_09h29.05.468,jersey_experiment_5_v2,2023.2.2,Win32,85.47008547,,,,,,,,,,,,,,,,595.0345,596.893,596.8931,597.6461,return,0.0472,,50,,,,,,FBP-PT-91.png,0.35,1.2,11,0.25,0,51,51,10,1,,,,,,,,,,,,,,,,,,,,,,,,,,,,,,,,,,,,,,,,
,,,,,V2_005,22,Female,2024-03-01_09h29.05.468,jersey_experiment_5_v2,2023.2.2,Win32,85.47008547,,,,,,,,,,,,,,,,597.6463,599.7523,599.7524,601.2109,return,0.3537,,36.328125,,,,,,FBP-YG-18.png,0.35,1.2,51,0.5,0,52,52,50,1,,,,,,,,,,,,,,,,,,,,,,,,,,,,,,,,,,,,,,,,
,,,,,V2_005,22,Female,2024-03-01_09h29.05.468,jersey_experiment_5_v2,2023.2.2,Win32,85.47008547,,,,,,,,,,,,,,,,601.2111,603.3054,603.3054,604.5758,return,0.0475,,24.609375,,,,,,FBP-RB-81.png,0.37,1.2,37,0.5,0,53,53,36,1,,,,,,,,,,,,,,,,,,,,,,,,,,,,,,,,,,,,,,,,
,,,,,V2_005,22,Female,2024-03-01_09h29.05.468,jersey_experiment_5_v2,2023.2.2,Win32,85.47008547,,,,,,,,,,,,,,,,604.576,606.4229,606.4229,607.9994,return,0.118,,50.13020833,,,,,,FBP-PT-81.png,0.4,1.2,8,0.25,0,54,54,7,1,,,,,,,,,,,,,,,,,,,,,,,,,,,,,,,,,,,,,,,,
,,,,,V2_005,22,Female,2024-03-01_09h29.05.468,jersey_experiment_5_v2,2023.2.2,Win32,85.47008547,,,,,,,,,,,,,,,,607.9997,610.0935,610.0936,611.8701,return,0.3295,,74.47916667,,,,,,FBP-YG-17.png,0.45,1.2,50,0.5,0,55,55,49,1,,,,,,,,,,,,,,,,,,,,,,,,,,,,,,,,,,,,,,,,
,,,,,V2_005,22,Female,2024-03-01_09h29.05.468,jersey_experiment_5_v2,2023.2.2,Win32,85.47008547,,,,,,,,,,,,,,,,611.8703,613.9761,613.9761,615.5761,return,0.171,,74.86979167,,,,,,FBP-YG-18.png,0.43,1.2,54,0.5,0,56,56,53,1,,,,,,,,,,,,,,,,,,,,,,,,,,,,,,,,,,,,,,,,
,,,,,V2_005,22,Female,2024-03-01_09h29.05.468,jersey_experiment_5_v2,2023.2.2,Win32,85.47008547,,,,,,,,,,,,,,,,615.5764,617.6705,617.6705,620.941,return,0.1989,,50,,,,,,FBP-OG-91.png,0.4,1.2,28,0.5,0,57,57,27,1,,,,,,,,,,,,,,,,,,,,,,,,,,,,,,,,,,,,,,,,
,,,,,V2_005,22,Female,2024-03-01_09h29.05.468,jersey_experiment_5_v2,2023.2.2,Win32,85.47008547,,,,,,,,,,,,,,,,620.9413,623.0471,623.0471,624.6,return,0.1827,,24.86979167,,,,,,FBP-OG-81.png,0.35,1.2,21,0.5,0,58,58,20,1,,,,,,,,,,,,,,,,,,,,,,,,,,,,,,,,,,,,,,,,
,,,,,V2_005,22,Female,2024-03-01_09h29.05.468,jersey_experiment_5_v2,2023.2.2,Win32,85.47008547,,,,,,,,,,,,,,,,624.6002,626.6942,626.6942,630.6826,return,0.498,,25,,,,,,FBP-RB-91.png,0.4,1.2,43,0.5,0,59,59,42,1,,,,,,,,,,,,,,,,,,,,,,,,,,,,,,,,,,,,,,,,
,,,,,V2_005,22,Female,2024-03-01_09h29.05.468,jersey_experiment_5_v2,2023.2.2,Win32,85.47008547,,,,,,,,,,,,,,,,,,,,,,,,,,,,,,,,,,,,,,,630.6831,750.6757,,,,,,,,,,,,,,,,,,,,,,,,,,,,,,,,,,,,,,
,,,,,V2_005,22,Female,2024-03-01_09h29.05.468,jersey_experiment_5_v2,2023.2.2,Win32,85.47008547,,,,,,,,,,,,,,,,,,,,,,,,,,,,,,,,,,,,,,,,,750.6757,755.8051,return,5.1191,,,,,,,,,,,,,,,,,,,,,,,,,,,,,,,,,,
,,,,,V2_005,22,Female,2024-03-01_09h29.05.468,jersey_experiment_5_v2,2023.2.2,Win32,85.47008547,,,,,,,,,,,,,,,,755.8115,757.9109,757.911,761.8992,return,0.8005,,50,,,,,,FBP-PT-17.png,0.43,1.2,4,0.5,,,,,,,,,,,,,0,0,0,3,1,,,,,,,,,,,,,,,,,,,,,,,,,,,,
,,,,,V2_005,22,Female,2024-03-01_09h29.05.468,jersey_experiment_5_v2,2023.2.2,Win32,85.47008547,,,,,,,,,,,,,,,,761.8997,763.7463,763.7463,764.9346,return,0.0664,,24.86979167,,,,,,FBP-YG-71.png,0.35,1.2,46,0.25,,,,,,,,,,,,,0,1,1,45,1,,,,,,,,,,,,,,,,,,,,,,,,,,,,
,,,,,V2_005,22,Female,2024-03-01_09h29.05.468,jersey_experiment_5_v2,2023.2.2,Win32,85.47008547,,,,,,,,,,,,,,,,764.9349,766.7936,766.7936,768.0407,return,0.0267,,75.13020833,,,,,,FBP-YG-71.png,0.4,1.2,48,0.25,,,,,,,,,,,,,0,2,2,47,1,,,,,,,,,,,,,,,,,,,,,,,,,,,,
,,,,,V2_005,22,Female,2024-03-01_09h29.05.468,jersey_experiment_5_v2,2023.2.2,Win32,85.47008547,,,,,,,,,,,,,,,,768.0409,769.8877,769.8877,772.0052,return,0.0795,,24.73958333,,,,,,FBP-RB-17.png,0.35,1.2,31,0.25,,,,,,,,,,,,,0,3,3,30,1,,,,,,,,,,,,,,,,,,,,,,,,,,,,
,,,,,V2_005,22,Female,2024-03-01_09h29.05.468,jersey_experiment_5_v2,2023.2.2,Win32,85.47008547,,,,,,,,,,,,,,,,772.0055,773.8528,773.8529,775.0526,return,0.0003,,74.73958333,,,,,,FBP-YG-71.png,0.43,1.2,49,0.25,,,,,,,,,,,,,0,4,4,48,1,,,,,,,,,,,,,,,,,,,,,,,,,,,,
,,,,,V2_005,22,Female,2024-03-01_09h29.05.468,jersey_experiment_5_v2,2023.2.2,Win32,85.47008547,,,,,,,,,,,,,,,,775.0528,776.9115,776.9116,777.5938,return,0.0023,,49.73958333,,,,,,FBP-YG-81.png,0.35,1.2,51,0.25,,,,,,,,,,,,,0,5,5,50,1,,,,,,,,,,,,,,,,,,,,,,,,,,,,
,,,,,V2_005,22,Female,2024-03-01_09h29.05.468,jersey_experiment_5_v2,2023.2.2,Win32,85.47008547,,,,,,,,,,,,,,,,777.594,779.4409,779.441,782.1704,return,0.2719,,99.21875,,,,,,FBP-OG-18.png,0.45,1.2,25,0.25,,,,,,,,,,,,,0,6,6,24,1,,,,,,,,,,,,,,,,,,,,,,,,,,,,
,,,,,V2_005,22,Female,2024-03-01_09h29.05.468,jersey_experiment_5_v2,2023.2.2,Win32,85.47008547,,,,,,,,,,,,,,,,782.1707,784.0178,784.0179,785.5472,return,0.2358,,49.21875,,,,,,FBP-RB-17.png,0.4,1.2,33,0.25,,,,,,,,,,,,,0,7,7,32,1,,,,,,,,,,,,,,,,,,,,,,,,,,,,
,,,,,V2_005,22,Female,2024-03-01_09h29.05.468,jersey_experiment_5_v2,2023.2.2,Win32,85.47008547,,,,,,,,,,,,,,,,785.5474,787.406,787.4061,788.8414,return,0.04,,38.28125,,,,,,FBP-OG-17.png,0.35,1.2,16,0.25,,,,,,,,,,,,,0,8,8,15,1,,,,,,,,,,,,,,,,,,,,,,,,,,,,
,,,,,V2_005,22,Female,2024-03-01_09h29.05.468,jersey_experiment_5_v2,2023.2.2,Win32,85.47008547,,,,,,,,,,,,,,,,788.8416,790.9357,790.9357,791.9474,return,0.0012,,50,,,,,,FBP-PT-17.png,0.37,1.2,2,0.5,,,,,,,,,,,,,0,9,9,1,1,,,,,,,,,,,,,,,,,,,,,,,,,,,,
,,,,,V2_005,22,Female,2024-03-01_09h29.05.468,jersey_experiment_5_v2,2023.2.2,Win32,85.47008547,,,,,,,,,,,,,,,,791.9477,793.8062,793.8063,794.4299,return,0.0802,,49.34895833,,,,,,FBP-YG-81.png,0.37,1.2,52,0.25,,,,,,,,,,,,,0,10,10,51,1,,,,,,,,,,,,,,,,,,,,,,,,,,,,
,,,,,V2_005,22,Female,2024-03-01_09h29.05.468,jersey_experiment_5_v2,2023.2.2,Win32,85.47008547,,,,,,,,,,,,,,,,794.4301,796.277,796.277,797.6534,return,0.2206,,49.21875,,,,,,FBP-OG-19.png,0.4,1.2,28,0.25,,,,,,,,,,,,,0,11,11,27,1,,,,,,,,,,,,,,,,,,,,,,,,,,,,
,,,,,V2_005,22,Female,2024-03-01_09h29.05.468,jersey_experiment_5_v2,2023.2.2,Win32,85.47008547,,,,,,,,,,,,,,,,797.6535,799.5009,799.501,802.3125,return,0.1472,,75.26041667,,,,,,FBP-OG-17.png,0.45,1.2,20,0.25,,,,,,,,,,,,,0,12,12,19,1,,,,,,,,,,,,,,,,,,,,,,,,,,,,
,,,,,V2_005,22,Female,2024-03-01_09h29.05.468,jersey_experiment_5_v2,2023.2.2,Win32,85.47008547,,,,,,,,,,,,,,,,802.3126,804.4067,804.4067,807.0772,return,0.209,,99.609375,,,,,,FBP-PT-18.png,0.45,1.2,10,0.5,,,,,,,,,,,,,0,13,13,9,1,,,,,,,,,,,,,,,,,,,,,,,,,,,,
,,,,,V2_005,22,Female,2024-03-01_09h29.05.468,jersey_experiment_5_v2,2023.2.2,Win32,85.47008547,,,,,,,,,,,,,,,,807.0774,808.9245,808.9246,810.2773,return,0.0915,,50.13020833,,,,,,FBP-OG-18.png,0.4,1.2,23,0.25,,,,,,,,,,,,,0,14,14,22,1,,,,,,,,,,,,,,,,,,,,,,,,,,,,
,,,,,V2_005,22,Female,2024-03-01_09h29.05.468,jersey_experiment_5_v2,2023.2.2,Win32,85.47008547,,,,,,,,,,,,,,,,810.2776,812.3834,812.3835,813.5835,return,0.0943,,25.52083333,,,,,,FBP-PT-17.png,0.35,1.2,1,0.5,,,,,,,,,,,,,0,15,15,0,1,,,,,,,,,,,,,,,,,,,,,,,,,,,,
,,,,,V2_005,22,Female,2024-03-01_09h29.05.468,jersey_experiment_5_v2,2023.2.2,Win32,85.47008547,,,,,,,,,,,,,,,,813.5837,815.4308,815.4308,817.0071,return,0.0229,,63.02083333,,,,,,FBP-OG-19.png,0.45,1.2,30,0.25,,,,,,,,,,,,,0,16,16,29,1,,,,,,,,,,,,,,,,,,,,,,,,,,,,
,,,,,V2_005,22,Female,2024-03-01_09h29.05.468,jersey_experiment_5_v2,2023.2.2,Win32,85.47008547,,,,,,,,,,,,,,,,817.0073,819.1012,819.1013,820.0426,return,0.0481,,50,,,,,,FBP-PT-19.png,0.4,1.2,13,0.5,,,,,,,,,,,,,0,17,17,12,1,,,,,,,,,,,,,,,,,,,,,,,,,,,,
,,,,,V2_005,22,Female,2024-03-01_09h29.05.468,jersey_experiment_5_v2,2023.2.2,Win32,85.47008547,,,,,,,,,,,,,,,,820.0427,822.1369,822.1369,825.419,return,1.9563,,75.13020833,,,,,,FBP-PT-19.png,0.45,1.2,15,0.5,,,,,,,,,,,,,0,18,18,14,1,,,,,,,,,,,,,,,,,,,,,,,,,,,,
,,,,,V2_005,22,Female,2024-03-01_09h29.05.468,jersey_experiment_5_v2,2023.2.2,Win32,85.47008547,,,,,,,,,,,,,,,,825.4193,827.2663,827.2664,828.6311,return,0.2173,,49.47916667,,,,,,FBP-YG-91.png,0.45,1.2,60,0.25,,,,,,,,,,,,,0,19,19,59,1,,,,,,,,,,,,,,,,,,,,,,,,,,,,
,,,,,V2_005,22,Female,2024-03-01_09h29.05.468,jersey_experiment_5_v2,2023.2.2,Win32,85.47008547,,,,,,,,,,,,,,,,828.6314,830.4782,830.4782,832.3019,return,0.2023,,24.609375,,,,,,FBP-OG-19.png,0.37,1.2,27,0.25,,,,,,,,,,,,,0,20,20,26,1,,,,,,,,,,,,,,,,,,,,,,,,,,,,
,,,,,V2_005,22,Female,2024-03-01_09h29.05.468,jersey_experiment_5_v2,2023.2.2,Win32,85.47008547,,,,,,,,,,,,,,,,832.3021,834.1489,834.149,842.3256,return,6.3027,,49.86979167,,,,,,FBP-YG-71.png,0.37,1.2,47,0.25,,,,,,,,,,,,,0,21,21,46,1,,,,,,,,,,,,,,,,,,,,,,,,,,,,
,,,,,V2_005,22,Female,2024-03-01_09h29.05.468,jersey_experiment_5_v2,2023.2.2,Win32,85.47008547,,,,,,,,,,,,,,,,842.3259,844.1846,844.1846,845.7258,return,0.1506,,24.86979167,,,,,,FBP-RB-19.png,0.4,1.2,43,0.25,,,,,,,,,,,,,0,22,22,42,1,,,,,,,,,,,,,,,,,,,,,,,,,,,,
,,,,,V2_005,22,Female,2024-03-01_09h29.05.468,jersey_experiment_5_v2,2023.2.2,Win32,85.47008547,,,,,,,,,,,,,,,,845.726,847.5846,847.5846,849.0554,return,0.0236,,50,,,,,,FBP-OG-18.png,0.35,1.2,21,0.25,,,,,,,,,,,,,0,23,23,20,1,,,,,,,,,,,,,,,,,,,,,,,,,,,,
,,,,,V2_005,22,Female,2024-03-01_09h29.05.468,jersey_experiment_5_v2,2023.2.2,Win32,85.47008547,,,,,,,,,,,,,,,,849.0557,850.9024,850.9024,852.4554,return,0.2042,,65.234375,,,,,,FBP-RB-17.png,0.37,1.2,32,0.25,,,,,,,,,,,,,0,24,24,31,1,,,,,,,,,,,,,,,,,,,,,,,,,,,,
,,,,,V2_005,22,Female,2024-03-01_09h29.05.468,jersey_experiment_5_v2,2023.2.2,Win32,85.47008547,,,,,,,,,,,,,,,,852.4556,854.3145,854.3146,856.7731,return,0.0445,,24.609375,,,,,,FBP-RB-18.png,0.37,1.2,37,0.25,,,,,,,,,,,,,0,25,25,36,1,,,,,,,,,,,,,,,,,,,,,,,,,,,,
,,,,,V2_005,22,Female,2024-03-01_09h29.05.468,jersey_experiment_5_v2,2023.2.2,Win32,85.47008547,,,,,,,,,,,,,,,,856.7734,858.6322,858.6322,860.8087,return,0.029,,50,,,,,,FBP-RB-18.png,0.43,1.2,39,0.25,,,,,,,,,,,,,0,26,26,38,1,,,,,,,,,,,,,,,,,,,,,,,,,,,,
,,,,,V2_005,22,Female,2024-03-01_09h29.05.468,jersey_experiment_5_v2,2023.2.2,Win32,85.47008547,,,,,,,,,,,,,,,,860.8088,862.6559,862.656,864.2559,return,0.0143,,74.86979167,,,,,,FBP-RB-17.png,0.43,1.2,34,0.25,,,,,,,,,,,,,0,27,27,33,1,,,,,,,,,,,,,,,,,,,,,,,,,,,,
,,,,,V2_005,22,Female,2024-03-01_09h29.05.468,jersey_experiment_5_v2,2023.2.2,Win32,85.47008547,,,,,,,,,,,,,,,,864.2562,866.3501,866.3502,867.0207,return,0.1993,,74.86979167,,,,,,FBP-PT-19.png,0.43,1.2,14,0.5,,,,,,,,,,,,,0,28,28,13,1,,,,,,,,,,,,,,,,,,,,,,,,,,,,
,,,,,V2_005,22,Female,2024-03-01_09h29.05.468,jersey_experiment_5_v2,2023.2.2,Win32,85.47008547,,,,,,,,,,,,,,,,867.0209,868.8678,868.8678,869.4561,return,0.0945,,74.609375,,,,,,FBP-RB-19.png,0.45,1.2,45,0.25,,,,,,,,,,,,,0,29,29,44,1,,,,,,,,,,,,,,,,,,,,,,,,,,,,
,,,,,V2_005,22,Female,2024-03-01_09h29.05.468,jersey_experiment_5_v2,2023.2.2,Win32,85.47008547,,,,,,,,,,,,,,,,869.4564,871.5504,871.5505,872.8562,return,0.0865,,49.21875,,,,,,FBP-PT-17.png,0.4,1.2,3,0.5,,,,,,,,,,,,,0,30,30,2,1,,,,,,,,,,,,,,,,,,,,,,,,,,,,
,,,,,V2_005,22,Female,2024-03-01_09h29.05.468,jersey_experiment_5_v2,2023.2.2,Win32,85.47008547,,,,,,,,,,,,,,,,872.8564,874.7034,874.7035,875.7033,return,0.0538,,99.34895833,,,,,,FBP-YG-81.png,0.45,1.2,55,0.25,,,,,,,,,,,,,0,31,31,54,1,,,,,,,,,,,,,,,,,,,,,,,,,,,,
,,,,,V2_005,22,Female,2024-03-01_09h29.05.468,jersey_experiment_5_v2,2023.2.2,Win32,85.47008547,,,,,,,,,,,,,,,,875.7035,877.5506,877.5507,879.7506,return,0.1724,,24.609375,,,,,,FBP-RB-18.png,0.35,1.2,36,0.25,,,,,,,,,,,,,0,32,32,35,1,,,,,,,,,,,,,,,,,,,,,,,,,,,,
,,,,,V2_005,22,Female,2024-03-01_09h29.05.468,jersey_experiment_5_v2,2023.2.2,Win32,85.47008547,,,,,,,,,,,,,,,,879.7508,881.6094,881.6094,883.1152,return,0.1777,,0.651041667,,,,,,FBP-YG-91.png,0.35,1.2,56,0.25,,,,,,,,,,,,,0,33,33,55,1,,,,,,,,,,,,,,,,,,,,,,,,,,,,
,,,,,V2_005,22,Female,2024-03-01_09h29.05.468,jersey_experiment_5_v2,2023.2.2,Win32,85.47008547,,,,,,,,,,,,,,,,883.1154,885.2213,885.2213,886.5038,return,0.0626,,25.26041667,,,,,,FBP-PT-18.png,0.37,1.2,7,0.5,,,,,,,,,,,,,0,34,34,6,1,,,,,,,,,,,,,,,,,,,,,,,,,,,,
,,,,,V2_005,22,Female,2024-03-01_09h29.05.468,jersey_experiment_5_v2,2023.2.2,Win32,85.47008547,,,,,,,,,,,,,,,,886.504,888.598,888.5981,889.9039,return,0.038,,75.26041667,,,,,,FBP-PT-17.png,0.45,1.2,5,0.5,,,,,,,,,,,,,0,35,35,4,1,,,,,,,,,,,,,,,,,,,,,,,,,,,,
,,,,,V2_005,22,Female,2024-03-01_09h29.05.468,jersey_experiment_5_v2,2023.2.2,Win32,85.47008547,,,,,,,,,,,,,,,,889.9042,891.751,891.751,893.7863,return,0.001,,49.73958333,,,,,,FBP-RB-18.png,0.4,1.2,38,0.25,,,,,,,,,,,,,0,36,36,37,1,,,,,,,,,,,,,,,,,,,,,,,,,,,,
,,,,,V2_005,22,Female,2024-03-01_09h29.05.468,jersey_experiment_5_v2,2023.2.2,Win32,85.47008547,,,,,,,,,,,,,,,,893.7865,895.6336,895.6336,896.9865,return,0.0023,,26.171875,,,,,,FBP-RB-19.png,0.35,1.2,41,0.25,,,,,,,,,,,,,0,37,37,40,1,,,,,,,,,,,,,,,,,,,,,,,,,,,,
,,,,,V2_005,22,Female,2024-03-01_09h29.05.468,jersey_experiment_5_v2,2023.2.2,Win32,85.47008547,,,,,,,,,,,,,,,,896.9867,898.8337,898.8337,901.0806,return,0.427,,50.65104167,,,,,,FBP-RB-19.png,0.37,1.2,42,0.25,,,,,,,,,,,,,0,38,38,41,1,,,,,,,,,,,,,,,,,,,,,,,,,,,,
,,,,,V2_005,22,Female,2024-03-01_09h29.05.468,jersey_experiment_5_v2,2023.2.2,Win32,85.47008547,,,,,,,,,,,,,,,,901.0809,903.175,903.175,905.2691,return,0.1152,,73.95833333,,,,,,FBP-PT-18.png,0.43,1.2,9,0.5,,,,,,,,,,,,,0,39,39,8,1,,,,,,,,,,,,,,,,,,,,,,,,,,,,
,,,,,V2_005,22,Female,2024-03-01_09h29.05.468,jersey_experiment_5_v2,2023.2.2,Win32,85.47008547,,,,,,,,,,,,,,,,905.2694,907.1163,907.1163,908.9399,return,0.0003,,50.26041667,,,,,,FBP-OG-17.png,0.37,1.2,17,0.25,,,,,,,,,,,,,0,40,40,16,1,,,,,,,,,,,,,,,,,,,,,,,,,,,,
,,,,,V2_005,22,Female,2024-03-01_09h29.05.468,jersey_experiment_5_v2,2023.2.2,Win32,85.47008547,,,,,,,,,,,,,,,,908.9401,911.0459,911.0459,912.2458,return,0.3,,49.08854167,,,,,,FBP-PT-18.png,0.35,1.2,6,0.5,,,,,,,,,,,,,0,41,41,5,1,,,,,,,,,,,,,,,,,,,,,,,,,,,,
,,,,,V2_005,22,Female,2024-03-01_09h29.05.468,jersey_experiment_5_v2,2023.2.2,Win32,85.47008547,,,,,,,,,,,,,,,,912.2459,914.34,914.3401,916.2342,return,0.2983,,49.21875,,,,,,FBP-PT-19.png,0.37,1.2,12,0.5,,,,,,,,,,,,,0,42,42,11,1,,,,,,,,,,,,,,,,,,,,,,,,,,,,
,,,,,V2_005,22,Female,2024-03-01_09h29.05.468,jersey_experiment_5_v2,2023.2.2,Win32,85.47008547,,,,,,,,,,,,,,,,916.2344,918.0813,918.0814,920.5874,return,0.1176,,12.36979167,,,,,,FBP-YG-91.png,0.37,1.2,57,0.25,,,,,,,,,,,,,0,43,43,56,1,,,,,,,,,,,,,,,,,,,,,,,,,,,,
,,,,,V2_005,22,Female,2024-03-01_09h29.05.468,jersey_experiment_5_v2,2023.2.2,Win32,85.47008547,,,,,,,,,,,,,,,,920.5876,922.4345,922.4346,925.658,return,1.2038,,75,,,,,,FBP-RB-19.png,0.43,1.2,44,0.25,,,,,,,,,,,,,0,44,44,43,1,,,,,,,,,,,,,,,,,,,,,,,,,,,,
,,,,,V2_005,22,Female,2024-03-01_09h29.05.468,jersey_experiment_5_v2,2023.2.2,Win32,85.47008547,,,,,,,,,,,,,,,,925.6583,927.5058,927.5058,929.4465,return,0.064,,100,,,,,,FBP-RB-17.png,0.45,1.2,35,0.25,,,,,,,,,,,,,0,45,45,34,1,,,,,,,,,,,,,,,,,,,,,,,,,,,,
,,,,,V2_005,22,Female,2024-03-01_09h29.05.468,jersey_experiment_5_v2,2023.2.2,Win32,85.47008547,,,,,,,,,,,,,,,,929.4468,931.2937,931.2938,933.3879,return,0.0859,,74.73958333,,,,,,FBP-YG-71.png,0.45,1.2,50,0.25,,,,,,,,,,,,,0,46,46,49,1,,,,,,,,,,,,,,,,,,,,,,,,,,,,
,,,,,V2_005,22,Female,2024-03-01_09h29.05.468,jersey_experiment_5_v2,2023.2.2,Win32,85.47008547,,,,,,,,,,,,,,,,933.3883,935.2349,935.235,936.5056,return,0.1319,,49.609375,,,,,,FBP-YG-91.png,0.4,1.2,58,0.25,,,,,,,,,,,,,0,47,47,57,1,,,,,,,,,,,,,,,,,,,,,,,,,,,,
,,,,,V2_005,22,Female,2024-03-01_09h29.05.468,jersey_experiment_5_v2,2023.2.2,Win32,85.47008547,,,,,,,,,,,,,,,,936.5058,938.3646,938.3646,940.0116,return,0.0031,,100,,,,,,FBP-OG-19.png,0.43,1.2,29,0.25,,,,,,,,,,,,,0,48,48,28,1,,,,,,,,,,,,,,,,,,,,,,,,,,,,
,,,,,V2_005,22,Female,2024-03-01_09h29.05.468,jersey_experiment_5_v2,2023.2.2,Win32,85.47008547,,,,,,,,,,,,,,,,940.0118,941.8589,941.8589,944.9999,return,1.8746,,90.75520833,,,,,,FBP-OG-17.png,0.43,1.2,19,0.25,,,,,,,,,,,,,0,49,49,18,1,,,,,,,,,,,,,,,,,,,,,,,,,,,,
,,,,,V2_005,22,Female,2024-03-01_09h29.05.468,jersey_experiment_5_v2,2023.2.2,Win32,85.47008547,,,,,,,,,,,,,,,,945.0001,946.8588,946.8588,951.0473,return,0.5339,,57.421875,,,,,,FBP-YG-81.png,0.4,1.2,53,0.25,,,,,,,,,,,,,0,50,50,52,1,,,,,,,,,,,,,,,,,,,,,,,,,,,,
,,,,,V2_005,22,Female,2024-03-01_09h29.05.468,jersey_experiment_5_v2,2023.2.2,Win32,85.47008547,,,,,,,,,,,,,,,,951.0475,952.8946,952.8946,957.177,return,0.4645,,0.911458333,,,,,,FBP-OG-19.png,0.35,1.2,26,0.25,,,,,,,,,,,,,0,51,51,25,1,,,,,,,,,,,,,,,,,,,,,,,,,,,,
,,,,,V2_005,22,Female,2024-03-01_09h29.05.468,jersey_experiment_5_v2,2023.2.2,Win32,85.47008547,,,,,,,,,,,,,,,,957.1772,959.024,959.024,960.8122,return,0.059,,74.73958333,,,,,,FBP-YG-81.png,0.43,1.2,54,0.25,,,,,,,,,,,,,0,52,52,53,1,,,,,,,,,,,,,,,,,,,,,,,,,,,,
,,,,,V2_005,22,Female,2024-03-01_09h29.05.468,jersey_experiment_5_v2,2023.2.2,Win32,85.47008547,,,,,,,,,,,,,,,,960.8125,962.6712,962.6713,967.2244,return,0.4176,,99.609375,,,,,,FBP-RB-18.png,0.45,1.2,40,0.25,,,,,,,,,,,,,0,53,53,39,1,,,,,,,,,,,,,,,,,,,,,,,,,,,,
,,,,,V2_005,22,Female,2024-03-01_09h29.05.468,jersey_experiment_5_v2,2023.2.2,Win32,85.47008547,,,,,,,,,,,,,,,,967.2246,969.0716,969.0717,970.7774,return,0.073,,100,,,,,,FBP-YG-91.png,0.43,1.2,59,0.25,,,,,,,,,,,,,0,54,54,58,1,,,,,,,,,,,,,,,,,,,,,,,,,,,,
,,,,,V2_005,22,Female,2024-03-01_09h29.05.468,jersey_experiment_5_v2,2023.2.2,Win32,85.47008547,,,,,,,,,,,,,,,,970.7776,972.8717,972.8717,974.8952,return,0.0145,,100,,,,,,FBP-PT-18.png,0.4,1.2,8,0.5,,,,,,,,,,,,,0,55,55,7,1,,,,,,,,,,,,,,,,,,,,,,,,,,,,
,,,,,V2_005,22,Female,2024-03-01_09h29.05.468,jersey_experiment_5_v2,2023.2.2,Win32,85.47008547,,,,,,,,,,,,,,,,974.8954,976.9895,976.9895,980.6718,return,0.4942,,50,,,,,,FBP-PT-19.png,0.35,1.2,11,0.5,,,,,,,,,,,,,0,56,56,10,1,,,,,,,,,,,,,,,,,,,,,,,,,,,,
,,,,,V2_005,22,Female,2024-03-01_09h29.05.468,jersey_experiment_5_v2,2023.2.2,Win32,85.47008547,,,,,,,,,,,,,,,,980.672,982.5191,982.5192,983.1661,return,0.1414,,50,,,,,,FBP-OG-17.png,0.4,1.2,18,0.25,,,,,,,,,,,,,0,57,57,17,1,,,,,,,,,,,,,,,,,,,,,,,,,,,,
,,,,,V2_005,22,Female,2024-03-01_09h29.05.468,jersey_experiment_5_v2,2023.2.2,Win32,85.47008547,,,,,,,,,,,,,,,,983.1663,985.0134,985.0134,985.7897,return,0.1416,,74.609375,,,,,,FBP-OG-18.png,0.43,1.2,24,0.25,,,,,,,,,,,,,0,58,58,23,1,,,,,,,,,,,,,,,,,,,,,,,,,,,,
,,,,,V2_005,22,Female,2024-03-01_09h29.05.468,jersey_experiment_5_v2,2023.2.2,Win32,85.47008547,,,,,,,,,,,,,,,,985.79,987.6369,987.6369,989.1194,return,0.3296,,50,,,,,,FBP-OG-18.png,0.37,1.2,22,0.25,,,,,,,,,,,,,0,59,59,21,1,,,,,,,,,,,,,,,,,,,,,,,,,,,,
,,,,,V2_005,22,Female,2024-03-01_09h29.05.468,jersey_experiment_5_v2,2023.2.2,Win32,85.47008547,,,,,,,,,,,,,,,,989.1213,990.9781,990.9781,993.0488,return,0.0521,,25.390625,,,,,,FBP-OG-91.png,0.35,1.2,26,0.25,,,,,,,,,,,,,,,,,,0,0,0,25,1,,,,,,,,,,,,,,,,,,,,,,,
,,,,,V2_005,22,Female,2024-03-01_09h29.05.468,jersey_experiment_5_v2,2023.2.2,Win32,85.47008547,,,,,,,,,,,,,,,,993.0491,994.8961,994.8961,997.2726,return,0.2154,,75,,,,,,FBP-OG-81.png,0.45,1.2,25,0.25,,,,,,,,,,,,,,,,,,0,1,1,24,1,,,,,,,,,,,,,,,,,,,,,,,
,,,,,V2_005,22,Female,2024-03-01_09h29.05.468,jersey_experiment_5_v2,2023.2.2,Win32,85.47008547,,,,,,,,,,,,,,,,997.2729,999.1195,999.1196,1001.755,return,1.2129,,73.17708333,,,,,,FBP-OG-71.png,0.45,1.2,20,0.25,,,,,,,,,,,,,,,,,,0,2,2,19,1,,,,,,,,,,,,,,,,,,,,,,,
,,,,,V2_005,22,Female,2024-03-01_09h29.05.468,jersey_experiment_5_v2,2023.2.2,Win32,85.47008547,,,,,,,,,,,,,,,,1001.7552,1003.6023,1003.6023,1009.0377,return,1.5761,,48.046875,,,,,,FBP-YG-18.png,0.37,1.2,52,0.25,,,,,,,,,,,,,,,,,,0,3,3,51,1,,,,,,,,,,,,,,,,,,,,,,,
,,,,,V2_005,22,Female,2024-03-01_09h29.05.468,jersey_experiment_5_v2,2023.2.2,Win32,85.47008547,,,,,,,,,,,,,,,,1009.038,1010.8846,1010.8846,1020.591,return,5.718,,63.41145833,,,,,,FBP-YG-17.png,0.37,1.2,47,0.25,,,,,,,,,,,,,,,,,,0,4,4,46,1,,,,,,,,,,,,,,,,,,,,,,,
,,,,,V2_005,22,Female,2024-03-01_09h29.05.468,jersey_experiment_5_v2,2023.2.2,Win32,85.47008547,,,,,,,,,,,,,,,,1020.5913,1022.4381,1022.4382,1023.9441,return,0.0397,,87.63020833,,,,,,FBP-OG-91.png,0.45,1.2,30,0.25,,,,,,,,,,,,,,,,,,0,5,5,29,1,,,,,,,,,,,,,,,,,,,,,,,
,,,,,V2_005,22,Female,2024-03-01_09h29.05.468,jersey_experiment_5_v2,2023.2.2,Win32,85.47008547,,,,,,,,,,,,,,,,1023.9443,1026.0383,1026.0383,1027.803,return,0.2951,,25,,,,,,FBP-PT-81.png,0.35,1.2,6,0.5,,,,,,,,,,,,,,,,,,0,6,6,5,1,,,,,,,,,,,,,,,,,,,,,,,
,,,,,V2_005,22,Female,2024-03-01_09h29.05.468,jersey_experiment_5_v2,2023.2.2,Win32,85.47008547,,,,,,,,,,,,,,,,1027.8032,1029.909,1029.9091,1033.0973,return,0.8612,,75.65104167,,,,,,FBP-PT-81.png,0.4,1.2,8,0.5,,,,,,,,,,,,,,,,,,0,7,7,7,1,,,,,,,,,,,,,,,,,,,,,,,
,,,,,V2_005,22,Female,2024-03-01_09h29.05.468,jersey_experiment_5_v2,2023.2.2,Win32,85.47008547,,,,,,,,,,,,,,,,1033.0975,1035.1915,1035.1915,1038.4741,return,0.6274,,49.34895833,,,,,,FBP-PT-91.png,0.35,1.2,11,0.5,,,,,,,,,,,,,,,,,,0,8,8,10,1,,,,,,,,,,,,,,,,,,,,,,,
,,,,,V2_005,22,Female,2024-03-01_09h29.05.468,jersey_experiment_5_v2,2023.2.2,Win32,85.47008547,,,,,,,,,,,,,,,,1038.4744,1040.5682,1040.5683,1042.3682,return,0.3627,,49.86979167,,,,,,FBP-PT-71.png,0.4,1.2,3,0.5,,,,,,,,,,,,,,,,,,0,9,9,2,1,,,,,,,,,,,,,,,,,,,,,,,
,,,,,V2_005,22,Female,2024-03-01_09h29.05.468,jersey_experiment_5_v2,2023.2.2,Win32,85.47008547,,,,,,,,,,,,,,,,1042.3684,1044.2271,1044.2271,1047.2861,return,1.0433,,50.65104167,,,,,,FBP-YG-19.png,0.37,1.2,57,0.25,,,,,,,,,,,,,,,,,,0,10,10,56,1,,,,,,,,,,,,,,,,,,,,,,,
,,,,,V2_005,22,Female,2024-03-01_09h29.05.468,jersey_experiment_5_v2,2023.2.2,Win32,85.47008547,,,,,,,,,,,,,,,,1047.2864,1049.145,1049.1451,1056.0394,return,2.667,,24.86979167,,,,,,FBP-OG-71.png,0.37,1.2,17,0.25,,,,,,,,,,,,,,,,,,0,11,11,16,1,,,,,,,,,,,,,,,,,,,,,,,
,,,,,V2_005,22,Female,2024-03-01_09h29.05.468,jersey_experiment_5_v2,2023.2.2,Win32,85.47008547,,,,,,,,,,,,,,,,1056.0395,1058.1452,1058.1453,1061.1454,return,0.873,,75.26041667,,,,,,FBP-PT-91.png,0.43,1.2,14,0.5,,,,,,,,,,,,,,,,,,0,12,12,13,1,,,,,,,,,,,,,,,,,,,,,,,
,,,,,V2_005,22,Female,2024-03-01_09h29.05.468,jersey_experiment_5_v2,2023.2.2,Win32,85.47008547,,,,,,,,,,,,,,,,1061.1456,1062.9927,1062.9927,1065.8045,return,0.8943,,49.609375,,,,,,FBP-RB-71.png,0.37,1.2,32,0.25,,,,,,,,,,,,,,,,,,0,13,13,31,1,,,,,,,,,,,,,,,,,,,,,,,
,,,,,V2_005,22,Female,2024-03-01_09h29.05.468,jersey_experiment_5_v2,2023.2.2,Win32,85.47008547,,,,,,,,,,,,,,,,1065.8047,1067.6515,1067.6515,1073.3811,return,3.7955,,49.609375,,,,,,FBP-OG-91.png,0.37,1.2,27,0.25,,,,,,,,,,,,,,,,,,0,14,14,26,1,,,,,,,,,,,,,,,,,,,,,,,
,,,,,V2_005,22,Female,2024-03-01_09h29.05.468,jersey_experiment_5_v2,2023.2.2,Win32,85.47008547,,,,,,,,,,,,,,,,1073.3814,1075.2283,1075.2284,1077.7225,return,0.6623,,74.609375,,,,,,FBP-RB-81.png,0.43,1.2,39,0.25,,,,,,,,,,,,,,,,,,0,15,15,38,1,,,,,,,,,,,,,,,,,,,,,,,
,,,,,V2_005,22,Female,2024-03-01_09h29.05.468,jersey_experiment_5_v2,2023.2.2,Win32,85.47008547,,,,,,,,,,,,,,,,1077.7226,1079.5699,1079.5699,1081.1344,return,0.5976,,50.390625,,,,,,FBP-RB-91.png,0.37,1.2,42,0.25,,,,,,,,,,,,,,,,,,0,16,16,41,1,,,,,,,,,,,,,,,,,,,,,,,
,,,,,V2_005,22,Female,2024-03-01_09h29.05.468,jersey_experiment_5_v2,2023.2.2,Win32,85.47008547,,,,,,,,,,,,,,,,1081.1347,1082.9817,1082.9817,1087.0992,return,2.6502,,75.26041667,,,,,,FBP-OG-81.png,0.43,1.2,24,0.25,,,,,,,,,,,,,,,,,,0,17,17,23,1,,,,,,,,,,,,,,,,,,,,,,,
,,,,,V2_005,22,Female,2024-03-01_09h29.05.468,jersey_experiment_5_v2,2023.2.2,Win32,85.47008547,,,,,,,,,,,,,,,,1087.0994,1088.9583,1088.9583,1090.4642,return,0.9891,,74.86979167,,,,,,FBP-OG-91.png,0.4,1.2,28,0.25,,,,,,,,,,,,,,,,,,0,18,18,27,1,,,,,,,,,,,,,,,,,,,,,,,
,,,,,V2_005,22,Female,2024-03-01_09h29.05.468,jersey_experiment_5_v2,2023.2.2,Win32,85.47008547,,,,,,,,,,,,,,,,1090.4645,1092.3113,1092.3114,1093.3584,return,0.0379,,49.73958333,,,,,,FBP-YG-18.png,0.4,1.2,53,0.25,,,,,,,,,,,,,,,,,,0,19,19,52,1,,,,,,,,,,,,,,,,,,,,,,,
,,,,,V2_005,22,Female,2024-03-01_09h29.05.468,jersey_experiment_5_v2,2023.2.2,Win32,85.47008547,,,,,,,,,,,,,,,,1093.3586,1095.2056,1095.2056,1097.2762,return,0.4819,,74.73958333,,,,,,FBP-OG-71.png,0.43,1.2,19,0.25,,,,,,,,,,,,,,,,,,0,20,20,18,1,,,,,,,,,,,,,,,,,,,,,,,
,,,,,V2_005,22,Female,2024-03-01_09h29.05.468,jersey_experiment_5_v2,2023.2.2,Win32,85.47008547,,,,,,,,,,,,,,,,1097.2764,1099.3703,1099.3703,1102.0763,return,0.049,,50,,,,,,FBP-PT-71.png,0.35,1.2,1,0.5,,,,,,,,,,,,,,,,,,0,21,21,0,1,,,,,,,,,,,,,,,,,,,,,,,
,,,,,V2_005,22,Female,2024-03-01_09h29.05.468,jersey_experiment_5_v2,2023.2.2,Win32,85.47008547,,,,,,,,,,,,,,,,1102.0766,1104.1823,1104.1823,1106.1235,return,0.0354,,50.13020833,,,,,,FBP-PT-91.png,0.4,1.2,13,0.5,,,,,,,,,,,,,,,,,,0,22,22,12,1,,,,,,,,,,,,,,,,,,,,,,,
,,,,,V2_005,22,Female,2024-03-01_09h29.05.468,jersey_experiment_5_v2,2023.2.2,Win32,85.47008547,,,,,,,,,,,,,,,,1106.1238,1107.9825,1107.9825,1110.5826,return,0.1464,,50.390625,,,,,,FBP-RB-81.png,0.37,1.2,37,0.25,,,,,,,,,,,,,,,,,,0,23,23,36,1,,,,,,,,,,,,,,,,,,,,,,,
,,,,,V2_005,22,Female,2024-03-01_09h29.05.468,jersey_experiment_5_v2,2023.2.2,Win32,85.47008547,,,,,,,,,,,,,,,,1110.5828,1112.4414,1112.4415,1113.9591,return,0.1811,,25.390625,,,,,,FBP-RB-91.png,0.35,1.2,41,0.25,,,,,,,,,,,,,,,,,,0,24,24,40,1,,,,,,,,,,,,,,,,,,,,,,,
,,,,,V2_005,22,Female,2024-03-01_09h29.05.468,jersey_experiment_5_v2,2023.2.2,Win32,85.47008547,,,,,,,,,,,,,,,,1113.9594,1115.8065,1115.8065,1116.8887,return,0.0407,,49.73958333,,,,,,FBP-OG-81.png,0.4,1.2,23,0.25,,,,,,,,,,,,,,,,,,0,25,25,22,1,,,,,,,,,,,,,,,,,,,,,,,
,,,,,V2_005,22,Female,2024-03-01_09h29.05.468,jersey_experiment_5_v2,2023.2.2,Win32,85.47008547,,,,,,,,,,,,,,,,1116.8889,1118.7357,1118.7357,1119.5477,return,0.024,,50.26041667,,,,,,FBP-YG-19.png,0.43,1.2,59,0.25,,,,,,,,,,,,,,,,,,0,26,26,58,1,,,,,,,,,,,,,,,,,,,,,,,
,,,,,V2_005,22,Female,2024-03-01_09h29.05.468,jersey_experiment_5_v2,2023.2.2,Win32,85.47008547,,,,,,,,,,,,,,,,1119.5479,1121.3947,1121.3947,1121.9594,return,0.1481,,50.26041667,,,,,,FBP-OG-91.png,0.43,1.2,29,0.25,,,,,,,,,,,,,,,,,,0,27,27,28,1,,,,,,,,,,,,,,,,,,,,,,,
,,,,,V2_005,22,Female,2024-03-01_09h29.05.468,jersey_experiment_5_v2,2023.2.2,Win32,85.47008547,,,,,,,,,,,,,,,,1121.9595,1124.0538,1124.0539,1125.1831,return,0.1411,,25,,,,,,FBP-PT-81.png,0.37,1.2,7,0.5,,,,,,,,,,,,,,,,,,0,28,28,6,1,,,,,,,,,,,,,,,,,,,,,,,
,,,,,V2_005,22,Female,2024-03-01_09h29.05.468,jersey_experiment_5_v2,2023.2.2,Win32,85.47008547,,,,,,,,,,,,,,,,1125.1833,1127.0303,1127.0303,1128.8068,return,0.172,,75.26041667,,,,,,FBP-RB-81.png,0.45,1.2,40,0.25,,,,,,,,,,,,,,,,,,0,29,29,39,1,,,,,,,,,,,,,,,,,,,,,,,
,,,,,V2_005,22,Female,2024-03-01_09h29.05.468,jersey_experiment_5_v2,2023.2.2,Win32,85.47008547,,,,,,,,,,,,,,,,1128.807,1130.9009,1130.901,1131.6774,return,0.0335,,74.73958333,,,,,,FBP-PT-81.png,0.43,1.2,9,0.5,,,,,,,,,,,,,,,,,,0,30,30,8,1,,,,,,,,,,,,,,,,,,,,,,,
,,,,,V2_005,22,Female,2024-03-01_09h29.05.468,jersey_experiment_5_v2,2023.2.2,Win32,85.47008547,,,,,,,,,,,,,,,,1131.6777,1133.7716,1133.7717,1135.1953,return,0.2357,,50.26041667,,,,,,FBP-PT-91.png,0.37,1.2,12,0.5,,,,,,,,,,,,,,,,,,0,31,31,11,1,,,,,,,,,,,,,,,,,,,,,,,
,,,,,V2_005,22,Female,2024-03-01_09h29.05.468,jersey_experiment_5_v2,2023.2.2,Win32,85.47008547,,,,,,,,,,,,,,,,1135.1956,1137.0541,1137.0541,1140.1366,return,0.0735,,49.73958333,,,,,,FBP-YG-18.png,0.45,1.2,55,0.25,,,,,,,,,,,,,,,,,,0,32,32,54,1,,,,,,,,,,,,,,,,,,,,,,,
,,,,,V2_005,22,Female,2024-03-01_09h29.05.468,jersey_experiment_5_v2,2023.2.2,Win32,85.47008547,,,,,,,,,,,,,,,,1140.1368,1141.9837,1141.9837,1142.6779,return,0.1378,,49.73958333,,,,,,FBP-YG-17.png,0.4,1.2,48,0.25,,,,,,,,,,,,,,,,,,0,33,33,47,1,,,,,,,,,,,,,,,,,,,,,,,
,,,,,V2_005,22,Female,2024-03-01_09h29.05.468,jersey_experiment_5_v2,2023.2.2,Win32,85.47008547,,,,,,,,,,,,,,,,1142.6781,1144.5249,1144.5249,1148.8545,return,0.0411,,0.260416667,,,,,,FBP-OG-81.png,0.35,1.2,21,0.25,,,,,,,,,,,,,,,,,,0,34,34,20,1,,,,,,,,,,,,,,,,,,,,,,,
,,,,,V2_005,22,Female,2024-03-01_09h29.05.468,jersey_experiment_5_v2,2023.2.2,Win32,85.47008547,,,,,,,,,,,,,,,,1148.8547,1150.7017,1150.7017,1152.3959,return,0.5087,,50.390625,,,,,,FBP-YG-17.png,0.35,1.2,46,0.25,,,,,,,,,,,,,,,,,,0,35,35,45,1,,,,,,,,,,,,,,,,,,,,,,,
,,,,,V2_005,22,Female,2024-03-01_09h29.05.468,jersey_experiment_5_v2,2023.2.2,Win32,85.47008547,,,,,,,,,,,,,,,,1152.3961,1154.2431,1154.2431,1154.9017,return,0.0411,,50,,,,,,FBP-RB-81.png,0.4,1.2,38,0.25,,,,,,,,,,,,,,,,,,0,36,36,37,1,,,,,,,,,,,,,,,,,,,,,,,
,,,,,V2_005,22,Female,2024-03-01_09h29.05.468,jersey_experiment_5_v2,2023.2.2,Win32,85.47008547,,,,,,,,,,,,,,,,1154.9019,1156.9961,1156.9961,1158.3138,return,0.075,,72.91666667,,,,,,FBP-PT-71.png,0.45,1.2,5,0.5,,,,,,,,,,,,,,,,,,0,37,37,4,1,,,,,,,,,,,,,,,,,,,,,,,
,,,,,V2_005,22,Female,2024-03-01_09h29.05.468,jersey_experiment_5_v2,2023.2.2,Win32,85.47008547,,,,,,,,,,,,,,,,1158.3139,1160.1608,1160.1609,1160.7492,return,0.0145,,74.86979167,,,,,,FBP-RB-91.png,0.43,1.2,44,0.25,,,,,,,,,,,,,,,,,,0,38,38,43,1,,,,,,,,,,,,,,,,,,,,,,,
,,,,,V2_005,22,Female,2024-03-01_09h29.05.468,jersey_experiment_5_v2,2023.2.2,Win32,85.47008547,,,,,,,,,,,,,,,,1160.7494,1162.5963,1162.5964,1163.5492,return,0.0475,,50.390625,,,,,,FBP-OG-81.png,0.37,1.2,22,0.25,,,,,,,,,,,,,,,,,,0,39,39,21,1,,,,,,,,,,,,,,,,,,,,,,,
,,,,,V2_005,22,Female,2024-03-01_09h29.05.468,jersey_experiment_5_v2,2023.2.2,Win32,85.47008547,,,,,,,,,,,,,,,,1163.5495,1165.3963,1165.3963,1166.9845,return,0.3936,,50,,,,,,FBP-RB-71.png,0.4,1.2,33,0.25,,,,,,,,,,,,,,,,,,0,40,40,32,1,,,,,,,,,,,,,,,,,,,,,,,
,,,,,V2_005,22,Female,2024-03-01_09h29.05.468,jersey_experiment_5_v2,2023.2.2,Win32,85.47008547,,,,,,,,,,,,,,,,1166.9847,1169.0788,1169.0788,1171.9496,return,1.859,,49.21875,,,,,,FBP-PT-71.png,0.43,1.2,4,0.5,,,,,,,,,,,,,,,,,,0,41,41,3,1,,,,,,,,,,,,,,,,,,,,,,,
,,,,,V2_005,22,Female,2024-03-01_09h29.05.468,jersey_experiment_5_v2,2023.2.2,Win32,85.47008547,,,,,,,,,,,,,,,,1171.9498,1174.0438,1174.0439,1174.9849,return,0.0733,,25,,,,,,FBP-PT-71.png,0.37,1.2,2,0.5,,,,,,,,,,,,,,,,,,0,42,42,1,1,,,,,,,,,,,,,,,,,,,,,,,
,,,,,V2_005,22,Female,2024-03-01_09h29.05.468,jersey_experiment_5_v2,2023.2.2,Win32,85.47008547,,,,,,,,,,,,,,,,1174.9851,1176.8321,1176.8322,1177.8203,return,0.0019,,0.651041667,,,,,,FBP-OG-71.png,0.35,1.2,16,0.25,,,,,,,,,,,,,,,,,,0,43,43,15,1,,,,,,,,,,,,,,,,,,,,,,,
,,,,,V2_005,22,Female,2024-03-01_09h29.05.468,jersey_experiment_5_v2,2023.2.2,Win32,85.47008547,,,,,,,,,,,,,,,,1177.8204,1179.6793,1179.6793,1181.0793,return,0.0991,,48.69791667,,,,,,FBP-RB-91.png,0.45,1.2,45,0.25,,,,,,,,,,,,,,,,,,0,44,44,44,1,,,,,,,,,,,,,,,,,,,,,,,
,,,,,V2_005,22,Female,2024-03-01_09h29.05.468,jersey_experiment_5_v2,2023.2.2,Win32,85.47008547,,,,,,,,,,,,,,,,1181.0795,1182.9264,1182.9264,1183.9147,return,0.192,,49.34895833,,,,,,FBP-YG-18.png,0.43,1.2,54,0.25,,,,,,,,,,,,,,,,,,0,45,45,53,1,,,,,,,,,,,,,,,,,,,,,,,
,,,,,V2_005,22,Female,2024-03-01_09h29.05.468,jersey_experiment_5_v2,2023.2.2,Win32,85.47008547,,,,,,,,,,,,,,,,1183.9149,1185.7618,1185.7618,1186.2676,return,0.1201,,49.34895833,,,,,,FBP-RB-91.png,0.4,1.2,43,0.25,,,,,,,,,,,,,,,,,,0,46,46,42,1,,,,,,,,,,,,,,,,,,,,,,,
,,,,,V2_005,22,Female,2024-03-01_09h29.05.468,jersey_experiment_5_v2,2023.2.2,Win32,85.47008547,,,,,,,,,,,,,,,,1186.2678,1188.1265,1188.1265,1188.6677,return,0.1201,,49.34895833,,,,,,FBP-YG-17.png,0.45,1.2,50,0.25,,,,,,,,,,,,,,,,,,0,47,47,49,1,,,,,,,,,,,,,,,,,,,,,,,
,,,,,V2_005,22,Female,2024-03-01_09h29.05.468,jersey_experiment_5_v2,2023.2.2,Win32,85.47008547,,,,,,,,,,,,,,,,1188.6679,1190.5267,1190.5267,1191.609,return,0.2968,,49.34895833,,,,,,FBP-RB-71.png,0.43,1.2,34,0.25,,,,,,,,,,,,,,,,,,0,48,48,33,1,,,,,,,,,,,,,,,,,,,,,,,
,,,,,V2_005,22,Female,2024-03-01_09h29.05.468,jersey_experiment_5_v2,2023.2.2,Win32,85.47008547,,,,,,,,,,,,,,,,1191.6092,1193.4562,1193.4563,1195.3856,return,0.205,,49.34895833,,,,,,FBP-YG-19.png,0.45,1.2,60,0.25,,,,,,,,,,,,,,,,,,0,49,49,59,1,,,,,,,,,,,,,,,,,,,,,,,
,,,,,V2_005,22,Female,2024-03-01_09h29.05.468,jersey_experiment_5_v2,2023.2.2,Win32,85.47008547,,,,,,,,,,,,,,,,1195.3858,1197.2328,1197.2328,1198.974,return,0.2357,,1.041666667,,,,,,FBP-RB-81.png,0.35,1.2,36,0.25,,,,,,,,,,,,,,,,,,0,50,50,35,1,,,,,,,,,,,,,,,,,,,,,,,
,,,,,V2_005,22,Female,2024-03-01_09h29.05.468,jersey_experiment_5_v2,2023.2.2,Win32,85.47008547,,,,,,,,,,,,,,,,1198.9742,1200.8212,1200.8212,1202.6329,return,0.1432,,49.73958333,,,,,,FBP-RB-71.png,0.45,1.2,35,0.25,,,,,,,,,,,,,,,,,,0,51,51,34,1,,,,,,,,,,,,,,,,,,,,,,,
,,,,,V2_005,22,Female,2024-03-01_09h29.05.468,jersey_experiment_5_v2,2023.2.2,Win32,85.47008547,,,,,,,,,,,,,,,,1202.6332,1204.4802,1204.4803,1205.2921,return,0.0139,,24.47916667,,,,,,FBP-RB-71.png,0.35,1.2,31,0.25,,,,,,,,,,,,,,,,,,0,52,52,30,1,,,,,,,,,,,,,,,,,,,,,,,
,,,,,V2_005,22,Female,2024-03-01_09h29.05.468,jersey_experiment_5_v2,2023.2.2,Win32,85.47008547,,,,,,,,,,,,,,,,1205.2923,1207.1509,1207.1509,1208.7155,return,0.1531,,0.911458333,,,,,,FBP-YG-18.png,0.35,1.2,51,0.25,,,,,,,,,,,,,,,,,,0,53,53,50,1,,,,,,,,,,,,,,,,,,,,,,,
,,,,,V2_005,22,Female,2024-03-01_09h29.05.468,jersey_experiment_5_v2,2023.2.2,Win32,85.47008547,,,,,,,,,,,,,,,,1208.7158,1210.8215,1210.8216,1212.5744,return,0.174,,74.73958333,,,,,,FBP-PT-81.png,0.45,1.2,10,0.5,,,,,,,,,,,,,,,,,,0,54,54,9,1,,,,,,,,,,,,,,,,,,,,,,,
,,,,,V2_005,22,Female,2024-03-01_09h29.05.468,jersey_experiment_5_v2,2023.2.2,Win32,85.47008547,,,,,,,,,,,,,,,,1212.5746,1214.4218,1214.4219,1216.304,return,0.071,,24.47916667,,,,,,FBP-YG-19.png,0.35,1.2,56,0.25,,,,,,,,,,,,,,,,,,0,55,55,55,1,,,,,,,,,,,,,,,,,,,,,,,
,,,,,V2_005,22,Female,2024-03-01_09h29.05.468,jersey_experiment_5_v2,2023.2.2,Win32,85.47008547,,,,,,,,,,,,,,,,1216.3043,1218.1512,1218.1512,1221.4219,return,0.2119,,26.5625,,,,,,FBP-YG-19.png,0.4,1.2,58,0.25,,,,,,,,,,,,,,,,,,0,56,56,57,1,,,,,,,,,,,,,,,,,,,,,,,
,,,,,V2_005,22,Female,2024-03-01_09h29.05.468,jersey_experiment_5_v2,2023.2.2,Win32,85.47008547,,,,,,,,,,,,,,,,1221.4221,1223.5161,1223.5161,1224.1043,return,0.0623,,49.73958333,,,,,,FBP-PT-91.png,0.45,1.2,15,0.5,,,,,,,,,,,,,,,,,,0,57,57,14,1,,,,,,,,,,,,,,,,,,,,,,,
,,,,,V2_005,22,Female,2024-03-01_09h29.05.468,jersey_experiment_5_v2,2023.2.2,Win32,85.47008547,,,,,,,,,,,,,,,,1224.1046,1225.9514,1225.9515,1227.422,return,0.0707,,50,,,,,,FBP-OG-71.png,0.4,1.2,18,0.25,,,,,,,,,,,,,,,,,,0,58,58,17,1,,,,,,,,,,,,,,,,,,,,,,,
,,,,,V2_005,22,Female,2024-03-01_09h29.05.468,jersey_experiment_5_v2,2023.2.2,Win32,85.47008547,,,,,,,,,,,,,,,,1227.4223,1229.281,1229.281,1232.9282,return,0.9649,,24.73958333,,,,,,FBP-YG-17.png,0.43,1.2,49,0.25,,,,,,,,,,,,,,,,,,0,59,59,48,1,,,,,,,,,,,,,,,,,,,,,,,
,,,,,V2_005,22,Female,2024-03-01_09h29.05.468,jersey_experiment_5_v2,2023.2.2,Win32,85.47008547,,,,,,,,,,,,,,,,,,,,,,,,,,,,,,,,,,,,,,,,,,,,,,,,,,,,,,,,1232.9286,1240.1052,return,7.1672,,,,,,,,,,,,,,,,,,,
,,,,,V2_005,22,Female,2024-03-01_09h29.05.468,jersey_experiment_5_v2,2023.2.2,Win32,85.47008547,,,,,,,,,,,,,,,,,,,,,,,,,,,,,,,,,,,,,,,,,,,,,,,,,,,,,,,,,,,,,1240.1054,1254.541,1,9.2051,return,5.2122,,,,,,,,,,,,
,,,,,V2_005,22,Female,2024-03-01_09h29.05.468,jersey_experiment_5_v2,2023.2.2,Win32,85.47008547,,,,,,,,,,,,,,,,,,,,,,,,,,,,,,,,,,,,,,,,,,,,,,,,,,,,,,,,,,,,,,,,,,,,1254.5453,1350.0715,This study may be about how different colors can change the perception of how big the stimuli appeared to be. I didn't recognize any patterns other than the colors not repeating one after another sometimes.,right,82.049,,,,,,
,,,,,V2_005,22,Female,2024-03-01_09h29.05.468,jersey_experiment_5_v2,2023.2.2,Win32,85.47008547,,,,,,,,,,,,,,,,,,,,,,,,,,,,,,,,,,,,,,,,,,,,,,,,,,,,,,,,,,,,,,,,,,,,,,,,,,1350.0715,1353.3562,return,3.2721,