requirements.started,requirements.stopped,key_resp_3.keys,key_resp_3.rt,key_resp_3.duration,Subject ID,Age,Gender,date,expName,psychopyVersion,OS,frameRate,instructions1.started,instructions1.stopped,key_resp.keys,key_resp.rt,key_resp.duration,example.started,example.stopped,enter_2.keys,enter_2.rt,enter_2.duration,instructions2.started,instructions2.stopped,enter_3.keys,enter_3.rt,enter_3.duration,image.started,image.stopped,slider_2.started,slider_2.stopped,next.keys,next.rt,next.duration,slider.response,trial_block_1.thisRepN,trial_block_1.thisTrialN,trial_block_1.thisN,trial_block_1.thisIndex,trial_block_1.ran,Path,Width,Height,Index,Duration,trial_block_2.thisRepN,trial_block_2.thisTrialN,trial_block_2.thisN,trial_block_2.thisIndex,trial_block_2.ran,rest_break.started,rest_break.stopped,end_break.started,end_break.stopped,key_resp_5.keys,key_resp_5.rt,key_resp_5.duration,trial_block_3.thisRepN,trial_block_3.thisTrialN,trial_block_3.thisN,trial_block_3.thisIndex,trial_block_3.ran,trial_block_4.thisRepN,trial_block_4.thisTrialN,trial_block_4.thisN,trial_block_4.thisIndex,trial_block_4.ran,questions_intro.started,questions_intro.stopped,enter_12.keys,enter_12.rt,enter_12.duration,question2.started,question2.stopped,question_doingbest.response,question_doingbest.rt,enter_15.keys,enter_15.rt,enter_15.duration,pattern.started,pattern.stopped,pattern_2.text,enter_17.keys,enter_17.rt,enter_17.duration,thankyou.started,thankyou.stopped,enter_14.keys,enter_14.rt,enter_14.duration
1E-04,11.8951,return,11.888,,V2_013,19,Female,2024-03-01_15h36.57.653,jersey_experiment_5_v2,2023.2.2,Win32,84.74576271,,,,,,,,,,,,,,,,,,,,,,,,,,,,,,,,,,,,,,,,,,,,,,,,,,,,,,,,,,,,,,,,,,,,,,,,,,,,,,
,,,,,V2_013,19,Female,2024-03-01_15h36.57.653,jersey_experiment_5_v2,2023.2.2,Win32,84.74576271,11.8952,19.1422,return,7.2299,,,,,,,,,,,,,,,,,,,,,,,,,,,,,,,,,,,,,,,,,,,,,,,,,,,,,,,,,,,,,,,,,,,,,,,,,,
,,,,,V2_013,19,Female,2024-03-01_15h36.57.653,jersey_experiment_5_v2,2023.2.2,Win32,84.74576271,,,,,,19.1423,23.472,return,4.2886,,,,,,,,,,,,,,,,,,,,,,,,,,,,,,,,,,,,,,,,,,,,,,,,,,,,,,,,,,,,,,,,,,,,,
,,,,,V2_013,19,Female,2024-03-01_15h36.57.653,jersey_experiment_5_v2,2023.2.2,Win32,84.74576271,,,,,,,,,,,23.4721,43.5904,return,20.111,,,,,,,,,,,,,,,,,,,,,,,,,,,,,,,,,,,,,,,,,,,,,,,,,,,,,,,,,,,,,,,,
,,,,,V2_013,19,Female,2024-03-01_15h36.57.653,jersey_experiment_5_v2,2023.2.2,Win32,84.74576271,,,,,,,,,,,,,,,,43.5971,45.7078,45.7079,61.5791,return,5.4584,,74.609375,0,0,0,59,1,FBP-YG-91.png,0.45,1.2,60,0.5,,,,,,,,,,,,,,,,,,,,,,,,,,,,,,,,,,,,,,,,,,,,,
,,,,,V2_013,19,Female,2024-03-01_15h36.57.653,jersey_experiment_5_v2,2023.2.2,Win32,84.74576271,,,,,,,,,,,,,,,,61.5794,63.6735,63.6735,67.7675,return,0.6148,,25.13020833,0,1,1,56,1,FBP-YG-91.png,0.37,1.2,57,0.5,,,,,,,,,,,,,,,,,,,,,,,,,,,,,,,,,,,,,,,,,,,,,
,,,,,V2_013,19,Female,2024-03-01_15h36.57.653,jersey_experiment_5_v2,2023.2.2,Win32,84.74576271,,,,,,,,,,,,,,,,67.7677,69.8734,69.8735,72.3088,return,0.5952,,37.63020833,0,2,2,30,1,FBP-RB-17.png,0.35,1.2,31,0.5,,,,,,,,,,,,,,,,,,,,,,,,,,,,,,,,,,,,,,,,,,,,,
,,,,,V2_013,19,Female,2024-03-01_15h36.57.653,jersey_experiment_5_v2,2023.2.2,Win32,84.74576271,,,,,,,,,,,,,,,,72.309,74.1559,74.1559,78.8856,return,0.5484,,74.73958333,0,3,3,8,1,FBP-PT-18.png,0.43,1.2,9,0.25,,,,,,,,,,,,,,,,,,,,,,,,,,,,,,,,,,,,,,,,,,,,,
,,,,,V2_013,19,Female,2024-03-01_15h36.57.653,jersey_experiment_5_v2,2023.2.2,Win32,84.74576271,,,,,,,,,,,,,,,,78.8858,80.7327,80.7327,85.7211,return,3.5554,,87.23958333,0,4,4,4,1,FBP-PT-17.png,0.45,1.2,5,0.25,,,,,,,,,,,,,,,,,,,,,,,,,,,,,,,,,,,,,,,,,,,,,
,,,,,V2_013,19,Female,2024-03-01_15h36.57.653,jersey_experiment_5_v2,2023.2.2,Win32,84.74576271,,,,,,,,,,,,,,,,85.7213,87.8153,87.8154,90.2978,return,0.5065,,24.73958333,0,5,5,16,1,FBP-OG-17.png,0.37,1.2,17,0.5,,,,,,,,,,,,,,,,,,,,,,,,,,,,,,,,,,,,,,,,,,,,,
,,,,,V2_013,19,Female,2024-03-01_15h36.57.653,jersey_experiment_5_v2,2023.2.2,Win32,84.74576271,,,,,,,,,,,,,,,,90.2979,92.4037,92.4038,94.8744,return,0.3307,,37.76041667,0,6,6,40,1,FBP-RB-19.png,0.35,1.2,41,0.5,,,,,,,,,,,,,,,,,,,,,,,,,,,,,,,,,,,,,,,,,,,,,
,,,,,V2_013,19,Female,2024-03-01_15h36.57.653,jersey_experiment_5_v2,2023.2.2,Win32,84.74576271,,,,,,,,,,,,,,,,94.8747,96.9802,96.9803,98.9803,return,0.291,,62.36979167,0,7,7,37,1,FBP-RB-18.png,0.4,1.2,38,0.5,,,,,,,,,,,,,,,,,,,,,,,,,,,,,,,,,,,,,,,,,,,,,
,,,,,V2_013,19,Female,2024-03-01_15h36.57.653,jersey_experiment_5_v2,2023.2.2,Win32,84.74576271,,,,,,,,,,,,,,,,98.9804,100.8393,100.8393,102.7335,return,0.3205,,40.88541667,0,8,8,10,1,FBP-PT-19.png,0.35,1.2,11,0.25,,,,,,,,,,,,,,,,,,,,,,,,,,,,,,,,,,,,,,,,,,,,,
,,,,,V2_013,19,Female,2024-03-01_15h36.57.653,jersey_experiment_5_v2,2023.2.2,Win32,84.74576271,,,,,,,,,,,,,,,,102.7338,104.8278,104.8278,108.2513,return,0.4017,,53.90625,0,9,9,26,1,FBP-OG-19.png,0.37,1.2,27,0.5,,,,,,,,,,,,,,,,,,,,,,,,,,,,,,,,,,,,,,,,,,,,,
,,,,,V2_013,19,Female,2024-03-01_15h36.57.653,jersey_experiment_5_v2,2023.2.2,Win32,84.74576271,,,,,,,,,,,,,,,,108.2515,110.3455,110.3455,112.4868,return,0.312,,64.97395833,0,10,10,41,1,FBP-RB-19.png,0.37,1.2,42,0.5,,,,,,,,,,,,,,,,,,,,,,,,,,,,,,,,,,,,,,,,,,,,,
,,,,,V2_013,19,Female,2024-03-01_15h36.57.653,jersey_experiment_5_v2,2023.2.2,Win32,84.74576271,,,,,,,,,,,,,,,,112.487,114.5927,114.5927,119.5929,return,3.1204,,49.86979167,0,11,11,15,1,FBP-OG-17.png,0.35,1.2,16,0.5,,,,,,,,,,,,,,,,,,,,,,,,,,,,,,,,,,,,,,,,,,,,,
,,,,,V2_013,19,Female,2024-03-01_15h36.57.653,jersey_experiment_5_v2,2023.2.2,Win32,84.74576271,,,,,,,,,,,,,,,,119.5931,121.4401,121.4401,123.8048,return,0.3531,,88.671875,0,12,12,9,1,FBP-PT-18.png,0.45,1.2,10,0.25,,,,,,,,,,,,,,,,,,,,,,,,,,,,,,,,,,,,,,,,,,,,,
,,,,,V2_013,19,Female,2024-03-01_15h36.57.653,jersey_experiment_5_v2,2023.2.2,Win32,84.74576271,,,,,,,,,,,,,,,,123.8051,125.9108,125.9109,130.0875,return,0.4522,,50,0,13,13,21,1,FBP-OG-18.png,0.37,1.2,22,0.5,,,,,,,,,,,,,,,,,,,,,,,,,,,,,,,,,,,,,,,,,,,,,
,,,,,V2_013,19,Female,2024-03-01_15h36.57.653,jersey_experiment_5_v2,2023.2.2,Win32,84.74576271,,,,,,,,,,,,,,,,130.0876,132.1816,132.1816,135.4878,return,0.343,,74.86979167,0,14,14,48,1,FBP-YG-71.png,0.43,1.2,49,0.5,,,,,,,,,,,,,,,,,,,,,,,,,,,,,,,,,,,,,,,,,,,,,
,,,,,V2_013,19,Female,2024-03-01_15h36.57.653,jersey_experiment_5_v2,2023.2.2,Win32,84.74576271,,,,,,,,,,,,,,,,135.4879,137.582,137.582,138.6995,return,0.284,,87.109375,0,15,15,18,1,FBP-OG-17.png,0.43,1.2,19,0.5,,,,,,,,,,,,,,,,,,,,,,,,,,,,,,,,,,,,,,,,,,,,,
,,,,,V2_013,19,Female,2024-03-01_15h36.57.653,jersey_experiment_5_v2,2023.2.2,Win32,84.74576271,,,,,,,,,,,,,,,,138.6997,140.7937,140.7937,146.0056,return,2.3485,,92.70833333,0,16,16,44,1,FBP-RB-19.png,0.45,1.2,45,0.5,,,,,,,,,,,,,,,,,,,,,,,,,,,,,,,,,,,,,,,,,,,,,
,,,,,V2_013,19,Female,2024-03-01_15h36.57.653,jersey_experiment_5_v2,2023.2.2,Win32,84.74576271,,,,,,,,,,,,,,,,146.0058,148.0999,148.1,151.3823,return,0.581,,24.86979167,0,17,17,20,1,FBP-OG-18.png,0.35,1.2,21,0.5,,,,,,,,,,,,,,,,,,,,,,,,,,,,,,,,,,,,,,,,,,,,,
,,,,,V2_013,19,Female,2024-03-01_15h36.57.653,jersey_experiment_5_v2,2023.2.2,Win32,84.74576271,,,,,,,,,,,,,,,,151.3825,153.4766,153.4766,155.2296,return,0.4836,,75,0,18,18,38,1,FBP-RB-18.png,0.43,1.2,39,0.5,,,,,,,,,,,,,,,,,,,,,,,,,,,,,,,,,,,,,,,,,,,,,
,,,,,V2_013,19,Female,2024-03-01_15h36.57.653,jersey_experiment_5_v2,2023.2.2,Win32,84.74576271,,,,,,,,,,,,,,,,155.2298,157.3239,157.3239,159.1356,return,0.5414,,88.15104167,0,19,19,24,1,FBP-OG-18.png,0.45,1.2,25,0.5,,,,,,,,,,,,,,,,,,,,,,,,,,,,,,,,,,,,,,,,,,,,,
,,,,,V2_013,19,Female,2024-03-01_15h36.57.653,jersey_experiment_5_v2,2023.2.2,Win32,84.74576271,,,,,,,,,,,,,,,,159.1358,161.2416,161.2416,163.1475,return,0.4017,,94.01041667,0,20,20,53,1,FBP-YG-81.png,0.43,1.2,54,0.5,,,,,,,,,,,,,,,,,,,,,,,,,,,,,,,,,,,,,,,,,,,,,
,,,,,V2_013,19,Female,2024-03-01_15h36.57.653,jersey_experiment_5_v2,2023.2.2,Win32,84.74576271,,,,,,,,,,,,,,,,163.1477,165.2416,165.2417,166.1711,return,0.3542,,94.01041667,0,21,21,29,1,FBP-OG-19.png,0.45,1.2,30,0.5,,,,,,,,,,,,,,,,,,,,,,,,,,,,,,,,,,,,,,,,,,,,,
,,,,,V2_013,19,Female,2024-03-01_15h36.57.653,jersey_experiment_5_v2,2023.2.2,Win32,84.74576271,,,,,,,,,,,,,,,,166.1713,168.2653,168.2654,169.7596,return,0.599,,94.01041667,0,22,22,49,1,FBP-YG-71.png,0.45,1.2,50,0.5,,,,,,,,,,,,,,,,,,,,,,,,,,,,,,,,,,,,,,,,,,,,,
,,,,,V2_013,19,Female,2024-03-01_15h36.57.653,jersey_experiment_5_v2,2023.2.2,Win32,84.74576271,,,,,,,,,,,,,,,,169.7597,171.6068,171.6068,173.4656,return,0.2976,,49.86979167,0,23,23,6,1,FBP-PT-18.png,0.37,1.2,7,0.25,,,,,,,,,,,,,,,,,,,,,,,,,,,,,,,,,,,,,,,,,,,,,
,,,,,V2_013,19,Female,2024-03-01_15h36.57.653,jersey_experiment_5_v2,2023.2.2,Win32,84.74576271,,,,,,,,,,,,,,,,173.4658,175.5599,175.5599,176.9009,return,0.2652,,24.73958333,0,24,24,50,1,FBP-YG-81.png,0.35,1.2,51,0.5,,,,,,,,,,,,,,,,,,,,,,,,,,,,,,,,,,,,,,,,,,,,,
,,,,,V2_013,19,Female,2024-03-01_15h36.57.653,jersey_experiment_5_v2,2023.2.2,Win32,84.74576271,,,,,,,,,,,,,,,,176.9011,178.7479,178.748,180.5835,return,0.2644,,74.86979167,0,25,25,3,1,FBP-PT-17.png,0.43,1.2,4,0.25,,,,,,,,,,,,,,,,,,,,,,,,,,,,,,,,,,,,,,,,,,,,,
,,,,,V2_013,19,Female,2024-03-01_15h36.57.653,jersey_experiment_5_v2,2023.2.2,Win32,84.74576271,,,,,,,,,,,,,,,,180.5836,182.6894,182.6894,186.4423,return,0.4732,,49.86979167,0,26,26,17,1,FBP-OG-17.png,0.4,1.2,18,0.5,,,,,,,,,,,,,,,,,,,,,,,,,,,,,,,,,,,,,,,,,,,,,
,,,,,V2_013,19,Female,2024-03-01_15h36.57.653,jersey_experiment_5_v2,2023.2.2,Win32,84.74576271,,,,,,,,,,,,,,,,186.4425,188.5367,188.5367,189.9014,return,0.2928,,62.890625,0,27,27,42,1,FBP-RB-19.png,0.4,1.2,43,0.5,,,,,,,,,,,,,,,,,,,,,,,,,,,,,,,,,,,,,,,,,,,,,
,,,,,V2_013,19,Female,2024-03-01_15h36.57.653,jersey_experiment_5_v2,2023.2.2,Win32,84.74576271,,,,,,,,,,,,,,,,189.9016,191.9957,191.9957,194.2309,return,0.3825,,13.671875,0,28,28,35,1,FBP-RB-18.png,0.35,1.2,36,0.5,,,,,,,,,,,,,,,,,,,,,,,,,,,,,,,,,,,,,,,,,,,,,
,,,,,V2_013,19,Female,2024-03-01_15h36.57.653,jersey_experiment_5_v2,2023.2.2,Win32,84.74576271,,,,,,,,,,,,,,,,194.2311,196.3253,196.3254,198.1489,return,0.6184,,75.13020833,0,29,29,33,1,FBP-RB-17.png,0.43,1.2,34,0.5,,,,,,,,,,,,,,,,,,,,,,,,,,,,,,,,,,,,,,,,,,,,,
,,,,,V2_013,19,Female,2024-03-01_15h36.57.653,jersey_experiment_5_v2,2023.2.2,Win32,84.74576271,,,,,,,,,,,,,,,,198.1491,200.2431,200.2432,201.9253,return,0.3944,,76.5625,0,30,30,23,1,FBP-OG-18.png,0.43,1.2,24,0.5,,,,,,,,,,,,,,,,,,,,,,,,,,,,,,,,,,,,,,,,,,,,,
,,,,,V2_013,19,Female,2024-03-01_15h36.57.653,jersey_experiment_5_v2,2023.2.2,Win32,84.74576271,,,,,,,,,,,,,,,,201.9256,204.0313,204.0313,207.561,return,1.6025,,39.71354167,0,31,31,31,1,FBP-RB-17.png,0.37,1.2,32,0.5,,,,,,,,,,,,,,,,,,,,,,,,,,,,,,,,,,,,,,,,,,,,,
,,,,,V2_013,19,Female,2024-03-01_15h36.57.653,jersey_experiment_5_v2,2023.2.2,Win32,84.74576271,,,,,,,,,,,,,,,,207.5613,209.6551,209.6551,212.0081,return,0.4168,,87.109375,0,32,32,54,1,FBP-YG-81.png,0.45,1.2,55,0.5,,,,,,,,,,,,,,,,,,,,,,,,,,,,,,,,,,,,,,,,,,,,,
,,,,,V2_013,19,Female,2024-03-01_15h36.57.653,jersey_experiment_5_v2,2023.2.2,Win32,84.74576271,,,,,,,,,,,,,,,,212.0082,214.114,214.1141,217.9966,return,0.3771,,37.890625,0,33,33,27,1,FBP-OG-19.png,0.4,1.2,28,0.5,,,,,,,,,,,,,,,,,,,,,,,,,,,,,,,,,,,,,,,,,,,,,
,,,,,V2_013,19,Female,2024-03-01_15h36.57.653,jersey_experiment_5_v2,2023.2.2,Win32,84.74576271,,,,,,,,,,,,,,,,217.9968,220.0907,220.0907,222.4085,return,0.2377,,24.609375,0,34,34,46,1,FBP-YG-71.png,0.37,1.2,47,0.5,,,,,,,,,,,,,,,,,,,,,,,,,,,,,,,,,,,,,,,,,,,,,
,,,,,V2_013,19,Female,2024-03-01_15h36.57.653,jersey_experiment_5_v2,2023.2.2,Win32,84.74576271,,,,,,,,,,,,,,,,222.4088,224.2555,224.2556,231.9147,return,0.9893,,7.291666667,0,35,35,1,1,FBP-PT-17.png,0.37,1.2,2,0.25,,,,,,,,,,,,,,,,,,,,,,,,,,,,,,,,,,,,,,,,,,,,,
,,,,,V2_013,19,Female,2024-03-01_15h36.57.653,jersey_experiment_5_v2,2023.2.2,Win32,84.74576271,,,,,,,,,,,,,,,,231.9149,234.0089,234.009,236.3501,return,0.481,,24.86979167,0,36,36,45,1,FBP-YG-71.png,0.35,1.2,46,0.5,,,,,,,,,,,,,,,,,,,,,,,,,,,,,,,,,,,,,,,,,,,,,
,,,,,V2_013,19,Female,2024-03-01_15h36.57.653,jersey_experiment_5_v2,2023.2.2,Win32,84.74576271,,,,,,,,,,,,,,,,236.3504,238.4443,238.4444,240.1855,return,0.3902,,11.97916667,0,37,37,25,1,FBP-OG-19.png,0.35,1.2,26,0.5,,,,,,,,,,,,,,,,,,,,,,,,,,,,,,,,,,,,,,,,,,,,,
,,,,,V2_013,19,Female,2024-03-01_15h36.57.653,jersey_experiment_5_v2,2023.2.2,Win32,84.74576271,,,,,,,,,,,,,,,,240.1858,242.2798,242.2799,243.5268,return,0.5235,,11.97916667,0,38,38,55,1,FBP-YG-91.png,0.35,1.2,56,0.5,,,,,,,,,,,,,,,,,,,,,,,,,,,,,,,,,,,,,,,,,,,,,
,,,,,V2_013,19,Female,2024-03-01_15h36.57.653,jersey_experiment_5_v2,2023.2.2,Win32,84.74576271,,,,,,,,,,,,,,,,243.5271,245.3857,245.3857,247.3742,return,0.2827,,37.5,0,39,39,7,1,FBP-PT-18.png,0.4,1.2,8,0.25,,,,,,,,,,,,,,,,,,,,,,,,,,,,,,,,,,,,,,,,,,,,,
,,,,,V2_013,19,Female,2024-03-01_15h36.57.653,jersey_experiment_5_v2,2023.2.2,Win32,84.74576271,,,,,,,,,,,,,,,,247.3745,249.2213,249.2213,250.8213,return,0.2427,,11.71875,0,40,40,0,1,FBP-PT-17.png,0.35,1.2,1,0.25,,,,,,,,,,,,,,,,,,,,,,,,,,,,,,,,,,,,,,,,,,,,,
,,,,,V2_013,19,Female,2024-03-01_15h36.57.653,jersey_experiment_5_v2,2023.2.2,Win32,84.74576271,,,,,,,,,,,,,,,,250.8215,252.9157,252.9157,255.598,return,0.7534,,87.890625,0,41,41,34,1,FBP-RB-17.png,0.45,1.2,35,0.5,,,,,,,,,,,,,,,,,,,,,,,,,,,,,,,,,,,,,,,,,,,,,
,,,,,V2_013,19,Female,2024-03-01_15h36.57.653,jersey_experiment_5_v2,2023.2.2,Win32,84.74576271,,,,,,,,,,,,,,,,255.5982,257.7039,257.704,259.704,return,0.3316,,99.34895833,0,42,42,19,1,FBP-OG-17.png,0.45,1.2,20,0.5,,,,,,,,,,,,,,,,,,,,,,,,,,,,,,,,,,,,,,,,,,,,,
,,,,,V2_013,19,Female,2024-03-01_15h36.57.653,jersey_experiment_5_v2,2023.2.2,Win32,84.74576271,,,,,,,,,,,,,,,,259.7042,261.7982,261.7983,264.2217,return,0.2365,,88.41145833,0,43,43,43,1,FBP-RB-19.png,0.43,1.2,44,0.5,,,,,,,,,,,,,,,,,,,,,,,,,,,,,,,,,,,,,,,,,,,,,
,,,,,V2_013,19,Female,2024-03-01_15h36.57.653,jersey_experiment_5_v2,2023.2.2,Win32,84.74576271,,,,,,,,,,,,,,,,264.222,266.3161,266.3161,267.7867,return,0.285,,49.47916667,0,44,44,36,1,FBP-RB-18.png,0.37,1.2,37,0.5,,,,,,,,,,,,,,,,,,,,,,,,,,,,,,,,,,,,,,,,,,,,,
,,,,,V2_013,19,Female,2024-03-01_15h36.57.653,jersey_experiment_5_v2,2023.2.2,Win32,84.74576271,,,,,,,,,,,,,,,,267.7868,269.6337,269.6338,273.8457,return,0.278,,74.47916667,0,45,45,13,1,FBP-PT-19.png,0.43,1.2,14,0.25,,,,,,,,,,,,,,,,,,,,,,,,,,,,,,,,,,,,,,,,,,,,,
,,,,,V2_013,19,Female,2024-03-01_15h36.57.653,jersey_experiment_5_v2,2023.2.2,Win32,84.74576271,,,,,,,,,,,,,,,,273.8459,275.9399,275.9399,278.1869,return,0.6006,,67.1875,0,46,46,22,1,FBP-OG-18.png,0.4,1.2,23,0.5,,,,,,,,,,,,,,,,,,,,,,,,,,,,,,,,,,,,,,,,,,,,,
,,,,,V2_013,19,Female,2024-03-01_15h36.57.653,jersey_experiment_5_v2,2023.2.2,Win32,84.74576271,,,,,,,,,,,,,,,,278.1872,280.0342,280.0342,282.1518,return,0.2389,,36.97916667,0,47,47,11,1,FBP-PT-19.png,0.37,1.2,12,0.25,,,,,,,,,,,,,,,,,,,,,,,,,,,,,,,,,,,,,,,,,,,,,
,,,,,V2_013,19,Female,2024-03-01_15h36.57.653,jersey_experiment_5_v2,2023.2.2,Win32,84.74576271,,,,,,,,,,,,,,,,282.1521,284.2462,284.2462,285.7989,return,0.394,,64.32291667,0,48,48,32,1,FBP-RB-17.png,0.4,1.2,33,0.5,,,,,,,,,,,,,,,,,,,,,,,,,,,,,,,,,,,,,,,,,,,,,
,,,,,V2_013,19,Female,2024-03-01_15h36.57.653,jersey_experiment_5_v2,2023.2.2,Win32,84.74576271,,,,,,,,,,,,,,,,285.7992,287.8934,287.8935,290.1874,return,0.4016,,82.421875,0,49,49,58,1,FBP-YG-91.png,0.43,1.2,59,0.5,,,,,,,,,,,,,,,,,,,,,,,,,,,,,,,,,,,,,,,,,,,,,
,,,,,V2_013,19,Female,2024-03-01_15h36.57.653,jersey_experiment_5_v2,2023.2.2,Win32,84.74576271,,,,,,,,,,,,,,,,290.1877,292.2816,292.2817,293.7994,return,0.4647,,93.48958333,0,50,50,39,1,FBP-RB-18.png,0.45,1.2,40,0.5,,,,,,,,,,,,,,,,,,,,,,,,,,,,,,,,,,,,,,,,,,,,,
,,,,,V2_013,19,Female,2024-03-01_15h36.57.653,jersey_experiment_5_v2,2023.2.2,Win32,84.74576271,,,,,,,,,,,,,,,,293.7996,295.8937,295.8937,297.8347,return,0.3889,,25.13020833,0,51,51,51,1,FBP-YG-81.png,0.37,1.2,52,0.5,,,,,,,,,,,,,,,,,,,,,,,,,,,,,,,,,,,,,,,,,,,,,
,,,,,V2_013,19,Female,2024-03-01_15h36.57.653,jersey_experiment_5_v2,2023.2.2,Win32,84.74576271,,,,,,,,,,,,,,,,297.835,299.682,299.6821,301.7408,return,0.3295,,74.47916667,0,52,52,14,1,FBP-PT-19.png,0.45,1.2,15,0.25,,,,,,,,,,,,,,,,,,,,,,,,,,,,,,,,,,,,,,,,,,,,,
,,,,,V2_013,19,Female,2024-03-01_15h36.57.653,jersey_experiment_5_v2,2023.2.2,Win32,84.74576271,,,,,,,,,,,,,,,,301.741,303.8349,303.835,309.3411,return,0.2352,,67.05729167,0,53,53,52,1,FBP-YG-81.png,0.4,1.2,53,0.5,,,,,,,,,,,,,,,,,,,,,,,,,,,,,,,,,,,,,,,,,,,,,
,,,,,V2_013,19,Female,2024-03-01_15h36.57.653,jersey_experiment_5_v2,2023.2.2,Win32,84.74576271,,,,,,,,,,,,,,,,309.3414,311.1999,311.2,313.5412,return,0.4065,,24.73958333,0,54,54,5,1,FBP-PT-18.png,0.35,1.2,6,0.25,,,,,,,,,,,,,,,,,,,,,,,,,,,,,,,,,,,,,,,,,,,,,
,,,,,V2_013,19,Female,2024-03-01_15h36.57.653,jersey_experiment_5_v2,2023.2.2,Win32,84.74576271,,,,,,,,,,,,,,,,313.5415,315.6355,315.6355,317.2472,return,0.34,,63.671875,0,55,55,47,1,FBP-YG-71.png,0.4,1.2,48,0.5,,,,,,,,,,,,,,,,,,,,,,,,,,,,,,,,,,,,,,,,,,,,,
,,,,,V2_013,19,Female,2024-03-01_15h36.57.653,jersey_experiment_5_v2,2023.2.2,Win32,84.74576271,,,,,,,,,,,,,,,,317.2473,319.0944,319.0945,320.1414,return,0.4576,,63.671875,0,56,56,12,1,FBP-PT-19.png,0.4,1.2,13,0.25,,,,,,,,,,,,,,,,,,,,,,,,,,,,,,,,,,,,,,,,,,,,,
,,,,,V2_013,19,Female,2024-03-01_15h36.57.653,jersey_experiment_5_v2,2023.2.2,Win32,84.74576271,,,,,,,,,,,,,,,,320.1417,321.9888,321.9888,323.2239,return,0.439,,63.671875,0,57,57,2,1,FBP-PT-17.png,0.4,1.2,3,0.25,,,,,,,,,,,,,,,,,,,,,,,,,,,,,,,,,,,,,,,,,,,,,
,,,,,V2_013,19,Female,2024-03-01_15h36.57.653,jersey_experiment_5_v2,2023.2.2,Win32,84.74576271,,,,,,,,,,,,,,,,323.2241,325.3181,325.3182,326.3418,return,0.4187,,74.47916667,0,58,58,28,1,FBP-OG-19.png,0.43,1.2,29,0.5,,,,,,,,,,,,,,,,,,,,,,,,,,,,,,,,,,,,,,,,,,,,,
,,,,,V2_013,19,Female,2024-03-01_15h36.57.653,jersey_experiment_5_v2,2023.2.2,Win32,84.74576271,,,,,,,,,,,,,,,,326.342,328.4358,328.4359,329.1889,return,0.3123,,74.47916667,0,59,59,57,1,FBP-YG-91.png,0.4,1.2,58,0.5,,,,,,,,,,,,,,,,,,,,,,,,,,,,,,,,,,,,,,,,,,,,,
,,,,,V2_013,19,Female,2024-03-01_15h36.57.653,jersey_experiment_5_v2,2023.2.2,Win32,84.74576271,,,,,,,,,,,,,,,,329.1911,331.2831,331.2831,332.4242,return,0.381,,87.63020833,,,,,,FBP-OG-71.png,0.43,1.2,19,0.5,0,0,0,18,1,,,,,,,,,,,,,,,,,,,,,,,,,,,,,,,,,,,,,,,,
,,,,,V2_013,19,Female,2024-03-01_15h36.57.653,jersey_experiment_5_v2,2023.2.2,Win32,84.74576271,,,,,,,,,,,,,,,,332.4246,334.5183,334.5184,337.3186,return,0.298,,24.609375,,,,,,FBP-OG-71.png,0.37,1.2,17,0.5,0,1,1,16,1,,,,,,,,,,,,,,,,,,,,,,,,,,,,,,,,,,,,,,,,
,,,,,V2_013,19,Female,2024-03-01_15h36.57.653,jersey_experiment_5_v2,2023.2.2,Win32,84.74576271,,,,,,,,,,,,,,,,337.3189,339.4127,339.4127,340.5658,return,0.2659,,11.45833333,,,,,,FBP-RB-81.png,0.35,1.2,36,0.5,0,2,2,35,1,,,,,,,,,,,,,,,,,,,,,,,,,,,,,,,,,,,,,,,,
,,,,,V2_013,19,Female,2024-03-01_15h36.57.653,jersey_experiment_5_v2,2023.2.2,Win32,84.74576271,,,,,,,,,,,,,,,,340.566,342.6718,342.6718,343.9659,return,0.331,,49.73958333,,,,,,FBP-OG-81.png,0.4,1.2,23,0.5,0,3,3,22,1,,,,,,,,,,,,,,,,,,,,,,,,,,,,,,,,,,,,,,,,
,,,,,V2_013,19,Female,2024-03-01_15h36.57.653,jersey_experiment_5_v2,2023.2.2,Win32,84.74576271,,,,,,,,,,,,,,,,343.9661,346.0601,346.0601,347.5424,return,0.3007,,86.97916667,,,,,,FBP-YG-18.png,0.45,1.2,55,0.5,0,4,4,54,1,,,,,,,,,,,,,,,,,,,,,,,,,,,,,,,,,,,,,,,,
,,,,,V2_013,19,Female,2024-03-01_15h36.57.653,jersey_experiment_5_v2,2023.2.2,Win32,84.74576271,,,,,,,,,,,,,,,,347.5426,349.6368,349.6369,350.919,return,0.44,,61.84895833,,,,,,FBP-YG-17.png,0.4,1.2,48,0.5,0,5,5,47,1,,,,,,,,,,,,,,,,,,,,,,,,,,,,,,,,,,,,,,,,
,,,,,V2_013,19,Female,2024-03-01_15h36.57.653,jersey_experiment_5_v2,2023.2.2,Win32,84.74576271,,,,,,,,,,,,,,,,350.9193,353.0252,353.0252,354.6017,return,0.2031,,24.21875,,,,,,FBP-YG-17.png,0.37,1.2,47,0.5,0,6,6,46,1,,,,,,,,,,,,,,,,,,,,,,,,,,,,,,,,,,,,,,,,
,,,,,V2_013,19,Female,2024-03-01_15h36.57.653,jersey_experiment_5_v2,2023.2.2,Win32,84.74576271,,,,,,,,,,,,,,,,354.6018,356.4488,356.4489,357.743,return,0.2699,,11.58854167,,,,,,FBP-PT-71.png,0.35,1.2,1,0.25,0,7,7,0,1,,,,,,,,,,,,,,,,,,,,,,,,,,,,,,,,,,,,,,,,
,,,,,V2_013,19,Female,2024-03-01_15h36.57.653,jersey_experiment_5_v2,2023.2.2,Win32,84.74576271,,,,,,,,,,,,,,,,357.7433,359.5901,359.5901,360.4722,return,0.428,,11.45833333,,,,,,FBP-PT-81.png,0.37,1.2,7,0.25,0,8,8,6,1,,,,,,,,,,,,,,,,,,,,,,,,,,,,,,,,,,,,,,,,
,,,,,V2_013,19,Female,2024-03-01_15h36.57.653,jersey_experiment_5_v2,2023.2.2,Win32,84.74576271,,,,,,,,,,,,,,,,360.4725,362.5665,362.5665,364.3197,return,0.3912,,50.390625,,,,,,FBP-OG-91.png,0.4,1.2,28,0.5,0,9,9,27,1,,,,,,,,,,,,,,,,,,,,,,,,,,,,,,,,,,,,,,,,
,,,,,V2_013,19,Female,2024-03-01_15h36.57.653,jersey_experiment_5_v2,2023.2.2,Win32,84.74576271,,,,,,,,,,,,,,,,364.3199,366.1668,366.1669,367.4608,return,0.2435,,25.13020833,,,,,,FBP-PT-91.png,0.35,1.2,11,0.25,0,10,10,10,1,,,,,,,,,,,,,,,,,,,,,,,,,,,,,,,,,,,,,,,,
,,,,,V2_013,19,Female,2024-03-01_15h36.57.653,jersey_experiment_5_v2,2023.2.2,Win32,84.74576271,,,,,,,,,,,,,,,,367.4611,369.5551,369.5553,370.6022,return,0.3545,,86.19791667,,,,,,FBP-RB-71.png,0.43,1.2,34,0.5,0,11,11,33,1,,,,,,,,,,,,,,,,,,,,,,,,,,,,,,,,,,,,,,,,
,,,,,V2_013,19,Female,2024-03-01_15h36.57.653,jersey_experiment_5_v2,2023.2.2,Win32,84.74576271,,,,,,,,,,,,,,,,370.6024,372.6965,372.6965,373.8023,return,0.2602,,92.05729167,,,,,,FBP-OG-91.png,0.43,1.2,29,0.5,0,12,12,28,1,,,,,,,,,,,,,,,,,,,,,,,,,,,,,,,,,,,,,,,,
,,,,,V2_013,19,Female,2024-03-01_15h36.57.653,jersey_experiment_5_v2,2023.2.2,Win32,84.74576271,,,,,,,,,,,,,,,,373.8025,375.8965,375.8966,376.8142,return,0.2835,,99.47916667,,,,,,FBP-YG-19.png,0.45,1.2,60,0.5,0,13,13,59,1,,,,,,,,,,,,,,,,,,,,,,,,,,,,,,,,,,,,,,,,
,,,,,V2_013,19,Female,2024-03-01_15h36.57.653,jersey_experiment_5_v2,2023.2.2,Win32,84.74576271,,,,,,,,,,,,,,,,376.8143,378.9201,378.9201,379.5906,return,0.2403,,99.47916667,,,,,,FBP-YG-17.png,0.45,1.2,50,0.5,0,14,14,49,1,,,,,,,,,,,,,,,,,,,,,,,,,,,,,,,,,,,,,,,,
,,,,,V2_013,19,Female,2024-03-01_15h36.57.653,jersey_experiment_5_v2,2023.2.2,Win32,84.74576271,,,,,,,,,,,,,,,,379.5909,381.6849,381.685,384.285,return,1.3521,,24.609375,,,,,,FBP-YG-19.png,0.37,1.2,57,0.5,0,15,15,56,1,,,,,,,,,,,,,,,,,,,,,,,,,,,,,,,,,,,,,,,,
,,,,,V2_013,19,Female,2024-03-01_15h36.57.653,jersey_experiment_5_v2,2023.2.2,Win32,84.74576271,,,,,,,,,,,,,,,,384.2852,386.1322,386.1322,387.9793,return,0.2004,,85.67708333,,,,,,FBP-PT-71.png,0.45,1.2,5,0.25,0,16,16,4,1,,,,,,,,,,,,,,,,,,,,,,,,,,,,,,,,,,,,,,,,
,,,,,V2_013,19,Female,2024-03-01_15h36.57.653,jersey_experiment_5_v2,2023.2.2,Win32,84.74576271,,,,,,,,,,,,,,,,387.9795,390.0736,390.0737,393.3559,return,0.4135,,37.5,,,,,,FBP-OG-81.png,0.37,1.2,22,0.5,0,17,17,21,1,,,,,,,,,,,,,,,,,,,,,,,,,,,,,,,,,,,,,,,,
,,,,,V2_013,19,Female,2024-03-01_15h36.57.653,jersey_experiment_5_v2,2023.2.2,Win32,84.74576271,,,,,,,,,,,,,,,,393.3561,395.4501,395.4502,397.4384,return,0.2355,,87.63020833,,,,,,FBP-YG-18.png,0.43,1.2,54,0.5,0,18,18,53,1,,,,,,,,,,,,,,,,,,,,,,,,,,,,,,,,,,,,,,,,
,,,,,V2_013,19,Female,2024-03-01_15h36.57.653,jersey_experiment_5_v2,2023.2.2,Win32,84.74576271,,,,,,,,,,,,,,,,397.4385,399.2856,399.2856,399.9561,return,0.2204,,87.63020833,,,,,,FBP-PT-91.png,0.43,1.2,14,0.25,0,19,19,13,1,,,,,,,,,,,,,,,,,,,,,,,,,,,,,,,,,,,,,,,,
,,,,,V2_013,19,Female,2024-03-01_15h36.57.653,jersey_experiment_5_v2,2023.2.2,Win32,84.74576271,,,,,,,,,,,,,,,,399.9563,402.0505,402.0505,403.7093,return,0.4237,,24.609375,,,,,,FBP-OG-71.png,0.35,1.2,16,0.5,0,20,20,15,1,,,,,,,,,,,,,,,,,,,,,,,,,,,,,,,,,,,,,,,,
,,,,,V2_013,19,Female,2024-03-01_15h36.57.653,jersey_experiment_5_v2,2023.2.2,Win32,84.74576271,,,,,,,,,,,,,,,,403.7096,405.5565,405.5566,406.5682,return,0.2034,,39.0625,,,,,,FBP-PT-71.png,0.37,1.2,2,0.25,0,21,21,1,1,,,,,,,,,,,,,,,,,,,,,,,,,,,,,,,,,,,,,,,,
,,,,,V2_013,19,Female,2024-03-01_15h36.57.653,jersey_experiment_5_v2,2023.2.2,Win32,84.74576271,,,,,,,,,,,,,,,,406.5684,408.6624,408.6625,410.0859,return,0.2642,,63.15104167,,,,,,FBP-RB-91.png,0.4,1.2,43,0.5,0,22,22,42,1,,,,,,,,,,,,,,,,,,,,,,,,,,,,,,,,,,,,,,,,
,,,,,V2_013,19,Female,2024-03-01_15h36.57.653,jersey_experiment_5_v2,2023.2.2,Win32,84.74576271,,,,,,,,,,,,,,,,410.0861,412.1802,412.1803,413.2272,return,0.3417,,86.58854167,,,,,,FBP-RB-81.png,0.43,1.2,39,0.5,0,23,23,38,1,,,,,,,,,,,,,,,,,,,,,,,,,,,,,,,,,,,,,,,,
,,,,,V2_013,19,Female,2024-03-01_15h36.57.653,jersey_experiment_5_v2,2023.2.2,Win32,84.74576271,,,,,,,,,,,,,,,,413.2274,415.3215,415.3216,416.2509,return,0.2724,,97.13541667,,,,,,FBP-RB-91.png,0.45,1.2,45,0.5,0,24,24,44,1,,,,,,,,,,,,,,,,,,,,,,,,,,,,,,,,,,,,,,,,
,,,,,V2_013,19,Female,2024-03-01_15h36.57.653,jersey_experiment_5_v2,2023.2.2,Win32,84.74576271,,,,,,,,,,,,,,,,416.2512,418.3452,418.3452,419.2394,return,0.3,,97.65625,,,,,,FBP-OG-91.png,0.45,1.2,30,0.5,0,25,25,29,1,,,,,,,,,,,,,,,,,,,,,,,,,,,,,,,,,,,,,,,,
,,,,,V2_013,19,Female,2024-03-01_15h36.57.653,jersey_experiment_5_v2,2023.2.2,Win32,84.74576271,,,,,,,,,,,,,,,,419.2396,421.3336,421.3337,422.6629,return,0.3214,,99.609375,,,,,,FBP-OG-71.png,0.45,1.2,20,0.5,0,26,26,19,1,,,,,,,,,,,,,,,,,,,,,,,,,,,,,,,,,,,,,,,,
,,,,,V2_013,19,Female,2024-03-01_15h36.57.653,jersey_experiment_5_v2,2023.2.2,Win32,84.74576271,,,,,,,,,,,,,,,,422.6631,424.5101,424.5101,427.3219,return,0.332,,10.9375,,,,,,FBP-PT-81.png,0.35,1.2,6,0.25,0,27,27,5,1,,,,,,,,,,,,,,,,,,,,,,,,,,,,,,,,,,,,,,,,
,,,,,V2_013,19,Female,2024-03-01_15h36.57.653,jersey_experiment_5_v2,2023.2.2,Win32,84.74576271,,,,,,,,,,,,,,,,427.322,429.4162,429.4162,430.2631,return,0.1704,,17.70833333,,,,,,FBP-RB-81.png,0.37,1.2,37,0.5,0,28,28,36,1,,,,,,,,,,,,,,,,,,,,,,,,,,,,,,,,,,,,,,,,
,,,,,V2_013,19,Female,2024-03-01_15h36.57.653,jersey_experiment_5_v2,2023.2.2,Win32,84.74576271,,,,,,,,,,,,,,,,430.2633,432.3575,432.3575,433.5809,return,0.3056,,74.34895833,,,,,,FBP-RB-81.png,0.45,1.2,40,0.5,0,29,29,39,1,,,,,,,,,,,,,,,,,,,,,,,,,,,,,,,,,,,,,,,,
,,,,,V2_013,19,Female,2024-03-01_15h36.57.653,jersey_experiment_5_v2,2023.2.2,Win32,84.74576271,,,,,,,,,,,,,,,,433.5811,435.6751,435.6752,436.6163,return,0.2503,,88.41145833,,,,,,FBP-RB-71.png,0.45,1.2,35,0.5,0,30,30,34,1,,,,,,,,,,,,,,,,,,,,,,,,,,,,,,,,,,,,,,,,
,,,,,V2_013,19,Female,2024-03-01_15h36.57.653,jersey_experiment_5_v2,2023.2.2,Win32,84.74576271,,,,,,,,,,,,,,,,436.6165,438.7107,438.7107,440.3106,return,0.2752,,74.73958333,,,,,,FBP-RB-91.png,0.43,1.2,44,0.5,0,31,31,43,1,,,,,,,,,,,,,,,,,,,,,,,,,,,,,,,,,,,,,,,,
,,,,,V2_013,19,Female,2024-03-01_15h36.57.653,jersey_experiment_5_v2,2023.2.2,Win32,84.74576271,,,,,,,,,,,,,,,,440.3108,442.4048,442.4048,444.4754,return,0.3411,,12.23958333,,,,,,FBP-RB-91.png,0.35,1.2,41,0.5,0,32,32,40,1,,,,,,,,,,,,,,,,,,,,,,,,,,,,,,,,,,,,,,,,
,,,,,V2_013,19,Female,2024-03-01_15h36.57.653,jersey_experiment_5_v2,2023.2.2,Win32,84.74576271,,,,,,,,,,,,,,,,444.4756,446.3226,446.3226,448.1109,return,0.2964,,50.13020833,,,,,,FBP-PT-71.png,0.4,1.2,3,0.25,0,33,33,2,1,,,,,,,,,,,,,,,,,,,,,,,,,,,,,,,,,,,,,,,,
,,,,,V2_013,19,Female,2024-03-01_15h36.57.653,jersey_experiment_5_v2,2023.2.2,Win32,84.74576271,,,,,,,,,,,,,,,,448.1111,449.9581,449.9581,451.1111,return,0.2174,,74.609375,,,,,,FBP-PT-81.png,0.45,1.2,10,0.25,0,34,34,9,1,,,,,,,,,,,,,,,,,,,,,,,,,,,,,,,,,,,,,,,,
,,,,,V2_013,19,Female,2024-03-01_15h36.57.653,jersey_experiment_5_v2,2023.2.2,Win32,84.74576271,,,,,,,,,,,,,,,,451.1112,453.2053,453.2053,454.2523,return,0.2825,,25.65104167,,,,,,FBP-OG-91.png,0.37,1.2,27,0.5,0,35,35,26,1,,,,,,,,,,,,,,,,,,,,,,,,,,,,,,,,,,,,,,,,
,,,,,V2_013,19,Female,2024-03-01_15h36.57.653,jersey_experiment_5_v2,2023.2.2,Win32,84.74576271,,,,,,,,,,,,,,,,454.2525,456.3466,456.3466,457.4761,return,0.2427,,74.34895833,,,,,,FBP-OG-81.png,0.45,1.2,25,0.5,0,36,36,24,1,,,,,,,,,,,,,,,,,,,,,,,,,,,,,,,,,,,,,,,,
,,,,,V2_013,19,Female,2024-03-01_15h36.57.653,jersey_experiment_5_v2,2023.2.2,Win32,84.74576271,,,,,,,,,,,,,,,,457.4763,459.5701,459.5702,462.4409,return,0.3216,,38.54166667,,,,,,FBP-RB-71.png,0.37,1.2,32,0.5,0,37,37,31,1,,,,,,,,,,,,,,,,,,,,,,,,,,,,,,,,,,,,,,,,
,,,,,V2_013,19,Female,2024-03-01_15h36.57.653,jersey_experiment_5_v2,2023.2.2,Win32,84.74576271,,,,,,,,,,,,,,,,462.4411,464.2879,464.288,465.8057,return,0.259,,75.26041667,,,,,,FBP-PT-81.png,0.43,1.2,9,0.25,0,38,38,8,1,,,,,,,,,,,,,,,,,,,,,,,,,,,,,,,,,,,,,,,,
,,,,,V2_013,19,Female,2024-03-01_15h36.57.653,jersey_experiment_5_v2,2023.2.2,Win32,84.74576271,,,,,,,,,,,,,,,,465.8059,467.8998,467.8999,470.8999,return,0.3145,,63.02083333,,,,,,FBP-RB-81.png,0.4,1.2,38,0.5,0,39,39,37,1,,,,,,,,,,,,,,,,,,,,,,,,,,,,,,,,,,,,,,,,
,,,,,V2_013,19,Female,2024-03-01_15h36.57.653,jersey_experiment_5_v2,2023.2.2,Win32,84.74576271,,,,,,,,,,,,,,,,470.9001,472.9941,472.9942,473.9353,return,0.2224,,75,,,,,,FBP-OG-81.png,0.43,1.2,24,0.5,0,40,40,23,1,,,,,,,,,,,,,,,,,,,,,,,,,,,,,,,,,,,,,,,,
,,,,,V2_013,19,Female,2024-03-01_15h36.57.653,jersey_experiment_5_v2,2023.2.2,Win32,84.74576271,,,,,,,,,,,,,,,,473.9355,475.7825,475.7825,477.0649,return,0.1448,,79.03645833,,,,,,FBP-PT-91.png,0.45,1.2,15,0.25,0,41,41,14,1,,,,,,,,,,,,,,,,,,,,,,,,,,,,,,,,,,,,,,,,
,,,,,V2_013,19,Female,2024-03-01_15h36.57.653,jersey_experiment_5_v2,2023.2.2,Win32,84.74576271,,,,,,,,,,,,,,,,477.0651,478.9122,478.9122,479.6414,return,0.2033,,64.71354167,,,,,,FBP-PT-91.png,0.4,1.2,13,0.25,0,42,42,12,1,,,,,,,,,,,,,,,,,,,,,,,,,,,,,,,,,,,,,,,,
,,,,,V2_013,19,Female,2024-03-01_15h36.57.653,jersey_experiment_5_v2,2023.2.2,Win32,84.74576271,,,,,,,,,,,,,,,,479.6416,481.7359,481.7359,482.9003,return,0.3247,,24.47916667,,,,,,FBP-OG-91.png,0.35,1.2,26,0.5,0,43,43,25,1,,,,,,,,,,,,,,,,,,,,,,,,,,,,,,,,,,,,,,,,
,,,,,V2_013,19,Female,2024-03-01_15h36.57.653,jersey_experiment_5_v2,2023.2.2,Win32,84.74576271,,,,,,,,,,,,,,,,482.9005,485.0064,485.0064,486.7006,return,0.2831,,50.26041667,,,,,,FBP-YG-18.png,0.37,1.2,52,0.5,0,44,44,51,1,,,,,,,,,,,,,,,,,,,,,,,,,,,,,,,,,,,,,,,,
,,,,,V2_013,19,Female,2024-03-01_15h36.57.653,jersey_experiment_5_v2,2023.2.2,Win32,84.74576271,,,,,,,,,,,,,,,,486.7008,488.7949,488.795,490.2654,return,0.3327,,53.515625,,,,,,FBP-OG-71.png,0.4,1.2,18,0.5,0,45,45,17,1,,,,,,,,,,,,,,,,,,,,,,,,,,,,,,,,,,,,,,,,
,,,,,V2_013,19,Female,2024-03-01_15h36.57.653,jersey_experiment_5_v2,2023.2.2,Win32,84.74576271,,,,,,,,,,,,,,,,490.2656,492.3597,492.3598,495.9596,return,2.8289,,35.9375,,,,,,FBP-YG-17.png,0.35,1.2,46,0.5,0,46,46,45,1,,,,,,,,,,,,,,,,,,,,,,,,,,,,,,,,,,,,,,,,
,,,,,V2_013,19,Female,2024-03-01_15h36.57.653,jersey_experiment_5_v2,2023.2.2,Win32,84.74576271,,,,,,,,,,,,,,,,495.9598,498.0658,498.0659,500.454,return,1.2159,,67.578125,,,,,,FBP-YG-17.png,0.43,1.2,49,0.5,0,47,47,48,1,,,,,,,,,,,,,,,,,,,,,,,,,,,,,,,,,,,,,,,,
,,,,,V2_013,19,Female,2024-03-01_15h36.57.653,jersey_experiment_5_v2,2023.2.2,Win32,84.74576271,,,,,,,,,,,,,,,,500.4543,502.56,502.56,503.4307,return,0.3238,,69.53125,,,,,,FBP-YG-18.png,0.4,1.2,53,0.5,0,48,48,52,1,,,,,,,,,,,,,,,,,,,,,,,,,,,,,,,,,,,,,,,,
,,,,,V2_013,19,Female,2024-03-01_15h36.57.653,jersey_experiment_5_v2,2023.2.2,Win32,84.74576271,,,,,,,,,,,,,,,,503.4309,505.5365,505.5365,506.9247,return,0.3167,,35.9375,,,,,,FBP-YG-19.png,0.35,1.2,56,0.5,0,49,49,55,1,,,,,,,,,,,,,,,,,,,,,,,,,,,,,,,,,,,,,,,,
,,,,,V2_013,19,Female,2024-03-01_15h36.57.653,jersey_experiment_5_v2,2023.2.2,Win32,84.74576271,,,,,,,,,,,,,,,,506.9248,509.0309,509.031,510.325,return,0.4666,,63.28125,,,,,,FBP-RB-71.png,0.4,1.2,33,0.5,0,50,50,32,1,,,,,,,,,,,,,,,,,,,,,,,,,,,,,,,,,,,,,,,,
,,,,,V2_013,19,Female,2024-03-01_15h36.57.653,jersey_experiment_5_v2,2023.2.2,Win32,84.74576271,,,,,,,,,,,,,,,,510.3251,512.4193,512.4194,513.7369,return,0.2278,,35.546875,,,,,,FBP-YG-18.png,0.35,1.2,51,0.5,0,51,51,50,1,,,,,,,,,,,,,,,,,,,,,,,,,,,,,,,,,,,,,,,,
,,,,,V2_013,19,Female,2024-03-01_15h36.57.653,jersey_experiment_5_v2,2023.2.2,Win32,84.74576271,,,,,,,,,,,,,,,,513.7371,515.8427,515.8428,516.5251,return,0.259,,35.546875,,,,,,FBP-RB-91.png,0.37,1.2,42,0.5,0,52,52,41,1,,,,,,,,,,,,,,,,,,,,,,,,,,,,,,,,,,,,,,,,
,,,,,V2_013,19,Female,2024-03-01_15h36.57.653,jersey_experiment_5_v2,2023.2.2,Win32,84.74576271,,,,,,,,,,,,,,,,516.5253,518.6195,518.6195,519.9253,return,0.3579,,74.86979167,,,,,,FBP-YG-19.png,0.43,1.2,59,0.5,0,53,53,58,1,,,,,,,,,,,,,,,,,,,,,,,,,,,,,,,,,,,,,,,,
,,,,,V2_013,19,Female,2024-03-01_15h36.57.653,jersey_experiment_5_v2,2023.2.2,Win32,84.74576271,,,,,,,,,,,,,,,,519.9255,522.0197,522.0198,523.2548,return,0.4395,,50.390625,,,,,,FBP-RB-71.png,0.35,1.2,31,0.5,0,54,54,30,1,,,,,,,,,,,,,,,,,,,,,,,,,,,,,,,,,,,,,,,,
,,,,,V2_013,19,Female,2024-03-01_15h36.57.653,jersey_experiment_5_v2,2023.2.2,Win32,84.74576271,,,,,,,,,,,,,,,,523.2551,525.102,525.102,526.5256,return,0.4812,,50.390625,,,,,,FBP-PT-91.png,0.37,1.2,12,0.25,0,55,55,11,1,,,,,,,,,,,,,,,,,,,,,,,,,,,,,,,,,,,,,,,,
,,,,,V2_013,19,Female,2024-03-01_15h36.57.653,jersey_experiment_5_v2,2023.2.2,Win32,84.74576271,,,,,,,,,,,,,,,,526.5257,528.3729,528.3729,529.6434,return,0.2268,,75.26041667,,,,,,FBP-PT-71.png,0.43,1.2,4,0.25,0,56,56,3,1,,,,,,,,,,,,,,,,,,,,,,,,,,,,,,,,,,,,,,,,
,,,,,V2_013,19,Female,2024-03-01_15h36.57.653,jersey_experiment_5_v2,2023.2.2,Win32,84.74576271,,,,,,,,,,,,,,,,529.6436,531.7376,531.7376,532.9964,return,0.2438,,24.34895833,,,,,,FBP-OG-81.png,0.35,1.2,21,0.5,0,57,57,20,1,,,,,,,,,,,,,,,,,,,,,,,,,,,,,,,,,,,,,,,,
,,,,,V2_013,19,Female,2024-03-01_15h36.57.653,jersey_experiment_5_v2,2023.2.2,Win32,84.74576271,,,,,,,,,,,,,,,,532.9965,535.0906,535.0907,536.3258,return,0.2412,,63.54166667,,,,,,FBP-YG-19.png,0.4,1.2,58,0.5,0,58,58,57,1,,,,,,,,,,,,,,,,,,,,,,,,,,,,,,,,,,,,,,,,
,,,,,V2_013,19,Female,2024-03-01_15h36.57.653,jersey_experiment_5_v2,2023.2.2,Win32,84.74576271,,,,,,,,,,,,,,,,536.326,538.1849,538.1849,538.879,return,0.2697,,63.54166667,,,,,,FBP-PT-81.png,0.4,1.2,8,0.25,0,59,59,7,1,,,,,,,,,,,,,,,,,,,,,,,,,,,,,,,,,,,,,,,,
,,,,,V2_013,19,Female,2024-03-01_15h36.57.653,jersey_experiment_5_v2,2023.2.2,Win32,84.74576271,,,,,,,,,,,,,,,,,,,,,,,,,,,,,,,,,,,,,,,538.8793,658.8718,,,,,,,,,,,,,,,,,,,,,,,,,,,,,,,,,,,,,,
,,,,,V2_013,19,Female,2024-03-01_15h36.57.653,jersey_experiment_5_v2,2023.2.2,Win32,84.74576271,,,,,,,,,,,,,,,,,,,,,,,,,,,,,,,,,,,,,,,,,658.8719,661.0951,return,2.2172,,,,,,,,,,,,,,,,,,,,,,,,,,,,,,,,,,
,,,,,V2_013,19,Female,2024-03-01_15h36.57.653,jersey_experiment_5_v2,2023.2.2,Win32,84.74576271,,,,,,,,,,,,,,,,661.1017,663.2012,663.2012,667.1778,return,1.5078,,74.34895833,,,,,,FBP-PT-19.png,0.43,1.2,14,0.5,,,,,,,,,,,,,0,0,0,13,1,,,,,,,,,,,,,,,,,,,,,,,,,,,,
,,,,,V2_013,19,Female,2024-03-01_15h36.57.653,jersey_experiment_5_v2,2023.2.2,Win32,84.74576271,,,,,,,,,,,,,,,,667.1781,669.0249,669.0249,671.0485,return,0.7572,,24.21875,,,,,,FBP-RB-19.png,0.35,1.2,41,0.25,,,,,,,,,,,,,0,1,1,40,1,,,,,,,,,,,,,,,,,,,,,,,,,,,,
,,,,,V2_013,19,Female,2024-03-01_15h36.57.653,jersey_experiment_5_v2,2023.2.2,Win32,84.74576271,,,,,,,,,,,,,,,,671.0487,672.9076,672.9077,674.5899,return,0.6134,,49.34895833,,,,,,FBP-RB-17.png,0.35,1.2,31,0.25,,,,,,,,,,,,,0,2,2,30,1,,,,,,,,,,,,,,,,,,,,,,,,,,,,
,,,,,V2_013,19,Female,2024-03-01_15h36.57.653,jersey_experiment_5_v2,2023.2.2,Win32,84.74576271,,,,,,,,,,,,,,,,674.59,676.437,676.437,678.4135,return,0.3627,,85.41666667,,,,,,FBP-YG-71.png,0.43,1.2,49,0.25,,,,,,,,,,,,,0,3,3,48,1,,,,,,,,,,,,,,,,,,,,,,,,,,,,
,,,,,V2_013,19,Female,2024-03-01_15h36.57.653,jersey_experiment_5_v2,2023.2.2,Win32,84.74576271,,,,,,,,,,,,,,,,678.4135,680.2608,680.2608,681.4607,return,0.1141,,25,,,,,,FBP-OG-18.png,0.35,1.2,21,0.25,,,,,,,,,,,,,0,4,4,20,1,,,,,,,,,,,,,,,,,,,,,,,,,,,,
,,,,,V2_013,19,Female,2024-03-01_15h36.57.653,jersey_experiment_5_v2,2023.2.2,Win32,84.74576271,,,,,,,,,,,,,,,,681.4609,683.3196,683.3197,684.3431,return,0.3222,,85.9375,,,,,,FBP-OG-18.png,0.45,1.2,25,0.25,,,,,,,,,,,,,0,5,5,24,1,,,,,,,,,,,,,,,,,,,,,,,,,,,,
,,,,,V2_013,19,Female,2024-03-01_15h36.57.653,jersey_experiment_5_v2,2023.2.2,Win32,84.74576271,,,,,,,,,,,,,,,,684.3433,686.4374,686.4374,687.3903,return,0.2255,,91.015625,,,,,,FBP-PT-17.png,0.43,1.2,4,0.5,,,,,,,,,,,,,0,6,6,3,1,,,,,,,,,,,,,,,,,,,,,,,,,,,,
,,,,,V2_013,19,Female,2024-03-01_15h36.57.653,jersey_experiment_5_v2,2023.2.2,Win32,84.74576271,,,,,,,,,,,,,,,,687.3904,689.2375,689.2375,690.6374,return,0.1556,,24.34895833,,,,,,FBP-OG-19.png,0.35,1.2,26,0.25,,,,,,,,,,,,,0,7,7,25,1,,,,,,,,,,,,,,,,,,,,,,,,,,,,
,,,,,V2_013,19,Female,2024-03-01_15h36.57.653,jersey_experiment_5_v2,2023.2.2,Win32,84.74576271,,,,,,,,,,,,,,,,690.6376,692.7318,692.7318,694.4376,return,0.6298,,74.86979167,,,,,,FBP-PT-17.png,0.4,1.2,3,0.5,,,,,,,,,,,,,0,8,8,2,1,,,,,,,,,,,,,,,,,,,,,,,,,,,,
,,,,,V2_013,19,Female,2024-03-01_15h36.57.653,jersey_experiment_5_v2,2023.2.2,Win32,84.74576271,,,,,,,,,,,,,,,,694.4379,696.2849,696.2849,697.4377,return,0.2594,,50,,,,,,FBP-OG-17.png,0.37,1.2,17,0.25,,,,,,,,,,,,,0,9,9,16,1,,,,,,,,,,,,,,,,,,,,,,,,,,,,
,,,,,V2_013,19,Female,2024-03-01_15h36.57.653,jersey_experiment_5_v2,2023.2.2,Win32,84.74576271,,,,,,,,,,,,,,,,697.4379,699.2849,699.2849,700.426,return,0.2967,,62.36979167,,,,,,FBP-RB-18.png,0.37,1.2,37,0.25,,,,,,,,,,,,,0,10,10,36,1,,,,,,,,,,,,,,,,,,,,,,,,,,,,
,,,,,V2_013,19,Female,2024-03-01_15h36.57.653,jersey_experiment_5_v2,2023.2.2,Win32,84.74576271,,,,,,,,,,,,,,,,700.4263,702.2733,702.2733,703.2262,return,0.3528,,74.609375,,,,,,FBP-OG-18.png,0.4,1.2,23,0.25,,,,,,,,,,,,,0,11,11,22,1,,,,,,,,,,,,,,,,,,,,,,,,,,,,
,,,,,V2_013,19,Female,2024-03-01_15h36.57.653,jersey_experiment_5_v2,2023.2.2,Win32,84.74576271,,,,,,,,,,,,,,,,703.2264,705.0852,705.0852,706.3439,return,0.2962,,99.21875,,,,,,FBP-RB-17.png,0.45,1.2,35,0.25,,,,,,,,,,,,,0,12,12,34,1,,,,,,,,,,,,,,,,,,,,,,,,,,,,
,,,,,V2_013,19,Female,2024-03-01_15h36.57.653,jersey_experiment_5_v2,2023.2.2,Win32,84.74576271,,,,,,,,,,,,,,,,706.3441,708.4381,708.4381,710.2381,return,0.3432,,58.07291667,,,,,,FBP-PT-17.png,0.35,1.2,1,0.5,,,,,,,,,,,,,0,13,13,0,1,,,,,,,,,,,,,,,,,,,,,,,,,,,,
,,,,,V2_013,19,Female,2024-03-01_15h36.57.653,jersey_experiment_5_v2,2023.2.2,Win32,84.74576271,,,,,,,,,,,,,,,,710.2383,712.3325,712.3326,713.4383,return,0.2362,,62.63020833,,,,,,FBP-PT-19.png,0.37,1.2,12,0.5,,,,,,,,,,,,,0,14,14,11,1,,,,,,,,,,,,,,,,,,,,,,,,,,,,
,,,,,V2_013,19,Female,2024-03-01_15h36.57.653,jersey_experiment_5_v2,2023.2.2,Win32,84.74576271,,,,,,,,,,,,,,,,713.4385,715.2855,715.2855,716.0737,return,0.1797,,75,,,,,,FBP-RB-17.png,0.4,1.2,33,0.25,,,,,,,,,,,,,0,15,15,32,1,,,,,,,,,,,,,,,,,,,,,,,,,,,,
,,,,,V2_013,19,Female,2024-03-01_15h36.57.653,jersey_experiment_5_v2,2023.2.2,Win32,84.74576271,,,,,,,,,,,,,,,,716.0739,717.9324,717.9325,718.8268,return,0.2822,,93.359375,,,,,,FBP-OG-17.png,0.45,1.2,20,0.25,,,,,,,,,,,,,0,16,16,19,1,,,,,,,,,,,,,,,,,,,,,,,,,,,,
,,,,,V2_013,19,Female,2024-03-01_15h36.57.653,jersey_experiment_5_v2,2023.2.2,Win32,84.74576271,,,,,,,,,,,,,,,,718.8269,720.6739,720.674,721.9092,return,0.2642,,99.86979167,,,,,,FBP-RB-17.png,0.43,1.2,34,0.25,,,,,,,,,,,,,0,17,17,33,1,,,,,,,,,,,,,,,,,,,,,,,,,,,,
,,,,,V2_013,19,Female,2024-03-01_15h36.57.653,jersey_experiment_5_v2,2023.2.2,Win32,84.74576271,,,,,,,,,,,,,,,,721.9095,723.7681,723.7682,726.3563,return,0.1381,,50,,,,,,FBP-OG-19.png,0.37,1.2,27,0.25,,,,,,,,,,,,,0,18,18,26,1,,,,,,,,,,,,,,,,,,,,,,,,,,,,
,,,,,V2_013,19,Female,2024-03-01_15h36.57.653,jersey_experiment_5_v2,2023.2.2,Win32,84.74576271,,,,,,,,,,,,,,,,726.3566,728.2035,728.2036,728.8269,return,0.1547,,49.73958333,,,,,,FBP-OG-17.png,0.35,1.2,16,0.25,,,,,,,,,,,,,0,19,19,15,1,,,,,,,,,,,,,,,,,,,,,,,,,,,,
,,,,,V2_013,19,Female,2024-03-01_15h36.57.653,jersey_experiment_5_v2,2023.2.2,Win32,84.74576271,,,,,,,,,,,,,,,,728.8272,730.6743,730.6744,731.6274,return,0.2342,,89.19270833,,,,,,FBP-OG-19.png,0.45,1.2,30,0.25,,,,,,,,,,,,,0,20,20,29,1,,,,,,,,,,,,,,,,,,,,,,,,,,,,
,,,,,V2_013,19,Female,2024-03-01_15h36.57.653,jersey_experiment_5_v2,2023.2.2,Win32,84.74576271,,,,,,,,,,,,,,,,731.6276,733.7214,733.7214,734.5095,return,0.1751,,99.86979167,,,,,,FBP-PT-17.png,0.45,1.2,5,0.5,,,,,,,,,,,,,0,21,21,4,1,,,,,,,,,,,,,,,,,,,,,,,,,,,,
,,,,,V2_013,19,Female,2024-03-01_15h36.57.653,jersey_experiment_5_v2,2023.2.2,Win32,84.74576271,,,,,,,,,,,,,,,,734.5098,736.3569,736.357,737.1333,return,0.2118,,87.63020833,,,,,,FBP-YG-81.png,0.4,1.2,53,0.25,,,,,,,,,,,,,0,22,22,52,1,,,,,,,,,,,,,,,,,,,,,,,,,,,,
,,,,,V2_013,19,Female,2024-03-01_15h36.57.653,jersey_experiment_5_v2,2023.2.2,Win32,84.74576271,,,,,,,,,,,,,,,,737.1335,738.9805,738.9805,740.698,return,0.2848,,99.86979167,,,,,,FBP-RB-19.png,0.45,1.2,45,0.25,,,,,,,,,,,,,0,23,23,44,1,,,,,,,,,,,,,,,,,,,,,,,,,,,,
,,,,,V2_013,19,Female,2024-03-01_15h36.57.653,jersey_experiment_5_v2,2023.2.2,Win32,84.74576271,,,,,,,,,,,,,,,,740.6982,742.7925,742.7925,744.8041,return,1.1969,,49.73958333,,,,,,FBP-PT-18.png,0.37,1.2,7,0.5,,,,,,,,,,,,,0,24,24,6,1,,,,,,,,,,,,,,,,,,,,,,,,,,,,
,,,,,V2_013,19,Female,2024-03-01_15h36.57.653,jersey_experiment_5_v2,2023.2.2,Win32,84.74576271,,,,,,,,,,,,,,,,744.8042,746.6513,746.6514,747.8866,return,0.2955,,88.02083333,,,,,,FBP-YG-71.png,0.45,1.2,50,0.25,,,,,,,,,,,,,0,25,25,49,1,,,,,,,,,,,,,,,,,,,,,,,,,,,,
,,,,,V2_013,19,Female,2024-03-01_15h36.57.653,jersey_experiment_5_v2,2023.2.2,Win32,84.74576271,,,,,,,,,,,,,,,,747.8869,749.7338,749.7338,750.7808,return,0.3068,,74.47916667,,,,,,FBP-YG-91.png,0.43,1.2,59,0.25,,,,,,,,,,,,,0,26,26,58,1,,,,,,,,,,,,,,,,,,,,,,,,,,,,
,,,,,V2_013,19,Female,2024-03-01_15h36.57.653,jersey_experiment_5_v2,2023.2.2,Win32,84.74576271,,,,,,,,,,,,,,,,750.7811,752.8869,752.8869,756.5575,return,1.7415,,61.97916667,,,,,,FBP-PT-17.png,0.37,1.2,2,0.5,,,,,,,,,,,,,0,27,27,1,1,,,,,,,,,,,,,,,,,,,,,,,,,,,,
,,,,,V2_013,19,Female,2024-03-01_15h36.57.653,jersey_experiment_5_v2,2023.2.2,Win32,84.74576271,,,,,,,,,,,,,,,,756.5577,758.4046,758.4048,759.4988,return,0.261,,61.97916667,,,,,,FBP-OG-19.png,0.4,1.2,28,0.25,,,,,,,,,,,,,0,28,28,27,1,,,,,,,,,,,,,,,,,,,,,,,,,,,,
,,,,,V2_013,19,Female,2024-03-01_15h36.57.653,jersey_experiment_5_v2,2023.2.2,Win32,84.74576271,,,,,,,,,,,,,,,,759.4991,761.3461,761.3462,763.2048,return,0.3727,,60.15625,,,,,,FBP-OG-18.png,0.37,1.2,22,0.25,,,,,,,,,,,,,0,29,29,21,1,,,,,,,,,,,,,,,,,,,,,,,,,,,,
,,,,,V2_013,19,Female,2024-03-01_15h36.57.653,jersey_experiment_5_v2,2023.2.2,Win32,84.74576271,,,,,,,,,,,,,,,,763.205,765.0519,765.0519,765.8284,return,0.0651,,74.47916667,,,,,,FBP-OG-17.png,0.43,1.2,19,0.25,,,,,,,,,,,,,0,30,30,18,1,,,,,,,,,,,,,,,,,,,,,,,,,,,,
,,,,,V2_013,19,Female,2024-03-01_15h36.57.653,jersey_experiment_5_v2,2023.2.2,Win32,84.74576271,,,,,,,,,,,,,,,,765.8286,767.6757,767.6758,768.758,return,0.3012,,61.19791667,,,,,,FBP-OG-17.png,0.4,1.2,18,0.25,,,,,,,,,,,,,0,31,31,17,1,,,,,,,,,,,,,,,,,,,,,,,,,,,,
,,,,,V2_013,19,Female,2024-03-01_15h36.57.653,jersey_experiment_5_v2,2023.2.2,Win32,84.74576271,,,,,,,,,,,,,,,,768.7582,770.6053,770.6054,772.264,return,0.3092,,50.390625,,,,,,FBP-RB-19.png,0.37,1.2,42,0.25,,,,,,,,,,,,,0,32,32,41,1,,,,,,,,,,,,,,,,,,,,,,,,,,,,
,,,,,V2_013,19,Female,2024-03-01_15h36.57.653,jersey_experiment_5_v2,2023.2.2,Win32,84.74576271,,,,,,,,,,,,,,,,772.2642,774.1111,774.1112,775.1346,return,0.2833,,74.73958333,,,,,,FBP-RB-19.png,0.43,1.2,44,0.25,,,,,,,,,,,,,0,33,33,43,1,,,,,,,,,,,,,,,,,,,,,,,,,,,,
,,,,,V2_013,19,Female,2024-03-01_15h36.57.653,jersey_experiment_5_v2,2023.2.2,Win32,84.74576271,,,,,,,,,,,,,,,,775.1349,777.2289,777.2289,778.1701,return,0.273,,86.328125,,,,,,FBP-PT-18.png,0.45,1.2,10,0.5,,,,,,,,,,,,,0,34,34,9,1,,,,,,,,,,,,,,,,,,,,,,,,,,,,
,,,,,V2_013,19,Female,2024-03-01_15h36.57.653,jersey_experiment_5_v2,2023.2.2,Win32,84.74576271,,,,,,,,,,,,,,,,778.1703,780.0171,780.0172,781.5113,return,0.2866,,85.28645833,,,,,,FBP-RB-18.png,0.43,1.2,39,0.25,,,,,,,,,,,,,0,35,35,38,1,,,,,,,,,,,,,,,,,,,,,,,,,,,,
,,,,,V2_013,19,Female,2024-03-01_15h36.57.653,jersey_experiment_5_v2,2023.2.2,Win32,84.74576271,,,,,,,,,,,,,,,,781.5115,783.3585,783.3586,784.8529,return,0.4199,,23.95833333,,,,,,FBP-RB-18.png,0.35,1.2,36,0.25,,,,,,,,,,,,,0,36,36,35,1,,,,,,,,,,,,,,,,,,,,,,,,,,,,
,,,,,V2_013,19,Female,2024-03-01_15h36.57.653,jersey_experiment_5_v2,2023.2.2,Win32,84.74576271,,,,,,,,,,,,,,,,784.853,786.7116,786.7117,788.4881,return,1.0033,,85.41666667,,,,,,FBP-YG-81.png,0.45,1.2,55,0.25,,,,,,,,,,,,,0,37,37,54,1,,,,,,,,,,,,,,,,,,,,,,,,,,,,
,,,,,V2_013,19,Female,2024-03-01_15h36.57.653,jersey_experiment_5_v2,2023.2.2,Win32,84.74576271,,,,,,,,,,,,,,,,788.4883,790.5824,790.5824,791.5588,return,0.3569,,62.23958333,,,,,,FBP-PT-18.png,0.4,1.2,8,0.5,,,,,,,,,,,,,0,38,38,7,1,,,,,,,,,,,,,,,,,,,,,,,,,,,,
,,,,,V2_013,19,Female,2024-03-01_15h36.57.653,jersey_experiment_5_v2,2023.2.2,Win32,84.74576271,,,,,,,,,,,,,,,,791.559,793.6532,793.6532,794.9589,return,0.4704,,25,,,,,,FBP-PT-19.png,0.35,1.2,11,0.5,,,,,,,,,,,,,0,39,39,10,1,,,,,,,,,,,,,,,,,,,,,,,,,,,,
,,,,,V2_013,19,Female,2024-03-01_15h36.57.653,jersey_experiment_5_v2,2023.2.2,Win32,84.74576271,,,,,,,,,,,,,,,,794.9592,796.8063,796.8063,798.0532,return,0.3725,,94.01041667,,,,,,FBP-RB-18.png,0.45,1.2,40,0.25,,,,,,,,,,,,,0,40,40,39,1,,,,,,,,,,,,,,,,,,,,,,,,,,,,
,,,,,V2_013,19,Female,2024-03-01_15h36.57.653,jersey_experiment_5_v2,2023.2.2,Win32,84.74576271,,,,,,,,,,,,,,,,798.0534,799.9003,799.9003,801.1121,return,0.3318,,97.91666667,,,,,,FBP-YG-91.png,0.45,1.2,60,0.25,,,,,,,,,,,,,0,41,41,59,1,,,,,,,,,,,,,,,,,,,,,,,,,,,,
,,,,,V2_013,19,Female,2024-03-01_15h36.57.653,jersey_experiment_5_v2,2023.2.2,Win32,84.74576271,,,,,,,,,,,,,,,,801.1123,803.2063,803.2064,804.4064,return,0.4416,,99.73958333,,,,,,FBP-PT-19.png,0.45,1.2,15,0.5,,,,,,,,,,,,,0,42,42,14,1,,,,,,,,,,,,,,,,,,,,,,,,,,,,
,,,,,V2_013,19,Female,2024-03-01_15h36.57.653,jersey_experiment_5_v2,2023.2.2,Win32,84.74576271,,,,,,,,,,,,,,,,804.4067,806.2535,806.2535,808.2653,return,0.3445,,11.84895833,,,,,,FBP-YG-81.png,0.35,1.2,51,0.25,,,,,,,,,,,,,0,43,43,50,1,,,,,,,,,,,,,,,,,,,,,,,,,,,,
,,,,,V2_013,19,Female,2024-03-01_15h36.57.653,jersey_experiment_5_v2,2023.2.2,Win32,84.74576271,,,,,,,,,,,,,,,,808.2656,810.1243,810.1243,811.1595,return,0.3223,,25.52083333,,,,,,FBP-YG-71.png,0.37,1.2,47,0.25,,,,,,,,,,,,,0,44,44,46,1,,,,,,,,,,,,,,,,,,,,,,,,,,,,
,,,,,V2_013,19,Female,2024-03-01_15h36.57.653,jersey_experiment_5_v2,2023.2.2,Win32,84.74576271,,,,,,,,,,,,,,,,811.1597,813.0066,813.0066,814.2537,return,0.246,,34.375,,,,,,FBP-YG-71.png,0.35,1.2,46,0.25,,,,,,,,,,,,,0,45,45,45,1,,,,,,,,,,,,,,,,,,,,,,,,,,,,
,,,,,V2_013,19,Female,2024-03-01_15h36.57.653,jersey_experiment_5_v2,2023.2.2,Win32,84.74576271,,,,,,,,,,,,,,,,814.2539,816.1011,816.1011,817.1833,return,0.3189,,62.109375,,,,,,FBP-RB-19.png,0.4,1.2,43,0.25,,,,,,,,,,,,,0,46,46,42,1,,,,,,,,,,,,,,,,,,,,,,,,,,,,
,,,,,V2_013,19,Female,2024-03-01_15h36.57.653,jersey_experiment_5_v2,2023.2.2,Win32,84.74576271,,,,,,,,,,,,,,,,817.1834,819.0305,819.0305,819.9951,return,0.2608,,49.609375,,,,,,FBP-RB-17.png,0.37,1.2,32,0.25,,,,,,,,,,,,,0,47,47,31,1,,,,,,,,,,,,,,,,,,,,,,,,,,,,
,,,,,V2_013,19,Female,2024-03-01_15h36.57.653,jersey_experiment_5_v2,2023.2.2,Win32,84.74576271,,,,,,,,,,,,,,,,819.9953,821.8424,821.8425,822.948,return,0.3498,,74.609375,,,,,,FBP-YG-91.png,0.4,1.2,58,0.25,,,,,,,,,,,,,0,48,48,57,1,,,,,,,,,,,,,,,,,,,,,,,,,,,,
,,,,,V2_013,19,Female,2024-03-01_15h36.57.653,jersey_experiment_5_v2,2023.2.2,Win32,84.74576271,,,,,,,,,,,,,,,,822.9483,824.8069,824.8069,826.0424,return,0.3317,,24.47916667,,,,,,FBP-YG-91.png,0.35,1.2,56,0.25,,,,,,,,,,,,,0,49,49,55,1,,,,,,,,,,,,,,,,,,,,,,,,,,,,
,,,,,V2_013,19,Female,2024-03-01_15h36.57.653,jersey_experiment_5_v2,2023.2.2,Win32,84.74576271,,,,,,,,,,,,,,,,826.0425,827.8896,827.8896,829.0542,return,0.3165,,86.06770833,,,,,,FBP-YG-81.png,0.43,1.2,54,0.25,,,,,,,,,,,,,0,50,50,53,1,,,,,,,,,,,,,,,,,,,,,,,,,,,,
,,,,,V2_013,19,Female,2024-03-01_15h36.57.653,jersey_experiment_5_v2,2023.2.2,Win32,84.74576271,,,,,,,,,,,,,,,,829.0544,831.1486,831.1487,832.078,return,0.3427,,75,,,,,,FBP-PT-19.png,0.4,1.2,13,0.5,,,,,,,,,,,,,0,51,51,12,1,,,,,,,,,,,,,,,,,,,,,,,,,,,,
,,,,,V2_013,19,Female,2024-03-01_15h36.57.653,jersey_experiment_5_v2,2023.2.2,Win32,84.74576271,,,,,,,,,,,,,,,,832.0781,833.925,833.925,834.6309,return,0.3116,,75,,,,,,FBP-RB-18.png,0.4,1.2,38,0.25,,,,,,,,,,,,,0,52,52,37,1,,,,,,,,,,,,,,,,,,,,,,,,,,,,
,,,,,V2_013,19,Female,2024-03-01_15h36.57.653,jersey_experiment_5_v2,2023.2.2,Win32,84.74576271,,,,,,,,,,,,,,,,834.6311,836.4781,836.4782,837.9016,return,0.4563,,62.5,,,,,,FBP-YG-91.png,0.37,1.2,57,0.25,,,,,,,,,,,,,0,53,53,56,1,,,,,,,,,,,,,,,,,,,,,,,,,,,,
,,,,,V2_013,19,Female,2024-03-01_15h36.57.653,jersey_experiment_5_v2,2023.2.2,Win32,84.74576271,,,,,,,,,,,,,,,,837.902,839.7489,839.749,840.7723,return,0.4426,,75.91145833,,,,,,FBP-OG-19.png,0.43,1.2,29,0.25,,,,,,,,,,,,,0,54,54,28,1,,,,,,,,,,,,,,,,,,,,,,,,,,,,
,,,,,V2_013,19,Female,2024-03-01_15h36.57.653,jersey_experiment_5_v2,2023.2.2,Win32,84.74576271,,,,,,,,,,,,,,,,840.7724,842.8666,842.8667,843.9136,return,0.3442,,37.890625,,,,,,FBP-PT-18.png,0.35,1.2,6,0.5,,,,,,,,,,,,,0,55,55,5,1,,,,,,,,,,,,,,,,,,,,,,,,,,,,
,,,,,V2_013,19,Female,2024-03-01_15h36.57.653,jersey_experiment_5_v2,2023.2.2,Win32,84.74576271,,,,,,,,,,,,,,,,843.9138,845.7607,845.7607,848.3961,return,0.2699,,85.28645833,,,,,,FBP-OG-18.png,0.43,1.2,24,0.25,,,,,,,,,,,,,0,56,56,23,1,,,,,,,,,,,,,,,,,,,,,,,,,,,,
,,,,,V2_013,19,Female,2024-03-01_15h36.57.653,jersey_experiment_5_v2,2023.2.2,Win32,84.74576271,,,,,,,,,,,,,,,,848.3962,850.4904,850.4904,851.3021,return,0.2764,,88.54166667,,,,,,FBP-PT-18.png,0.43,1.2,9,0.5,,,,,,,,,,,,,0,57,57,8,1,,,,,,,,,,,,,,,,,,,,,,,,,,,,
,,,,,V2_013,19,Female,2024-03-01_15h36.57.653,jersey_experiment_5_v2,2023.2.2,Win32,84.74576271,,,,,,,,,,,,,,,,851.3022,853.1494,853.1494,854.9375,return,0.3093,,35.15625,,,,,,FBP-YG-81.png,0.37,1.2,52,0.25,,,,,,,,,,,,,0,58,58,51,1,,,,,,,,,,,,,,,,,,,,,,,,,,,,
,,,,,V2_013,19,Female,2024-03-01_15h36.57.653,jersey_experiment_5_v2,2023.2.2,Win32,84.74576271,,,,,,,,,,,,,,,,854.9377,856.7848,856.7848,857.7847,return,0.2501,,75.13020833,,,,,,FBP-YG-71.png,0.4,1.2,48,0.25,,,,,,,,,,,,,0,59,59,47,1,,,,,,,,,,,,,,,,,,,,,,,,,,,,
,,,,,V2_013,19,Female,2024-03-01_15h36.57.653,jersey_experiment_5_v2,2023.2.2,Win32,84.74576271,,,,,,,,,,,,,,,,857.7868,859.6319,859.6319,860.1967,return,0.2412,,75.13020833,,,,,,FBP-YG-18.png,0.4,1.2,53,0.25,,,,,,,,,,,,,,,,,,0,0,0,52,1,,,,,,,,,,,,,,,,,,,,,,,
,,,,,V2_013,19,Female,2024-03-01_15h36.57.653,jersey_experiment_5_v2,2023.2.2,Win32,84.74576271,,,,,,,,,,,,,,,,860.1969,862.0555,862.0556,863.1025,return,0.2922,,85.41666667,,,,,,FBP-OG-81.png,0.45,1.2,25,0.25,,,,,,,,,,,,,,,,,,0,1,1,24,1,,,,,,,,,,,,,,,,,,,,,,,
,,,,,V2_013,19,Female,2024-03-01_15h36.57.653,jersey_experiment_5_v2,2023.2.2,Win32,84.74576271,,,,,,,,,,,,,,,,863.1028,865.1968,865.1968,865.9616,return,0.3081,,96.61458333,,,,,,FBP-PT-91.png,0.45,1.2,15,0.5,,,,,,,,,,,,,,,,,,0,2,2,14,1,,,,,,,,,,,,,,,,,,,,,,,
,,,,,V2_013,19,Female,2024-03-01_15h36.57.653,jersey_experiment_5_v2,2023.2.2,Win32,84.74576271,,,,,,,,,,,,,,,,865.9618,867.8088,867.8088,869.0792,return,0.3347,,24.86979167,,,,,,FBP-YG-18.png,0.35,1.2,51,0.25,,,,,,,,,,,,,,,,,,0,3,3,50,1,,,,,,,,,,,,,,,,,,,,,,,
,,,,,V2_013,19,Female,2024-03-01_15h36.57.653,jersey_experiment_5_v2,2023.2.2,Win32,84.74576271,,,,,,,,,,,,,,,,869.0795,870.9265,870.9265,871.8323,return,0.3574,,25.13020833,,,,,,FBP-YG-17.png,0.35,1.2,46,0.25,,,,,,,,,,,,,,,,,,0,4,4,45,1,,,,,,,,,,,,,,,,,,,,,,,
,,,,,V2_013,19,Female,2024-03-01_15h36.57.653,jersey_experiment_5_v2,2023.2.2,Win32,84.74576271,,,,,,,,,,,,,,,,871.8325,873.6796,873.6797,874.7265,return,0.3122,,63.54166667,,,,,,FBP-RB-81.png,0.4,1.2,38,0.25,,,,,,,,,,,,,,,,,,0,5,5,37,1,,,,,,,,,,,,,,,,,,,,,,,
,,,,,V2_013,19,Female,2024-03-01_15h36.57.653,jersey_experiment_5_v2,2023.2.2,Win32,84.74576271,,,,,,,,,,,,,,,,874.7266,876.8208,876.8209,878.0207,return,0.2198,,24.609375,,,,,,FBP-PT-81.png,0.35,1.2,6,0.5,,,,,,,,,,,,,,,,,,0,6,6,5,1,,,,,,,,,,,,,,,,,,,,,,,
,,,,,V2_013,19,Female,2024-03-01_15h36.57.653,jersey_experiment_5_v2,2023.2.2,Win32,84.74576271,,,,,,,,,,,,,,,,878.021,879.8797,879.8797,881.5268,return,0.2649,,49.47916667,,,,,,FBP-RB-71.png,0.37,1.2,32,0.25,,,,,,,,,,,,,,,,,,0,7,7,31,1,,,,,,,,,,,,,,,,,,,,,,,
,,,,,V2_013,19,Female,2024-03-01_15h36.57.653,jersey_experiment_5_v2,2023.2.2,Win32,84.74576271,,,,,,,,,,,,,,,,881.527,883.374,883.374,884.374,return,0.2422,,84.11458333,,,,,,FBP-OG-91.png,0.45,1.2,30,0.25,,,,,,,,,,,,,,,,,,0,8,8,29,1,,,,,,,,,,,,,,,,,,,,,,,
,,,,,V2_013,19,Female,2024-03-01_15h36.57.653,jersey_experiment_5_v2,2023.2.2,Win32,84.74576271,,,,,,,,,,,,,,,,884.374,886.4682,886.4682,887.0683,return,0.1889,,93.88020833,,,,,,FBP-PT-81.png,0.45,1.2,10,0.5,,,,,,,,,,,,,,,,,,0,9,9,9,1,,,,,,,,,,,,,,,,,,,,,,,
,,,,,V2_013,19,Female,2024-03-01_15h36.57.653,jersey_experiment_5_v2,2023.2.2,Win32,84.74576271,,,,,,,,,,,,,,,,887.0684,888.9153,888.9153,889.7976,return,0.2414,,97.65625,,,,,,FBP-YG-17.png,0.43,1.2,49,0.25,,,,,,,,,,,,,,,,,,0,10,10,48,1,,,,,,,,,,,,,,,,,,,,,,,
,,,,,V2_013,19,Female,2024-03-01_15h36.57.653,jersey_experiment_5_v2,2023.2.2,Win32,84.74576271,,,,,,,,,,,,,,,,889.7978,891.6566,891.6567,892.327,return,0.3114,,97.65625,,,,,,FBP-YG-19.png,0.43,1.2,59,0.25,,,,,,,,,,,,,,,,,,0,11,11,58,1,,,,,,,,,,,,,,,,,,,,,,,
,,,,,V2_013,19,Female,2024-03-01_15h36.57.653,jersey_experiment_5_v2,2023.2.2,Win32,84.74576271,,,,,,,,,,,,,,,,892.3272,894.1746,894.1746,895.3509,return,0.5353,,48.828125,,,,,,FBP-OG-91.png,0.37,1.2,27,0.25,,,,,,,,,,,,,,,,,,0,12,12,26,1,,,,,,,,,,,,,,,,,,,,,,,
,,,,,V2_013,19,Female,2024-03-01_15h36.57.653,jersey_experiment_5_v2,2023.2.2,Win32,84.74576271,,,,,,,,,,,,,,,,895.351,897.1979,897.1979,898.7274,return,0.3686,,73.56770833,,,,,,FBP-OG-71.png,0.4,1.2,18,0.25,,,,,,,,,,,,,,,,,,0,13,13,17,1,,,,,,,,,,,,,,,,,,,,,,,
,,,,,V2_013,19,Female,2024-03-01_15h36.57.653,jersey_experiment_5_v2,2023.2.2,Win32,84.74576271,,,,,,,,,,,,,,,,898.7276,900.8334,900.8335,903.4452,return,0.3722,,49.86979167,,,,,,FBP-PT-71.png,0.35,1.2,1,0.5,,,,,,,,,,,,,,,,,,0,14,14,0,1,,,,,,,,,,,,,,,,,,,,,,,
,,,,,V2_013,19,Female,2024-03-01_15h36.57.653,jersey_experiment_5_v2,2023.2.2,Win32,84.74576271,,,,,,,,,,,,,,,,903.4454,905.2924,905.2924,906.7748,return,0.5707,,98.046875,,,,,,FBP-YG-18.png,0.45,1.2,55,0.25,,,,,,,,,,,,,,,,,,0,15,15,54,1,,,,,,,,,,,,,,,,,,,,,,,
,,,,,V2_013,19,Female,2024-03-01_15h36.57.653,jersey_experiment_5_v2,2023.2.2,Win32,84.74576271,,,,,,,,,,,,,,,,906.775,908.6221,908.6222,909.8925,return,0.312,,24.47916667,,,,,,FBP-RB-81.png,0.35,1.2,36,0.25,,,,,,,,,,,,,,,,,,0,16,16,35,1,,,,,,,,,,,,,,,,,,,,,,,
,,,,,V2_013,19,Female,2024-03-01_15h36.57.653,jersey_experiment_5_v2,2023.2.2,Win32,84.74576271,,,,,,,,,,,,,,,,909.8927,911.9987,911.9988,913.6456,return,0.2822,,36.84895833,,,,,,FBP-PT-91.png,0.35,1.2,11,0.5,,,,,,,,,,,,,,,,,,0,17,17,10,1,,,,,,,,,,,,,,,,,,,,,,,
,,,,,V2_013,19,Female,2024-03-01_15h36.57.653,jersey_experiment_5_v2,2023.2.2,Win32,84.74576271,,,,,,,,,,,,,,,,913.6458,915.4929,915.493,916.7515,return,0.4469,,88.28125,,,,,,FBP-RB-71.png,0.45,1.2,35,0.25,,,,,,,,,,,,,,,,,,0,18,18,34,1,,,,,,,,,,,,,,,,,,,,,,,
,,,,,V2_013,19,Female,2024-03-01_15h36.57.653,jersey_experiment_5_v2,2023.2.2,Win32,84.74576271,,,,,,,,,,,,,,,,916.7517,918.8459,918.8459,920.8222,return,0.8163,,64.0625,,,,,,FBP-PT-71.png,0.37,1.2,2,0.5,,,,,,,,,,,,,,,,,,0,19,19,1,1,,,,,,,,,,,,,,,,,,,,,,,
,,,,,V2_013,19,Female,2024-03-01_15h36.57.653,jersey_experiment_5_v2,2023.2.2,Win32,84.74576271,,,,,,,,,,,,,,,,920.8225,922.6696,922.6697,923.7401,return,0.4003,,93.09895833,,,,,,FBP-YG-19.png,0.45,1.2,60,0.25,,,,,,,,,,,,,,,,,,0,20,20,59,1,,,,,,,,,,,,,,,,,,,,,,,
,,,,,V2_013,19,Female,2024-03-01_15h36.57.653,jersey_experiment_5_v2,2023.2.2,Win32,84.74576271,,,,,,,,,,,,,,,,923.7403,925.5873,925.5873,928.1992,return,0.1912,,74.86979167,,,,,,FBP-YG-17.png,0.37,1.2,47,0.25,,,,,,,,,,,,,,,,,,0,21,21,46,1,,,,,,,,,,,,,,,,,,,,,,,
,,,,,V2_013,19,Female,2024-03-01_15h36.57.653,jersey_experiment_5_v2,2023.2.2,Win32,84.74576271,,,,,,,,,,,,,,,,928.1994,930.2933,930.2933,931.8345,return,0.2139,,85.67708333,,,,,,FBP-PT-81.png,0.43,1.2,9,0.5,,,,,,,,,,,,,,,,,,0,22,22,8,1,,,,,,,,,,,,,,,,,,,,,,,
,,,,,V2_013,19,Female,2024-03-01_15h36.57.653,jersey_experiment_5_v2,2023.2.2,Win32,84.74576271,,,,,,,,,,,,,,,,931.8347,933.6934,933.6934,934.5639,return,0.244,,82.94270833,,,,,,FBP-RB-91.png,0.4,1.2,43,0.25,,,,,,,,,,,,,,,,,,0,23,23,42,1,,,,,,,,,,,,,,,,,,,,,,,
,,,,,V2_013,19,Female,2024-03-01_15h36.57.653,jersey_experiment_5_v2,2023.2.2,Win32,84.74576271,,,,,,,,,,,,,,,,934.5641,936.4113,936.4114,937.7995,return,0.3933,,25.13020833,,,,,,FBP-RB-91.png,0.35,1.2,41,0.25,,,,,,,,,,,,,,,,,,0,24,24,40,1,,,,,,,,,,,,,,,,,,,,,,,
,,,,,V2_013,19,Female,2024-03-01_15h36.57.653,jersey_experiment_5_v2,2023.2.2,Win32,84.74576271,,,,,,,,,,,,,,,,937.7997,939.8938,939.8938,941.3525,return,0.7219,,74.47916667,,,,,,FBP-PT-91.png,0.43,1.2,14,0.5,,,,,,,,,,,,,,,,,,0,25,25,13,1,,,,,,,,,,,,,,,,,,,,,,,
,,,,,V2_013,19,Female,2024-03-01_15h36.57.653,jersey_experiment_5_v2,2023.2.2,Win32,84.74576271,,,,,,,,,,,,,,,,941.3527,943.1997,943.1997,944.2703,return,0.2488,,62.23958333,,,,,,FBP-RB-91.png,0.37,1.2,42,0.25,,,,,,,,,,,,,,,,,,0,26,26,41,1,,,,,,,,,,,,,,,,,,,,,,,
,,,,,V2_013,19,Female,2024-03-01_15h36.57.653,jersey_experiment_5_v2,2023.2.2,Win32,84.74576271,,,,,,,,,,,,,,,,944.2705,946.1174,946.1175,947.1175,return,0.3438,,90.36458333,,,,,,FBP-RB-81.png,0.45,1.2,40,0.25,,,,,,,,,,,,,,,,,,0,27,27,39,1,,,,,,,,,,,,,,,,,,,,,,,
,,,,,V2_013,19,Female,2024-03-01_15h36.57.653,jersey_experiment_5_v2,2023.2.2,Win32,84.74576271,,,,,,,,,,,,,,,,947.1178,949.2117,949.2117,950.5058,return,0.885,,75.52083333,,,,,,FBP-PT-81.png,0.4,1.2,8,0.5,,,,,,,,,,,,,,,,,,0,28,28,7,1,,,,,,,,,,,,,,,,,,,,,,,
,,,,,V2_013,19,Female,2024-03-01_15h36.57.653,jersey_experiment_5_v2,2023.2.2,Win32,84.74576271,,,,,,,,,,,,,,,,950.506,952.353,952.353,953.0822,return,0.2465,,91.27604167,,,,,,FBP-YG-17.png,0.45,1.2,50,0.25,,,,,,,,,,,,,,,,,,0,29,29,49,1,,,,,,,,,,,,,,,,,,,,,,,
,,,,,V2_013,19,Female,2024-03-01_15h36.57.653,jersey_experiment_5_v2,2023.2.2,Win32,84.74576271,,,,,,,,,,,,,,,,953.0824,954.9297,954.9297,956.2824,return,0.4965,,49.86979167,,,,,,FBP-OG-81.png,0.4,1.2,23,0.25,,,,,,,,,,,,,,,,,,0,30,30,22,1,,,,,,,,,,,,,,,,,,,,,,,
,,,,,V2_013,19,Female,2024-03-01_15h36.57.653,jersey_experiment_5_v2,2023.2.2,Win32,84.74576271,,,,,,,,,,,,,,,,956.2826,958.1298,958.1298,958.9414,return,0.2825,,61.06770833,,,,,,FBP-YG-19.png,0.4,1.2,58,0.25,,,,,,,,,,,,,,,,,,0,31,31,57,1,,,,,,,,,,,,,,,,,,,,,,,
,,,,,V2_013,19,Female,2024-03-01_15h36.57.653,jersey_experiment_5_v2,2023.2.2,Win32,84.74576271,,,,,,,,,,,,,,,,958.9416,960.7887,960.7888,961.8708,return,0.236,,50,,,,,,FBP-YG-18.png,0.37,1.2,52,0.25,,,,,,,,,,,,,,,,,,0,32,32,51,1,,,,,,,,,,,,,,,,,,,,,,,
,,,,,V2_013,19,Female,2024-03-01_15h36.57.653,jersey_experiment_5_v2,2023.2.2,Win32,84.74576271,,,,,,,,,,,,,,,,961.871,963.7182,963.7183,964.8122,return,0.3186,,75.26041667,,,,,,FBP-OG-71.png,0.43,1.2,19,0.25,,,,,,,,,,,,,,,,,,0,33,33,18,1,,,,,,,,,,,,,,,,,,,,,,,
,,,,,V2_013,19,Female,2024-03-01_15h36.57.653,jersey_experiment_5_v2,2023.2.2,Win32,84.74576271,,,,,,,,,,,,,,,,964.8125,966.6595,966.6595,968.2006,return,0.285,,49.73958333,,,,,,FBP-YG-19.png,0.37,1.2,57,0.25,,,,,,,,,,,,,,,,,,0,34,34,56,1,,,,,,,,,,,,,,,,,,,,,,,
,,,,,V2_013,19,Female,2024-03-01_15h36.57.653,jersey_experiment_5_v2,2023.2.2,Win32,84.74576271,,,,,,,,,,,,,,,,968.2008,970.2948,970.2948,973.8831,return,0.3073,,63.28125,,,,,,FBP-PT-71.png,0.4,1.2,3,0.5,,,,,,,,,,,,,,,,,,0,35,35,2,1,,,,,,,,,,,,,,,,,,,,,,,
,,,,,V2_013,19,Female,2024-03-01_15h36.57.653,jersey_experiment_5_v2,2023.2.2,Win32,84.74576271,,,,,,,,,,,,,,,,973.8833,975.9891,975.9892,978.8715,return,0.2276,,75.52083333,,,,,,FBP-PT-71.png,0.45,1.2,5,0.5,,,,,,,,,,,,,,,,,,0,36,36,4,1,,,,,,,,,,,,,,,,,,,,,,,
,,,,,V2_013,19,Female,2024-03-01_15h36.57.653,jersey_experiment_5_v2,2023.2.2,Win32,84.74576271,,,,,,,,,,,,,,,,978.8718,980.7189,980.7189,981.5423,return,0.2875,,75.65104167,,,,,,FBP-YG-18.png,0.43,1.2,54,0.25,,,,,,,,,,,,,,,,,,0,37,37,53,1,,,,,,,,,,,,,,,,,,,,,,,
,,,,,V2_013,19,Female,2024-03-01_15h36.57.653,jersey_experiment_5_v2,2023.2.2,Win32,84.74576271,,,,,,,,,,,,,,,,981.5425,983.3894,983.3895,984.2364,return,0.3637,,85.546875,,,,,,FBP-RB-91.png,0.45,1.2,45,0.25,,,,,,,,,,,,,,,,,,0,38,38,44,1,,,,,,,,,,,,,,,,,,,,,,,
,,,,,V2_013,19,Female,2024-03-01_15h36.57.653,jersey_experiment_5_v2,2023.2.2,Win32,84.74576271,,,,,,,,,,,,,,,,984.2366,986.3307,986.3307,988.2129,return,0.3713,,36.06770833,,,,,,FBP-PT-91.png,0.37,1.2,12,0.5,,,,,,,,,,,,,,,,,,0,39,39,11,1,,,,,,,,,,,,,,,,,,,,,,,
,,,,,V2_013,19,Female,2024-03-01_15h36.57.653,jersey_experiment_5_v2,2023.2.2,Win32,84.74576271,,,,,,,,,,,,,,,,988.2131,990.0603,990.0603,991.8015,return,0.3545,,25.13020833,,,,,,FBP-OG-81.png,0.37,1.2,22,0.25,,,,,,,,,,,,,,,,,,0,40,40,21,1,,,,,,,,,,,,,,,,,,,,,,,
,,,,,V2_013,19,Female,2024-03-01_15h36.57.653,jersey_experiment_5_v2,2023.2.2,Win32,84.74576271,,,,,,,,,,,,,,,,991.8018,993.6486,993.6486,996.0369,return,1.2195,,83.33333333,,,,,,FBP-OG-81.png,0.43,1.2,24,0.25,,,,,,,,,,,,,,,,,,0,41,41,23,1,,,,,,,,,,,,,,,,,,,,,,,
,,,,,V2_013,19,Female,2024-03-01_15h36.57.653,jersey_experiment_5_v2,2023.2.2,Win32,84.74576271,,,,,,,,,,,,,,,,996.0371,997.8839,997.8839,1001.3429,return,2.5039,,25,,,,,,FBP-RB-81.png,0.37,1.2,37,0.25,,,,,,,,,,,,,,,,,,0,42,42,36,1,,,,,,,,,,,,,,,,,,,,,,,
,,,,,V2_013,19,Female,2024-03-01_15h36.57.653,jersey_experiment_5_v2,2023.2.2,Win32,84.74576271,,,,,,,,,,,,,,,,1001.3474,1003.1904,1003.1904,1004.602,return,0.5658,,75.78125,,,,,,FBP-RB-81.png,0.43,1.2,39,0.25,,,,,,,,,,,,,,,,,,0,43,43,38,1,,,,,,,,,,,,,,,,,,,,,,,
,,,,,V2_013,19,Female,2024-03-01_15h36.57.653,jersey_experiment_5_v2,2023.2.2,Win32,84.74576271,,,,,,,,,,,,,,,,1004.6022,1006.4607,1006.4607,1007.5668,return,0.4945,,75.78125,,,,,,FBP-OG-71.png,0.45,1.2,20,0.25,,,,,,,,,,,,,,,,,,0,44,44,19,1,,,,,,,,,,,,,,,,,,,,,,,
,,,,,V2_013,19,Female,2024-03-01_15h36.57.653,jersey_experiment_5_v2,2023.2.2,Win32,84.74576271,,,,,,,,,,,,,,,,1007.5669,1009.4138,1009.4138,1010.5431,return,0.3865,,75.78125,,,,,,FBP-OG-91.png,0.43,1.2,29,0.25,,,,,,,,,,,,,,,,,,0,45,45,28,1,,,,,,,,,,,,,,,,,,,,,,,
,,,,,V2_013,19,Female,2024-03-01_15h36.57.653,jersey_experiment_5_v2,2023.2.2,Win32,84.74576271,,,,,,,,,,,,,,,,1010.5434,1012.3906,1012.3906,1013.5786,return,0.4118,,24.21875,,,,,,FBP-YG-19.png,0.35,1.2,56,0.25,,,,,,,,,,,,,,,,,,0,46,46,55,1,,,,,,,,,,,,,,,,,,,,,,,
,,,,,V2_013,19,Female,2024-03-01_15h36.57.653,jersey_experiment_5_v2,2023.2.2,Win32,84.74576271,,,,,,,,,,,,,,,,1013.5788,1015.6847,1015.6847,1018.2025,return,0.2728,,37.5,,,,,,FBP-PT-81.png,0.37,1.2,7,0.5,,,,,,,,,,,,,,,,,,0,47,47,6,1,,,,,,,,,,,,,,,,,,,,,,,
,,,,,V2_013,19,Female,2024-03-01_15h36.57.653,jersey_experiment_5_v2,2023.2.2,Win32,84.74576271,,,,,,,,,,,,,,,,1018.2026,1020.0495,1020.0496,1022.7559,return,0.1742,,24.609375,,,,,,FBP-OG-71.png,0.35,1.2,16,0.25,,,,,,,,,,,,,,,,,,0,48,48,15,1,,,,,,,,,,,,,,,,,,,,,,,
,,,,,V2_013,19,Female,2024-03-01_15h36.57.653,jersey_experiment_5_v2,2023.2.2,Win32,84.74576271,,,,,,,,,,,,,,,,1022.756,1024.6028,1024.6029,1025.6262,return,0.3087,,13.02083333,,,,,,FBP-OG-91.png,0.35,1.2,26,0.25,,,,,,,,,,,,,,,,,,0,49,49,25,1,,,,,,,,,,,,,,,,,,,,,,,
,,,,,V2_013,19,Female,2024-03-01_15h36.57.653,jersey_experiment_5_v2,2023.2.2,Win32,84.74576271,,,,,,,,,,,,,,,,1025.6264,1027.485,1027.485,1028.9204,return,0.2966,,75,,,,,,FBP-RB-71.png,0.4,1.2,33,0.25,,,,,,,,,,,,,,,,,,0,50,50,32,1,,,,,,,,,,,,,,,,,,,,,,,
,,,,,V2_013,19,Female,2024-03-01_15h36.57.653,jersey_experiment_5_v2,2023.2.2,Win32,84.74576271,,,,,,,,,,,,,,,,1028.9206,1030.7677,1030.7677,1031.45,return,0.2027,,87.5,,,,,,FBP-RB-91.png,0.43,1.2,44,0.25,,,,,,,,,,,,,,,,,,0,51,51,43,1,,,,,,,,,,,,,,,,,,,,,,,
,,,,,V2_013,19,Female,2024-03-01_15h36.57.653,jersey_experiment_5_v2,2023.2.2,Win32,84.74576271,,,,,,,,,,,,,,,,1031.4502,1033.2972,1033.2972,1034.9323,return,0.2881,,62.109375,,,,,,FBP-OG-91.png,0.4,1.2,28,0.25,,,,,,,,,,,,,,,,,,0,52,52,27,1,,,,,,,,,,,,,,,,,,,,,,,
,,,,,V2_013,19,Female,2024-03-01_15h36.57.653,jersey_experiment_5_v2,2023.2.2,Win32,84.74576271,,,,,,,,,,,,,,,,1034.9326,1037.0267,1037.0268,1037.9559,return,0.2911,,83.72395833,,,,,,FBP-PT-71.png,0.43,1.2,4,0.5,,,,,,,,,,,,,,,,,,0,53,53,3,1,,,,,,,,,,,,,,,,,,,,,,,
,,,,,V2_013,19,Female,2024-03-01_15h36.57.653,jersey_experiment_5_v2,2023.2.2,Win32,84.74576271,,,,,,,,,,,,,,,,1037.9561,1039.8034,1039.8035,1041.0033,return,0.3668,,37.5,,,,,,FBP-OG-81.png,0.35,1.2,21,0.25,,,,,,,,,,,,,,,,,,0,54,54,20,1,,,,,,,,,,,,,,,,,,,,,,,
,,,,,V2_013,19,Female,2024-03-01_15h36.57.653,jersey_experiment_5_v2,2023.2.2,Win32,84.74576271,,,,,,,,,,,,,,,,1041.0036,1043.0976,1043.0976,1044.1209,return,0.2497,,62.63020833,,,,,,FBP-PT-91.png,0.4,1.2,13,0.5,,,,,,,,,,,,,,,,,,0,55,55,12,1,,,,,,,,,,,,,,,,,,,,,,,
,,,,,V2_013,19,Female,2024-03-01_15h36.57.653,jersey_experiment_5_v2,2023.2.2,Win32,84.74576271,,,,,,,,,,,,,,,,1044.1212,1045.9683,1045.9683,1047.227,return,0.4354,,75.390625,,,,,,FBP-RB-71.png,0.43,1.2,34,0.25,,,,,,,,,,,,,,,,,,0,56,56,33,1,,,,,,,,,,,,,,,,,,,,,,,
,,,,,V2_013,19,Female,2024-03-01_15h36.57.653,jersey_experiment_5_v2,2023.2.2,Win32,84.74576271,,,,,,,,,,,,,,,,1047.2271,1049.0743,1049.0744,1050.2153,return,0.1464,,14.58333333,,,,,,FBP-OG-71.png,0.37,1.2,17,0.25,,,,,,,,,,,,,,,,,,0,57,57,16,1,,,,,,,,,,,,,,,,,,,,,,,
,,,,,V2_013,19,Female,2024-03-01_15h36.57.653,jersey_experiment_5_v2,2023.2.2,Win32,84.74576271,,,,,,,,,,,,,,,,1050.2155,1052.0742,1052.0743,1052.4626,return,0.1078,,14.58333333,,,,,,FBP-YG-17.png,0.4,1.2,48,0.25,,,,,,,,,,,,,,,,,,0,58,58,47,1,,,,,,,,,,,,,,,,,,,,,,,
,,,,,V2_013,19,Female,2024-03-01_15h36.57.653,jersey_experiment_5_v2,2023.2.2,Win32,84.74576271,,,,,,,,,,,,,,,,1052.4628,1054.3215,1054.3215,1055.1921,return,0.4742,,14.58333333,,,,,,FBP-RB-71.png,0.35,1.2,31,0.25,,,,,,,,,,,,,,,,,,0,59,59,30,1,,,,,,,,,,,,,,,,,,,,,,,
,,,,,V2_013,19,Female,2024-03-01_15h36.57.653,jersey_experiment_5_v2,2023.2.2,Win32,84.74576271,,,,,,,,,,,,,,,,,,,,,,,,,,,,,,,,,,,,,,,,,,,,,,,,,,,,,,,,1055.1925,1059.5455,return,4.3446,,,,,,,,,,,,,,,,,,,
,,,,,V2_013,19,Female,2024-03-01_15h36.57.653,jersey_experiment_5_v2,2023.2.2,Win32,84.74576271,,,,,,,,,,,,,,,,,,,,,,,,,,,,,,,,,,,,,,,,,,,,,,,,,,,,,,,,,,,,,1059.5456,1064.6632,1,3.23,return,1.8748,,,,,,,,,,,,
,,,,,V2_013,19,Female,2024-03-01_15h36.57.653,jersey_experiment_5_v2,2023.2.2,Win32,84.74576271,,,,,,,,,,,,,,,,,,,,,,,,,,,,,,,,,,,,,,,,,,,,,,,,,,,,,,,,,,,,,,,,,,,,1064.6632,1093.716,"I would get a ""slender"" after several husky",right,19.883,,,,,,
,,,,,V2_013,19,Female,2024-03-01_15h36.57.653,jersey_experiment_5_v2,2023.2.2,Win32,84.74576271,,,,,,,,,,,,,,,,,,,,,,,,,,,,,,,,,,,,,,,,,,,,,,,,,,,,,,,,,,,,,,,,,,,,,,,,,,1093.7161,1095.9582,return,2.2362,