requirements.started,requirements.stopped,key_resp_3.keys,key_resp_3.rt,key_resp_3.duration,Subject ID,Age,Gender,date,expName,psychopyVersion,OS,frameRate,instructions1.started,instructions1.stopped,key_resp.keys,key_resp.rt,key_resp.duration,example.started,example.stopped,enter_2.keys,enter_2.rt,enter_2.duration,instructions2.started,instructions2.stopped,enter_3.keys,enter_3.rt,enter_3.duration,image.started,image.stopped,slider_2.started,slider_2.stopped,next.keys,next.rt,next.duration,slider.response,trial_block_1.thisRepN,trial_block_1.thisTrialN,trial_block_1.thisN,trial_block_1.thisIndex,trial_block_1.ran,Path,Width,Height,Index,Duration,trial_block_2.thisRepN,trial_block_2.thisTrialN,trial_block_2.thisN,trial_block_2.thisIndex,trial_block_2.ran,rest_break.started,rest_break.stopped,end_break.started,end_break.stopped,key_resp_5.keys,key_resp_5.rt,key_resp_5.duration,trial_block_3.thisRepN,trial_block_3.thisTrialN,trial_block_3.thisN,trial_block_3.thisIndex,trial_block_3.ran,trial_block_4.thisRepN,trial_block_4.thisTrialN,trial_block_4.thisN,trial_block_4.thisIndex,trial_block_4.ran,questions_intro.started,questions_intro.stopped,enter_12.keys,enter_12.rt,enter_12.duration,question2.started,question2.stopped,question_doingbest.response,question_doingbest.rt,enter_15.keys,enter_15.rt,enter_15.duration,pattern.started,pattern.stopped,pattern_2.text,enter_17.keys,enter_17.rt,enter_17.duration,thankyou.started,thankyou.stopped,enter_14.keys,enter_14.rt,enter_14.duration
1E-04,15.3116,return,15.2941,,V2_010,20,Female,2024-03-01_14h01.43.208,jersey_experiment_5_v2,2023.2.2,Win32,85.47008547,,,,,,,,,,,,,,,,,,,,,,,,,,,,,,,,,,,,,,,,,,,,,,,,,,,,,,,,,,,,,,,,,,,,,,,,,,,,,,
,,,,,V2_010,20,Female,2024-03-01_14h01.43.208,jersey_experiment_5_v2,2023.2.2,Win32,85.47008547,15.3116,29.5943,return,14.2637,,,,,,,,,,,,,,,,,,,,,,,,,,,,,,,,,,,,,,,,,,,,,,,,,,,,,,,,,,,,,,,,,,,,,,,,,,
,,,,,V2_010,20,Female,2024-03-01_14h01.43.208,jersey_experiment_5_v2,2023.2.2,Win32,85.47008547,,,,,,29.5944,35.752,return,6.1245,,,,,,,,,,,,,,,,,,,,,,,,,,,,,,,,,,,,,,,,,,,,,,,,,,,,,,,,,,,,,,,,,,,,,
,,,,,V2_010,20,Female,2024-03-01_14h01.43.208,jersey_experiment_5_v2,2023.2.2,Win32,85.47008547,,,,,,,,,,,35.7521,55.1953,return,19.4288,,,,,,,,,,,,,,,,,,,,,,,,,,,,,,,,,,,,,,,,,,,,,,,,,,,,,,,,,,,,,,,,
,,,,,V2_010,20,Female,2024-03-01_14h01.43.208,jersey_experiment_5_v2,2023.2.2,Win32,85.47008547,,,,,,,,,,,,,,,,55.2014,57.3054,57.3055,69.5485,return,7.78,,25,0,0,0,17,1,FBP-OG-17.png,0.4,1.2,18,0.5,,,,,,,,,,,,,,,,,,,,,,,,,,,,,,,,,,,,,,,,,,,,,
,,,,,V2_010,20,Female,2024-03-01_14h01.43.208,jersey_experiment_5_v2,2023.2.2,Win32,85.47008547,,,,,,,,,,,,,,,,69.5488,71.6426,71.6426,74.1066,return,1.2945,,74.73958333,0,1,1,45,1,FBP-YG-71.png,0.35,1.2,46,0.5,,,,,,,,,,,,,,,,,,,,,,,,,,,,,,,,,,,,,,,,,,,,,
,,,,,V2_010,20,Female,2024-03-01_14h01.43.208,jersey_experiment_5_v2,2023.2.2,Win32,85.47008547,,,,,,,,,,,,,,,,74.1067,76.2192,76.2192,78.4074,return,0.4888,,75.390625,0,2,2,47,1,FBP-YG-71.png,0.4,1.2,48,0.5,,,,,,,,,,,,,,,,,,,,,,,,,,,,,,,,,,,,,,,,,,,,,
,,,,,V2_010,20,Female,2024-03-01_14h01.43.208,jersey_experiment_5_v2,2023.2.2,Win32,85.47008547,,,,,,,,,,,,,,,,78.4076,80.5018,80.5019,82.2077,return,0.6248,,75.13020833,0,3,3,56,1,FBP-YG-91.png,0.37,1.2,57,0.5,,,,,,,,,,,,,,,,,,,,,,,,,,,,,,,,,,,,,,,,,,,,,
,,,,,V2_010,20,Female,2024-03-01_14h01.43.208,jersey_experiment_5_v2,2023.2.2,Win32,85.47008547,,,,,,,,,,,,,,,,82.2079,84.0597,84.0597,85.6784,return,0.412,,74.609375,0,4,4,8,1,FBP-PT-18.png,0.43,1.2,9,0.25,,,,,,,,,,,,,,,,,,,,,,,,,,,,,,,,,,,,,,,,,,,,,
,,,,,V2_010,20,Female,2024-03-01_14h01.43.208,jersey_experiment_5_v2,2023.2.2,Win32,85.47008547,,,,,,,,,,,,,,,,85.6785,87.7773,87.7773,90.0598,return,1.129,,25.65104167,0,5,5,25,1,FBP-OG-19.png,0.35,1.2,26,0.5,,,,,,,,,,,,,,,,,,,,,,,,,,,,,,,,,,,,,,,,,,,,,
,,,,,V2_010,20,Female,2024-03-01_14h01.43.208,jersey_experiment_5_v2,2023.2.2,Win32,85.47008547,,,,,,,,,,,,,,,,90.06,91.9186,91.9186,95.1292,return,1.2001,,24.86979167,0,6,6,1,1,FBP-PT-17.png,0.37,1.2,2,0.25,,,,,,,,,,,,,,,,,,,,,,,,,,,,,,,,,,,,,,,,,,,,,
,,,,,V2_010,20,Female,2024-03-01_14h01.43.208,jersey_experiment_5_v2,2023.2.2,Win32,85.47008547,,,,,,,,,,,,,,,,95.1294,97.2365,97.2365,100.4605,return,0.3191,,25.52083333,0,7,7,15,1,FBP-OG-17.png,0.35,1.2,16,0.5,,,,,,,,,,,,,,,,,,,,,,,,,,,,,,,,,,,,,,,,,,,,,
,,,,,V2_010,20,Female,2024-03-01_14h01.43.208,jersey_experiment_5_v2,2023.2.2,Win32,85.47008547,,,,,,,,,,,,,,,,100.4607,102.5778,102.5778,104.3064,return,0.4345,,25.13020833,0,8,8,27,1,FBP-OG-19.png,0.4,1.2,28,0.5,,,,,,,,,,,,,,,,,,,,,,,,,,,,,,,,,,,,,,,,,,,,,
,,,,,V2_010,20,Female,2024-03-01_14h01.43.208,jersey_experiment_5_v2,2023.2.2,Win32,85.47008547,,,,,,,,,,,,,,,,104.3065,106.4132,106.4132,108.4237,return,0.1989,,25.13020833,0,9,9,31,1,FBP-RB-17.png,0.37,1.2,32,0.5,,,,,,,,,,,,,,,,,,,,,,,,,,,,,,,,,,,,,,,,,,,,,
,,,,,V2_010,20,Female,2024-03-01_14h01.43.208,jersey_experiment_5_v2,2023.2.2,Win32,85.47008547,,,,,,,,,,,,,,,,108.4238,110.5317,110.5318,112.3064,return,0.3636,,75.13020833,0,10,10,24,1,FBP-OG-18.png,0.45,1.2,25,0.5,,,,,,,,,,,,,,,,,,,,,,,,,,,,,,,,,,,,,,,,,,,,,
,,,,,V2_010,20,Female,2024-03-01_14h01.43.208,jersey_experiment_5_v2,2023.2.2,Win32,85.47008547,,,,,,,,,,,,,,,,112.3066,114.1617,114.1617,116.4138,return,0.5649,,49.73958333,0,11,11,10,1,FBP-PT-19.png,0.35,1.2,11,0.25,,,,,,,,,,,,,,,,,,,,,,,,,,,,,,,,,,,,,,,,,,,,,
,,,,,V2_010,20,Female,2024-03-01_14h01.43.208,jersey_experiment_5_v2,2023.2.2,Win32,85.47008547,,,,,,,,,,,,,,,,116.4139,118.5182,118.5183,120.0477,return,0.2458,,24.47916667,0,12,12,26,1,FBP-OG-19.png,0.37,1.2,27,0.5,,,,,,,,,,,,,,,,,,,,,,,,,,,,,,,,,,,,,,,,,,,,,
,,,,,V2_010,20,Female,2024-03-01_14h01.43.208,jersey_experiment_5_v2,2023.2.2,Win32,85.47008547,,,,,,,,,,,,,,,,120.0479,122.1504,122.1504,123.962,return,0.3218,,74.73958333,0,13,13,54,1,FBP-YG-81.png,0.45,1.2,55,0.5,,,,,,,,,,,,,,,,,,,,,,,,,,,,,,,,,,,,,,,,,,,,,
,,,,,V2_010,20,Female,2024-03-01_14h01.43.208,jersey_experiment_5_v2,2023.2.2,Win32,85.47008547,,,,,,,,,,,,,,,,123.9623,126.0563,126.0563,127.2799,return,0.2695,,99.609375,0,14,14,42,1,FBP-RB-19.png,0.4,1.2,43,0.5,,,,,,,,,,,,,,,,,,,,,,,,,,,,,,,,,,,,,,,,,,,,,
,,,,,V2_010,20,Female,2024-03-01_14h01.43.208,jersey_experiment_5_v2,2023.2.2,Win32,85.47008547,,,,,,,,,,,,,,,,127.28,129.389,129.389,130.6732,return,0.2826,,74.86979167,0,15,15,30,1,FBP-RB-17.png,0.35,1.2,31,0.5,,,,,,,,,,,,,,,,,,,,,,,,,,,,,,,,,,,,,,,,,,,,,
,,,,,V2_010,20,Female,2024-03-01_14h01.43.208,jersey_experiment_5_v2,2023.2.2,Win32,85.47008547,,,,,,,,,,,,,,,,130.6734,132.7743,132.7743,134.0566,return,0.2055,,75.13020833,0,16,16,20,1,FBP-OG-18.png,0.35,1.2,21,0.5,,,,,,,,,,,,,,,,,,,,,,,,,,,,,,,,,,,,,,,,,,,,,
,,,,,V2_010,20,Female,2024-03-01_14h01.43.208,jersey_experiment_5_v2,2023.2.2,Win32,85.47008547,,,,,,,,,,,,,,,,134.0568,135.9155,135.9155,137.0037,return,0.2366,,75,0,17,17,4,1,FBP-PT-17.png,0.45,1.2,5,0.25,,,,,,,,,,,,,,,,,,,,,,,,,,,,,,,,,,,,,,,,,,,,,
,,,,,V2_010,20,Female,2024-03-01_14h01.43.208,jersey_experiment_5_v2,2023.2.2,Win32,85.47008547,,,,,,,,,,,,,,,,137.0039,139.1156,139.1156,139.9912,return,0.2488,,75,0,18,18,28,1,FBP-OG-19.png,0.43,1.2,29,0.5,,,,,,,,,,,,,,,,,,,,,,,,,,,,,,,,,,,,,,,,,,,,,
,,,,,V2_010,20,Female,2024-03-01_14h01.43.208,jersey_experiment_5_v2,2023.2.2,Win32,85.47008547,,,,,,,,,,,,,,,,139.9914,141.8369,141.8369,143.0133,return,0.1983,,74.609375,0,19,19,2,1,FBP-PT-17.png,0.4,1.2,3,0.25,,,,,,,,,,,,,,,,,,,,,,,,,,,,,,,,,,,,,,,,,,,,,
,,,,,V2_010,20,Female,2024-03-01_14h01.43.208,jersey_experiment_5_v2,2023.2.2,Win32,85.47008547,,,,,,,,,,,,,,,,143.0135,145.1277,145.1277,146.5866,return,0.2157,,74.86979167,0,20,20,52,1,FBP-YG-81.png,0.4,1.2,53,0.5,,,,,,,,,,,,,,,,,,,,,,,,,,,,,,,,,,,,,,,,,,,,,
,,,,,V2_010,20,Female,2024-03-01_14h01.43.208,jersey_experiment_5_v2,2023.2.2,Win32,85.47008547,,,,,,,,,,,,,,,,146.5868,148.4487,148.4488,151.2926,return,0.943,,24.47916667,0,21,21,0,1,FBP-PT-17.png,0.35,1.2,1,0.25,,,,,,,,,,,,,,,,,,,,,,,,,,,,,,,,,,,,,,,,,,,,,
,,,,,V2_010,20,Female,2024-03-01_14h01.43.208,jersey_experiment_5_v2,2023.2.2,Win32,85.47008547,,,,,,,,,,,,,,,,151.2928,153.1444,153.1445,154.8723,return,0.622,,25,0,22,22,7,1,FBP-PT-18.png,0.4,1.2,8,0.25,,,,,,,,,,,,,,,,,,,,,,,,,,,,,,,,,,,,,,,,,,,,,
,,,,,V2_010,20,Female,2024-03-01_14h01.43.208,jersey_experiment_5_v2,2023.2.2,Win32,85.47008547,,,,,,,,,,,,,,,,154.8726,156.9797,156.9798,158.1802,return,0.2489,,74.73958333,0,23,23,23,1,FBP-OG-18.png,0.43,1.2,24,0.5,,,,,,,,,,,,,,,,,,,,,,,,,,,,,,,,,,,,,,,,,,,,,
,,,,,V2_010,20,Female,2024-03-01_14h01.43.208,jersey_experiment_5_v2,2023.2.2,Win32,85.47008547,,,,,,,,,,,,,,,,158.1803,160.2811,160.2812,161.1165,return,0.2016,,74.73958333,0,24,24,18,1,FBP-OG-17.png,0.43,1.2,19,0.5,,,,,,,,,,,,,,,,,,,,,,,,,,,,,,,,,,,,,,,,,,,,,
,,,,,V2_010,20,Female,2024-03-01_14h01.43.208,jersey_experiment_5_v2,2023.2.2,Win32,85.47008547,,,,,,,,,,,,,,,,161.1166,162.9667,162.9667,163.8743,return,0.2828,,74.73958333,0,25,25,3,1,FBP-PT-17.png,0.43,1.2,4,0.25,,,,,,,,,,,,,,,,,,,,,,,,,,,,,,,,,,,,,,,,,,,,,
,,,,,V2_010,20,Female,2024-03-01_14h01.43.208,jersey_experiment_5_v2,2023.2.2,Win32,85.47008547,,,,,,,,,,,,,,,,163.8744,165.7166,165.7167,166.658,return,0.3063,,74.73958333,0,26,26,13,1,FBP-PT-19.png,0.43,1.2,14,0.25,,,,,,,,,,,,,,,,,,,,,,,,,,,,,,,,,,,,,,,,,,,,,
,,,,,V2_010,20,Female,2024-03-01_14h01.43.208,jersey_experiment_5_v2,2023.2.2,Win32,85.47008547,,,,,,,,,,,,,,,,166.6581,168.7552,168.7552,169.5051,return,0.1649,,74.73958333,0,27,27,40,1,FBP-RB-19.png,0.35,1.2,41,0.5,,,,,,,,,,,,,,,,,,,,,,,,,,,,,,,,,,,,,,,,,,,,,
,,,,,V2_010,20,Female,2024-03-01_14h01.43.208,jersey_experiment_5_v2,2023.2.2,Win32,85.47008547,,,,,,,,,,,,,,,,169.5053,171.611,171.611,172.3757,return,0.1948,,74.609375,0,28,28,32,1,FBP-RB-17.png,0.4,1.2,33,0.5,,,,,,,,,,,,,,,,,,,,,,,,,,,,,,,,,,,,,,,,,,,,,
,,,,,V2_010,20,Female,2024-03-01_14h01.43.208,jersey_experiment_5_v2,2023.2.2,Win32,85.47008547,,,,,,,,,,,,,,,,172.3758,174.2346,174.2346,177.0381,return,0.1988,,24.73958333,0,29,29,12,1,FBP-PT-19.png,0.4,1.2,13,0.25,,,,,,,,,,,,,,,,,,,,,,,,,,,,,,,,,,,,,,,,,,,,,
,,,,,V2_010,20,Female,2024-03-01_14h01.43.208,jersey_experiment_5_v2,2023.2.2,Win32,85.47008547,,,,,,,,,,,,,,,,177.0382,179.1454,179.1454,180.6279,return,0.2585,,75.390625,0,30,30,44,1,FBP-RB-19.png,0.45,1.2,45,0.5,,,,,,,,,,,,,,,,,,,,,,,,,,,,,,,,,,,,,,,,,,,,,
,,,,,V2_010,20,Female,2024-03-01_14h01.43.208,jersey_experiment_5_v2,2023.2.2,Win32,85.47008547,,,,,,,,,,,,,,,,180.6281,182.4734,182.4735,185.2114,return,1.0265,,74.609375,0,31,31,6,1,FBP-PT-18.png,0.37,1.2,7,0.25,,,,,,,,,,,,,,,,,,,,,,,,,,,,,,,,,,,,,,,,,,,,,
,,,,,V2_010,20,Female,2024-03-01_14h01.43.208,jersey_experiment_5_v2,2023.2.2,Win32,85.47008547,,,,,,,,,,,,,,,,185.2115,187.3104,187.3104,188.5528,return,0.2424,,74.609375,0,32,32,51,1,FBP-YG-81.png,0.37,1.2,52,0.5,,,,,,,,,,,,,,,,,,,,,,,,,,,,,,,,,,,,,,,,,,,,,
,,,,,V2_010,20,Female,2024-03-01_14h01.43.208,jersey_experiment_5_v2,2023.2.2,Win32,85.47008547,,,,,,,,,,,,,,,,188.553,190.647,190.647,191.5764,return,0.1705,,74.609375,0,33,33,35,1,FBP-RB-18.png,0.35,1.2,36,0.5,,,,,,,,,,,,,,,,,,,,,,,,,,,,,,,,,,,,,,,,,,,,,
,,,,,V2_010,20,Female,2024-03-01_14h01.43.208,jersey_experiment_5_v2,2023.2.2,Win32,85.47008547,,,,,,,,,,,,,,,,191.5766,193.6705,193.6706,194.706,return,0.2722,,75,0,34,34,50,1,FBP-YG-81.png,0.35,1.2,51,0.5,,,,,,,,,,,,,,,,,,,,,,,,,,,,,,,,,,,,,,,,,,,,,
,,,,,V2_010,20,Female,2024-03-01_14h01.43.208,jersey_experiment_5_v2,2023.2.2,Win32,85.47008547,,,,,,,,,,,,,,,,194.7061,196.8034,196.8034,198.239,return,0.3531,,99.609375,0,35,35,33,1,FBP-RB-17.png,0.43,1.2,34,0.5,,,,,,,,,,,,,,,,,,,,,,,,,,,,,,,,,,,,,,,,,,,,,
,,,,,V2_010,20,Female,2024-03-01_14h01.43.208,jersey_experiment_5_v2,2023.2.2,Win32,85.47008547,,,,,,,,,,,,,,,,198.2392,200.3533,200.3533,202.6288,return,0.8239,,75.26041667,0,36,36,55,1,FBP-YG-91.png,0.35,1.2,56,0.5,,,,,,,,,,,,,,,,,,,,,,,,,,,,,,,,,,,,,,,,,,,,,
,,,,,V2_010,20,Female,2024-03-01_14h01.43.208,jersey_experiment_5_v2,2023.2.2,Win32,85.47008547,,,,,,,,,,,,,,,,202.629,204.733,204.733,206.8743,return,0.3162,,75.13020833,0,37,37,58,1,FBP-YG-91.png,0.43,1.2,59,0.5,,,,,,,,,,,,,,,,,,,,,,,,,,,,,,,,,,,,,,,,,,,,,
,,,,,V2_010,20,Female,2024-03-01_14h01.43.208,jersey_experiment_5_v2,2023.2.2,Win32,85.47008547,,,,,,,,,,,,,,,,206.8744,208.9889,208.9889,210.7654,return,0.2948,,74.86979167,0,38,38,43,1,FBP-RB-19.png,0.43,1.2,44,0.5,,,,,,,,,,,,,,,,,,,,,,,,,,,,,,,,,,,,,,,,,,,,,
,,,,,V2_010,20,Female,2024-03-01_14h01.43.208,jersey_experiment_5_v2,2023.2.2,Win32,85.47008547,,,,,,,,,,,,,,,,210.7655,212.8595,212.8595,214.3655,return,0.1669,,75.13020833,0,39,39,37,1,FBP-RB-18.png,0.4,1.2,38,0.5,,,,,,,,,,,,,,,,,,,,,,,,,,,,,,,,,,,,,,,,,,,,,
,,,,,V2_010,20,Female,2024-03-01_14h01.43.208,jersey_experiment_5_v2,2023.2.2,Win32,85.47008547,,,,,,,,,,,,,,,,214.3658,216.4597,216.4597,217.8833,return,0.4269,,74.73958333,0,40,40,39,1,FBP-RB-18.png,0.45,1.2,40,0.5,,,,,,,,,,,,,,,,,,,,,,,,,,,,,,,,,,,,,,,,,,,,,
,,,,,V2_010,20,Female,2024-03-01_14h01.43.208,jersey_experiment_5_v2,2023.2.2,Win32,85.47008547,,,,,,,,,,,,,,,,217.8835,219.9775,219.9776,220.8245,return,0.2408,,75.390625,0,41,41,41,1,FBP-RB-19.png,0.37,1.2,42,0.5,,,,,,,,,,,,,,,,,,,,,,,,,,,,,,,,,,,,,,,,,,,,,
,,,,,V2_010,20,Female,2024-03-01_14h01.43.208,jersey_experiment_5_v2,2023.2.2,Win32,85.47008547,,,,,,,,,,,,,,,,220.8247,222.9305,222.9305,223.9709,return,0.1886,,74.73958333,0,42,42,34,1,FBP-RB-17.png,0.45,1.2,35,0.5,,,,,,,,,,,,,,,,,,,,,,,,,,,,,,,,,,,,,,,,,,,,,
,,,,,V2_010,20,Female,2024-03-01_14h01.43.208,jersey_experiment_5_v2,2023.2.2,Win32,85.47008547,,,,,,,,,,,,,,,,223.971,226.0719,226.0719,227.0011,return,0.2286,,74.73958333,0,43,43,48,1,FBP-YG-71.png,0.43,1.2,49,0.5,,,,,,,,,,,,,,,,,,,,,,,,,,,,,,,,,,,,,,,,,,,,,
,,,,,V2_010,20,Female,2024-03-01_14h01.43.208,jersey_experiment_5_v2,2023.2.2,Win32,85.47008547,,,,,,,,,,,,,,,,227.0014,228.8516,228.8516,233.3311,return,0.1879,,49.47916667,0,44,44,11,1,FBP-PT-19.png,0.37,1.2,12,0.25,,,,,,,,,,,,,,,,,,,,,,,,,,,,,,,,,,,,,,,,,,,,,
,,,,,V2_010,20,Female,2024-03-01_14h01.43.208,jersey_experiment_5_v2,2023.2.2,Win32,85.47008547,,,,,,,,,,,,,,,,233.3312,235.178,235.1781,236.9547,return,0.4524,,50.13020833,0,45,45,14,1,FBP-PT-19.png,0.45,1.2,15,0.25,,,,,,,,,,,,,,,,,,,,,,,,,,,,,,,,,,,,,,,,,,,,,
,,,,,V2_010,20,Female,2024-03-01_14h01.43.208,jersey_experiment_5_v2,2023.2.2,Win32,85.47008547,,,,,,,,,,,,,,,,236.9549,239.0534,239.0534,240.4049,return,0.3531,,49.86979167,0,46,46,22,1,FBP-OG-18.png,0.4,1.2,23,0.5,,,,,,,,,,,,,,,,,,,,,,,,,,,,,,,,,,,,,,,,,,,,,
,,,,,V2_010,20,Female,2024-03-01_14h01.43.208,jersey_experiment_5_v2,2023.2.2,Win32,85.47008547,,,,,,,,,,,,,,,,240.405,242.5122,242.5122,243.6288,return,0.1751,,49.86979167,0,47,47,36,1,FBP-RB-18.png,0.37,1.2,37,0.5,,,,,,,,,,,,,,,,,,,,,,,,,,,,,,,,,,,,,,,,,,,,,
,,,,,V2_010,20,Female,2024-03-01_14h01.43.208,jersey_experiment_5_v2,2023.2.2,Win32,85.47008547,,,,,,,,,,,,,,,,243.629,245.4725,245.4725,246.602,return,0.1809,,49.86979167,0,48,48,9,1,FBP-PT-18.png,0.45,1.2,10,0.25,,,,,,,,,,,,,,,,,,,,,,,,,,,,,,,,,,,,,,,,,,,,,
,,,,,V2_010,20,Female,2024-03-01_14h01.43.208,jersey_experiment_5_v2,2023.2.2,Win32,85.47008547,,,,,,,,,,,,,,,,246.6022,248.708,248.708,251.8492,return,0.1713,,74.86979167,0,49,49,38,1,FBP-RB-18.png,0.43,1.2,39,0.5,,,,,,,,,,,,,,,,,,,,,,,,,,,,,,,,,,,,,,,,,,,,,
,,,,,V2_010,20,Female,2024-03-01_14h01.43.208,jersey_experiment_5_v2,2023.2.2,Win32,85.47008547,,,,,,,,,,,,,,,,251.8494,253.9585,253.9585,255.7082,return,0.9444,,74.86979167,0,50,50,46,1,FBP-YG-71.png,0.37,1.2,47,0.5,,,,,,,,,,,,,,,,,,,,,,,,,,,,,,,,,,,,,,,,,,,,,
,,,,,V2_010,20,Female,2024-03-01_14h01.43.208,jersey_experiment_5_v2,2023.2.2,Win32,85.47008547,,,,,,,,,,,,,,,,255.7085,257.807,257.807,259.0311,return,0.3193,,75,0,51,51,57,1,FBP-YG-91.png,0.4,1.2,58,0.5,,,,,,,,,,,,,,,,,,,,,,,,,,,,,,,,,,,,,,,,,,,,,
,,,,,V2_010,20,Female,2024-03-01_14h01.43.208,jersey_experiment_5_v2,2023.2.2,Win32,85.47008547,,,,,,,,,,,,,,,,259.0313,261.1251,261.1251,261.8541,return,0.2485,,75,0,52,52,19,1,FBP-OG-17.png,0.45,1.2,20,0.5,,,,,,,,,,,,,,,,,,,,,,,,,,,,,,,,,,,,,,,,,,,,,
,,,,,V2_010,20,Female,2024-03-01_14h01.43.208,jersey_experiment_5_v2,2023.2.2,Win32,85.47008547,,,,,,,,,,,,,,,,261.8543,263.9557,263.9557,265.6733,return,0.1231,,24.609375,0,53,53,21,1,FBP-OG-18.png,0.37,1.2,22,0.5,,,,,,,,,,,,,,,,,,,,,,,,,,,,,,,,,,,,,,,,,,,,,
,,,,,V2_010,20,Female,2024-03-01_14h01.43.208,jersey_experiment_5_v2,2023.2.2,Win32,85.47008547,,,,,,,,,,,,,,,,265.6735,267.7706,267.7706,268.9709,return,0.3529,,25,0,54,54,16,1,FBP-OG-17.png,0.37,1.2,17,0.5,,,,,,,,,,,,,,,,,,,,,,,,,,,,,,,,,,,,,,,,,,,,,
,,,,,V2_010,20,Female,2024-03-01_14h01.43.208,jersey_experiment_5_v2,2023.2.2,Win32,85.47008547,,,,,,,,,,,,,,,,268.971,271.0735,271.0735,272.6183,return,0.5416,,25.26041667,0,55,55,53,1,FBP-YG-81.png,0.43,1.2,54,0.5,,,,,,,,,,,,,,,,,,,,,,,,,,,,,,,,,,,,,,,,,,,,,
,,,,,V2_010,20,Female,2024-03-01_14h01.43.208,jersey_experiment_5_v2,2023.2.2,Win32,85.47008547,,,,,,,,,,,,,,,,272.6184,274.4736,274.4737,276.7833,return,0.2124,,50.78125,0,56,56,5,1,FBP-PT-18.png,0.35,1.2,6,0.25,,,,,,,,,,,,,,,,,,,,,,,,,,,,,,,,,,,,,,,,,,,,,
,,,,,V2_010,20,Female,2024-03-01_14h01.43.208,jersey_experiment_5_v2,2023.2.2,Win32,85.47008547,,,,,,,,,,,,,,,,276.7834,278.8902,278.8902,280.1714,return,0.1988,,99.73958333,0,57,57,59,1,FBP-YG-91.png,0.45,1.2,60,0.5,,,,,,,,,,,,,,,,,,,,,,,,,,,,,,,,,,,,,,,,,,,,,
,,,,,V2_010,20,Female,2024-03-01_14h01.43.208,jersey_experiment_5_v2,2023.2.2,Win32,85.47008547,,,,,,,,,,,,,,,,280.1716,282.2657,282.2657,284.168,return,0.1238,,25.26041667,0,58,58,29,1,FBP-OG-19.png,0.45,1.2,30,0.5,,,,,,,,,,,,,,,,,,,,,,,,,,,,,,,,,,,,,,,,,,,,,
,,,,,V2_010,20,Female,2024-03-01_14h01.43.208,jersey_experiment_5_v2,2023.2.2,Win32,85.47008547,,,,,,,,,,,,,,,,284.1683,286.2657,286.2658,287.7093,return,0.1666,,75.52083333,0,59,59,49,1,FBP-YG-71.png,0.45,1.2,50,0.5,,,,,,,,,,,,,,,,,,,,,,,,,,,,,,,,,,,,,,,,,,,,,
,,,,,V2_010,20,Female,2024-03-01_14h01.43.208,jersey_experiment_5_v2,2023.2.2,Win32,85.47008547,,,,,,,,,,,,,,,,287.7113,289.8082,289.8082,290.7834,return,0.1516,,74.21875,,,,,,FBP-YG-18.png,0.43,1.2,54,0.5,0,0,0,53,1,,,,,,,,,,,,,,,,,,,,,,,,,,,,,,,,,,,,,,,,
,,,,,V2_010,20,Female,2024-03-01_14h01.43.208,jersey_experiment_5_v2,2023.2.2,Win32,85.47008547,,,,,,,,,,,,,,,,290.7835,292.8923,292.8924,293.6306,return,0.1047,,74.21875,,,,,,FBP-YG-17.png,0.45,1.2,50,0.5,0,1,1,49,1,,,,,,,,,,,,,,,,,,,,,,,,,,,,,,,,,,,,,,,,
,,,,,V2_010,20,Female,2024-03-01_14h01.43.208,jersey_experiment_5_v2,2023.2.2,Win32,85.47008547,,,,,,,,,,,,,,,,293.6307,295.745,295.745,296.4074,return,0.1991,,74.21875,,,,,,FBP-OG-71.png,0.37,1.2,17,0.5,0,2,2,16,1,,,,,,,,,,,,,,,,,,,,,,,,,,,,,,,,,,,,,,,,
,,,,,V2_010,20,Female,2024-03-01_14h01.43.208,jersey_experiment_5_v2,2023.2.2,Win32,85.47008547,,,,,,,,,,,,,,,,296.4074,298.251,298.251,300.0678,return,0.2252,,24.21875,,,,,,FBP-PT-81.png,0.4,1.2,8,0.25,0,3,3,7,1,,,,,,,,,,,,,,,,,,,,,,,,,,,,,,,,,,,,,,,,
,,,,,V2_010,20,Female,2024-03-01_14h01.43.208,jersey_experiment_5_v2,2023.2.2,Win32,85.47008547,,,,,,,,,,,,,,,,300.0679,302.1851,302.1851,303.3099,return,0.1767,,50.26041667,,,,,,FBP-OG-91.png,0.43,1.2,29,0.5,0,4,4,28,1,,,,,,,,,,,,,,,,,,,,,,,,,,,,,,,,,,,,,,,,
,,,,,V2_010,20,Female,2024-03-01_14h01.43.208,jersey_experiment_5_v2,2023.2.2,Win32,85.47008547,,,,,,,,,,,,,,,,303.3102,305.4089,305.4089,307.8901,return,0.2117,,25.91145833,,,,,,FBP-RB-71.png,0.37,1.2,32,0.5,0,5,5,31,1,,,,,,,,,,,,,,,,,,,,,,,,,,,,,,,,,,,,,,,,
,,,,,V2_010,20,Female,2024-03-01_14h01.43.208,jersey_experiment_5_v2,2023.2.2,Win32,85.47008547,,,,,,,,,,,,,,,,307.8902,309.9971,309.9971,311.6078,return,0.1883,,25.52083333,,,,,,FBP-RB-71.png,0.4,1.2,33,0.5,0,6,6,32,1,,,,,,,,,,,,,,,,,,,,,,,,,,,,,,,,,,,,,,,,
,,,,,V2_010,20,Female,2024-03-01_14h01.43.208,jersey_experiment_5_v2,2023.2.2,Win32,85.47008547,,,,,,,,,,,,,,,,311.608,313.7103,313.7103,316.973,return,1.7286,,50.91145833,,,,,,FBP-OG-71.png,0.4,1.2,18,0.5,0,7,7,17,1,,,,,,,,,,,,,,,,,,,,,,,,,,,,,,,,,,,,,,,,
,,,,,V2_010,20,Female,2024-03-01_14h01.43.208,jersey_experiment_5_v2,2023.2.2,Win32,85.47008547,,,,,,,,,,,,,,,,316.9732,318.8283,318.8284,320.6634,return,0.8772,,25.26041667,,,,,,FBP-PT-91.png,0.35,1.2,11,0.25,0,8,8,10,1,,,,,,,,,,,,,,,,,,,,,,,,,,,,,,,,,,,,,,,,
,,,,,V2_010,20,Female,2024-03-01_14h01.43.208,jersey_experiment_5_v2,2023.2.2,Win32,85.47008547,,,,,,,,,,,,,,,,320.6637,322.7695,322.7695,324.0284,return,0.6501,,26.69270833,,,,,,FBP-OG-91.png,0.35,1.2,26,0.5,0,9,9,25,1,,,,,,,,,,,,,,,,,,,,,,,,,,,,,,,,,,,,,,,,
,,,,,V2_010,20,Female,2024-03-01_14h01.43.208,jersey_experiment_5_v2,2023.2.2,Win32,85.47008547,,,,,,,,,,,,,,,,324.0286,326.1389,326.139,327.5696,return,0.7164,,25.13020833,,,,,,FBP-YG-18.png,0.35,1.2,51,0.5,0,10,10,50,1,,,,,,,,,,,,,,,,,,,,,,,,,,,,,,,,,,,,,,,,
,,,,,V2_010,20,Female,2024-03-01_14h01.43.208,jersey_experiment_5_v2,2023.2.2,Win32,85.47008547,,,,,,,,,,,,,,,,327.5699,329.6686,329.6686,331.3109,return,0.4946,,74.73958333,,,,,,FBP-RB-81.png,0.4,1.2,38,0.5,0,11,11,37,1,,,,,,,,,,,,,,,,,,,,,,,,,,,,,,,,,,,,,,,,
,,,,,V2_010,20,Female,2024-03-01_14h01.43.208,jersey_experiment_5_v2,2023.2.2,Win32,85.47008547,,,,,,,,,,,,,,,,331.3111,333.4099,333.4099,335.632,return,0.5879,,74.34895833,,,,,,FBP-OG-71.png,0.43,1.2,19,0.5,0,12,12,18,1,,,,,,,,,,,,,,,,,,,,,,,,,,,,,,,,,,,,,,,,
,,,,,V2_010,20,Female,2024-03-01_14h01.43.208,jersey_experiment_5_v2,2023.2.2,Win32,85.47008547,,,,,,,,,,,,,,,,335.6321,337.7393,337.7393,339.1984,return,0.353,,75,,,,,,FBP-YG-19.png,0.45,1.2,60,0.5,0,13,13,59,1,,,,,,,,,,,,,,,,,,,,,,,,,,,,,,,,,,,,,,,,
,,,,,V2_010,20,Female,2024-03-01_14h01.43.208,jersey_experiment_5_v2,2023.2.2,Win32,85.47008547,,,,,,,,,,,,,,,,339.1985,341.0525,341.0525,342.446,return,0.2725,,50,,,,,,FBP-PT-81.png,0.45,1.2,10,0.25,0,14,14,9,1,,,,,,,,,,,,,,,,,,,,,,,,,,,,,,,,,,,,,,,,
,,,,,V2_010,20,Female,2024-03-01_14h01.43.208,jersey_experiment_5_v2,2023.2.2,Win32,85.47008547,,,,,,,,,,,,,,,,342.4462,344.5468,344.5469,345.4341,return,0.3665,,50,,,,,,FBP-OG-81.png,0.43,1.2,24,0.5,0,15,15,23,1,,,,,,,,,,,,,,,,,,,,,,,,,,,,,,,,,,,,,,,,
,,,,,V2_010,20,Female,2024-03-01_14h01.43.208,jersey_experiment_5_v2,2023.2.2,Win32,85.47008547,,,,,,,,,,,,,,,,345.4343,347.2763,347.2763,349.9152,return,0.3533,,24.34895833,,,,,,FBP-PT-71.png,0.45,1.2,5,0.25,0,16,16,4,1,,,,,,,,,,,,,,,,,,,,,,,,,,,,,,,,,,,,,,,,
,,,,,V2_010,20,Female,2024-03-01_14h01.43.208,jersey_experiment_5_v2,2023.2.2,Win32,85.47008547,,,,,,,,,,,,,,,,349.9153,352.0327,352.0327,353.5761,return,0.2024,,24.73958333,,,,,,FBP-RB-91.png,0.35,1.2,41,0.5,0,17,17,40,1,,,,,,,,,,,,,,,,,,,,,,,,,,,,,,,,,,,,,,,,
,,,,,V2_010,20,Female,2024-03-01_14h01.43.208,jersey_experiment_5_v2,2023.2.2,Win32,85.47008547,,,,,,,,,,,,,,,,353.5762,355.6802,355.6802,357.3639,return,0.1783,,25.390625,,,,,,FBP-OG-81.png,0.4,1.2,23,0.5,0,18,18,22,1,,,,,,,,,,,,,,,,,,,,,,,,,,,,,,,,,,,,,,,,
,,,,,V2_010,20,Female,2024-03-01_14h01.43.208,jersey_experiment_5_v2,2023.2.2,Win32,85.47008547,,,,,,,,,,,,,,,,357.364,359.4817,359.4818,361.4217,return,0.199,,49.08854167,,,,,,FBP-YG-19.png,0.43,1.2,59,0.5,0,19,19,58,1,,,,,,,,,,,,,,,,,,,,,,,,,,,,,,,,,,,,,,,,
,,,,,V2_010,20,Female,2024-03-01_14h01.43.208,jersey_experiment_5_v2,2023.2.2,Win32,85.47008547,,,,,,,,,,,,,,,,361.4218,363.5291,363.5292,364.8652,return,0.2457,,25,,,,,,FBP-RB-91.png,0.37,1.2,42,0.5,0,20,20,41,1,,,,,,,,,,,,,,,,,,,,,,,,,,,,,,,,,,,,,,,,
,,,,,V2_010,20,Female,2024-03-01_14h01.43.208,jersey_experiment_5_v2,2023.2.2,Win32,85.47008547,,,,,,,,,,,,,,,,364.8653,366.7288,366.7289,367.9157,return,0.212,,24.73958333,,,,,,FBP-PT-81.png,0.37,1.2,7,0.25,0,21,21,6,1,,,,,,,,,,,,,,,,,,,,,,,,,,,,,,,,,,,,,,,,
,,,,,V2_010,20,Female,2024-03-01_14h01.43.208,jersey_experiment_5_v2,2023.2.2,Win32,85.47008547,,,,,,,,,,,,,,,,367.9159,370.0225,370.0225,370.8231,return,0.2117,,24.73958333,,,,,,FBP-RB-81.png,0.37,1.2,37,0.5,0,22,22,36,1,,,,,,,,,,,,,,,,,,,,,,,,,,,,,,,,,,,,,,,,
,,,,,V2_010,20,Female,2024-03-01_14h01.43.208,jersey_experiment_5_v2,2023.2.2,Win32,85.47008547,,,,,,,,,,,,,,,,370.8233,372.6774,372.6774,373.7125,return,0.1648,,74.86979167,,,,,,FBP-PT-81.png,0.43,1.2,9,0.25,0,23,23,8,1,,,,,,,,,,,,,,,,,,,,,,,,,,,,,,,,,,,,,,,,
,,,,,V2_010,20,Female,2024-03-01_14h01.43.208,jersey_experiment_5_v2,2023.2.2,Win32,85.47008547,,,,,,,,,,,,,,,,373.7129,375.8068,375.8068,377.1294,return,0.1783,,25.65104167,,,,,,FBP-YG-17.png,0.35,1.2,46,0.5,0,24,24,45,1,,,,,,,,,,,,,,,,,,,,,,,,,,,,,,,,,,,,,,,,
,,,,,V2_010,20,Female,2024-03-01_14h01.43.208,jersey_experiment_5_v2,2023.2.2,Win32,85.47008547,,,,,,,,,,,,,,,,377.1295,379.2233,379.2233,382.7481,return,2.0139,,49.86979167,,,,,,FBP-OG-81.png,0.37,1.2,22,0.5,0,25,25,21,1,,,,,,,,,,,,,,,,,,,,,,,,,,,,,,,,,,,,,,,,
,,,,,V2_010,20,Female,2024-03-01_14h01.43.208,jersey_experiment_5_v2,2023.2.2,Win32,85.47008547,,,,,,,,,,,,,,,,382.7484,384.847,384.847,386.4709,return,0.2488,,75.13020833,,,,,,FBP-RB-81.png,0.43,1.2,39,0.5,0,26,26,38,1,,,,,,,,,,,,,,,,,,,,,,,,,,,,,,,,,,,,,,,,
,,,,,V2_010,20,Female,2024-03-01_14h01.43.208,jersey_experiment_5_v2,2023.2.2,Win32,85.47008547,,,,,,,,,,,,,,,,386.4711,388.3295,388.3295,390.2121,return,0.212,,24.47916667,,,,,,FBP-PT-71.png,0.37,1.2,2,0.25,0,27,27,1,1,,,,,,,,,,,,,,,,,,,,,,,,,,,,,,,,,,,,,,,,
,,,,,V2_010,20,Female,2024-03-01_14h01.43.208,jersey_experiment_5_v2,2023.2.2,Win32,85.47008547,,,,,,,,,,,,,,,,390.2122,392.0577,392.0577,393.4361,return,0.2724,,25.13020833,,,,,,FBP-PT-91.png,0.4,1.2,13,0.25,0,28,28,12,1,,,,,,,,,,,,,,,,,,,,,,,,,,,,,,,,,,,,,,,,
,,,,,V2_010,20,Female,2024-03-01_14h01.43.208,jersey_experiment_5_v2,2023.2.2,Win32,85.47008547,,,,,,,,,,,,,,,,393.4363,395.5488,395.5488,397.2111,return,0.4579,,25.13020833,,,,,,FBP-OG-71.png,0.35,1.2,16,0.5,0,29,29,15,1,,,,,,,,,,,,,,,,,,,,,,,,,,,,,,,,,,,,,,,,
,,,,,V2_010,20,Female,2024-03-01_14h01.43.208,jersey_experiment_5_v2,2023.2.2,Win32,85.47008547,,,,,,,,,,,,,,,,397.2112,399.3287,399.3288,400.9758,return,0.1276,,50,,,,,,FBP-RB-71.png,0.35,1.2,31,0.5,0,30,30,30,1,,,,,,,,,,,,,,,,,,,,,,,,,,,,,,,,,,,,,,,,
,,,,,V2_010,20,Female,2024-03-01_14h01.43.208,jersey_experiment_5_v2,2023.2.2,Win32,85.47008547,,,,,,,,,,,,,,,,400.9759,402.8237,402.8237,403.6584,return,0.2117,,50,,,,,,FBP-PT-71.png,0.43,1.2,4,0.25,0,31,31,3,1,,,,,,,,,,,,,,,,,,,,,,,,,,,,,,,,,,,,,,,,
,,,,,V2_010,20,Female,2024-03-01_14h01.43.208,jersey_experiment_5_v2,2023.2.2,Win32,85.47008547,,,,,,,,,,,,,,,,403.6585,405.7524,405.7525,406.5894,return,0.2119,,50,,,,,,FBP-YG-19.png,0.35,1.2,56,0.5,0,32,32,55,1,,,,,,,,,,,,,,,,,,,,,,,,,,,,,,,,,,,,,,,,
,,,,,V2_010,20,Female,2024-03-01_14h01.43.208,jersey_experiment_5_v2,2023.2.2,Win32,85.47008547,,,,,,,,,,,,,,,,406.5896,408.4351,408.4352,410.5845,return,0.5484,,99.73958333,,,,,,FBP-PT-91.png,0.45,1.2,15,0.25,0,33,33,14,1,,,,,,,,,,,,,,,,,,,,,,,,,,,,,,,,,,,,,,,,
,,,,,V2_010,20,Female,2024-03-01_14h01.43.208,jersey_experiment_5_v2,2023.2.2,Win32,85.47008547,,,,,,,,,,,,,,,,410.5847,412.6836,412.6836,414.6234,return,0.4,,99.86979167,,,,,,FBP-OG-91.png,0.45,1.2,30,0.5,0,34,34,29,1,,,,,,,,,,,,,,,,,,,,,,,,,,,,,,,,,,,,,,,,
,,,,,V2_010,20,Female,2024-03-01_14h01.43.208,jersey_experiment_5_v2,2023.2.2,Win32,85.47008547,,,,,,,,,,,,,,,,414.6236,416.7307,416.7307,418.4484,return,0.4134,,24.86979167,,,,,,FBP-RB-81.png,0.35,1.2,36,0.5,0,35,35,35,1,,,,,,,,,,,,,,,,,,,,,,,,,,,,,,,,,,,,,,,,
,,,,,V2_010,20,Female,2024-03-01_14h01.43.208,jersey_experiment_5_v2,2023.2.2,Win32,85.47008547,,,,,,,,,,,,,,,,418.4487,420.5529,420.5529,422.0488,return,0.4841,,74.73958333,,,,,,FBP-RB-91.png,0.45,1.2,45,0.5,0,36,36,44,1,,,,,,,,,,,,,,,,,,,,,,,,,,,,,,,,,,,,,,,,
,,,,,V2_010,20,Female,2024-03-01_14h01.43.208,jersey_experiment_5_v2,2023.2.2,Win32,85.47008547,,,,,,,,,,,,,,,,422.0489,424.1532,424.1532,425.6486,return,0.2486,,75,,,,,,FBP-OG-71.png,0.45,1.2,20,0.5,0,37,37,19,1,,,,,,,,,,,,,,,,,,,,,,,,,,,,,,,,,,,,,,,,
,,,,,V2_010,20,Female,2024-03-01_14h01.43.208,jersey_experiment_5_v2,2023.2.2,Win32,85.47008547,,,,,,,,,,,,,,,,425.6487,427.5078,427.5078,428.8794,return,0.2583,,74.73958333,,,,,,FBP-PT-91.png,0.37,1.2,12,0.25,0,38,38,11,1,,,,,,,,,,,,,,,,,,,,,,,,,,,,,,,,,,,,,,,,
,,,,,V2_010,20,Female,2024-03-01_14h01.43.208,jersey_experiment_5_v2,2023.2.2,Win32,85.47008547,,,,,,,,,,,,,,,,428.8796,430.9897,430.9898,431.7853,return,0.2176,,74.47916667,,,,,,FBP-RB-71.png,0.45,1.2,35,0.5,0,39,39,34,1,,,,,,,,,,,,,,,,,,,,,,,,,,,,,,,,,,,,,,,,
,,,,,V2_010,20,Female,2024-03-01_14h01.43.208,jersey_experiment_5_v2,2023.2.2,Win32,85.47008547,,,,,,,,,,,,,,,,431.7855,433.8946,433.8946,434.5673,return,0.1552,,74.47916667,,,,,,FBP-RB-91.png,0.4,1.2,43,0.5,0,40,40,42,1,,,,,,,,,,,,,,,,,,,,,,,,,,,,,,,,,,,,,,,,
,,,,,V2_010,20,Female,2024-03-01_14h01.43.208,jersey_experiment_5_v2,2023.2.2,Win32,85.47008547,,,,,,,,,,,,,,,,434.5676,436.6711,436.6712,437.5971,return,0.332,,74.47916667,,,,,,FBP-YG-17.png,0.43,1.2,49,0.5,0,41,41,48,1,,,,,,,,,,,,,,,,,,,,,,,,,,,,,,,,,,,,,,,,
,,,,,V2_010,20,Female,2024-03-01_14h01.43.208,jersey_experiment_5_v2,2023.2.2,Win32,85.47008547,,,,,,,,,,,,,,,,437.5974,439.6959,439.6959,440.5433,return,0.1414,,74.47916667,,,,,,FBP-YG-19.png,0.37,1.2,57,0.5,0,42,42,56,1,,,,,,,,,,,,,,,,,,,,,,,,,,,,,,,,,,,,,,,,
,,,,,V2_010,20,Female,2024-03-01_14h01.43.208,jersey_experiment_5_v2,2023.2.2,Win32,85.47008547,,,,,,,,,,,,,,,,440.5435,442.6609,442.6609,445.1186,return,0.1648,,50.13020833,,,,,,FBP-OG-81.png,0.45,1.2,25,0.5,0,43,43,24,1,,,,,,,,,,,,,,,,,,,,,,,,,,,,,,,,,,,,,,,,
,,,,,V2_010,20,Female,2024-03-01_14h01.43.208,jersey_experiment_5_v2,2023.2.2,Win32,85.47008547,,,,,,,,,,,,,,,,445.1187,447.2264,447.2264,448.0565,return,0.16,,74.609375,,,,,,FBP-YG-17.png,0.4,1.2,48,0.5,0,44,44,47,1,,,,,,,,,,,,,,,,,,,,,,,,,,,,,,,,,,,,,,,,
,,,,,V2_010,20,Female,2024-03-01_14h01.43.208,jersey_experiment_5_v2,2023.2.2,Win32,85.47008547,,,,,,,,,,,,,,,,448.0567,450.154,450.154,451.401,return,0.1751,,50,,,,,,FBP-OG-81.png,0.35,1.2,21,0.5,0,45,45,20,1,,,,,,,,,,,,,,,,,,,,,,,,,,,,,,,,,,,,,,,,
,,,,,V2_010,20,Female,2024-03-01_14h01.43.208,jersey_experiment_5_v2,2023.2.2,Win32,85.47008547,,,,,,,,,,,,,,,,451.4011,453.5188,453.5188,456.3191,return,1.5769,,25.26041667,,,,,,FBP-OG-91.png,0.37,1.2,27,0.5,0,46,46,26,1,,,,,,,,,,,,,,,,,,,,,,,,,,,,,,,,,,,,,,,,
,,,,,V2_010,20,Female,2024-03-01_14h01.43.208,jersey_experiment_5_v2,2023.2.2,Win32,85.47008547,,,,,,,,,,,,,,,,456.3193,458.4366,458.4367,459.7071,return,0.1882,,25.26041667,,,,,,FBP-OG-91.png,0.4,1.2,28,0.5,0,47,47,27,1,,,,,,,,,,,,,,,,,,,,,,,,,,,,,,,,,,,,,,,,
,,,,,V2_010,20,Female,2024-03-01_14h01.43.208,jersey_experiment_5_v2,2023.2.2,Win32,85.47008547,,,,,,,,,,,,,,,,459.7073,461.8147,461.8147,463.3512,return,0.2659,,24.47916667,,,,,,FBP-YG-17.png,0.37,1.2,47,0.5,0,48,48,46,1,,,,,,,,,,,,,,,,,,,,,,,,,,,,,,,,,,,,,,,,
,,,,,V2_010,20,Female,2024-03-01_14h01.43.208,jersey_experiment_5_v2,2023.2.2,Win32,85.47008547,,,,,,,,,,,,,,,,463.3515,465.4618,465.4618,466.8135,return,0.1517,,24.73958333,,,,,,FBP-RB-91.png,0.43,1.2,44,0.5,0,49,49,43,1,,,,,,,,,,,,,,,,,,,,,,,,,,,,,,,,,,,,,,,,
,,,,,V2_010,20,Female,2024-03-01_14h01.43.208,jersey_experiment_5_v2,2023.2.2,Win32,85.47008547,,,,,,,,,,,,,,,,466.8137,468.928,468.928,470.8338,return,0.2487,,24.86979167,,,,,,FBP-YG-18.png,0.4,1.2,53,0.5,0,50,50,52,1,,,,,,,,,,,,,,,,,,,,,,,,,,,,,,,,,,,,,,,,
,,,,,V2_010,20,Female,2024-03-01_14h01.43.208,jersey_experiment_5_v2,2023.2.2,Win32,85.47008547,,,,,,,,,,,,,,,,470.834,472.9397,472.9398,476.333,return,0.1884,,74.86979167,,,,,,FBP-RB-81.png,0.45,1.2,40,0.5,0,51,51,39,1,,,,,,,,,,,,,,,,,,,,,,,,,,,,,,,,,,,,,,,,
,,,,,V2_010,20,Female,2024-03-01_14h01.43.208,jersey_experiment_5_v2,2023.2.2,Win32,85.47008547,,,,,,,,,,,,,,,,476.3332,478.1786,478.1787,479.967,return,0.1649,,49.34895833,,,,,,FBP-PT-81.png,0.35,1.2,6,0.25,0,52,52,5,1,,,,,,,,,,,,,,,,,,,,,,,,,,,,,,,,,,,,,,,,
,,,,,V2_010,20,Female,2024-03-01_14h01.43.208,jersey_experiment_5_v2,2023.2.2,Win32,85.47008547,,,,,,,,,,,,,,,,479.9671,482.0695,482.0695,484.4508,return,0.2957,,49.73958333,,,,,,FBP-YG-19.png,0.4,1.2,58,0.5,0,53,53,57,1,,,,,,,,,,,,,,,,,,,,,,,,,,,,,,,,,,,,,,,,
,,,,,V2_010,20,Female,2024-03-01_14h01.43.208,jersey_experiment_5_v2,2023.2.2,Win32,85.47008547,,,,,,,,,,,,,,,,484.451,486.5521,486.5522,487.7873,return,0.203,,75.26041667,,,,,,FBP-RB-71.png,0.43,1.2,34,0.5,0,54,54,33,1,,,,,,,,,,,,,,,,,,,,,,,,,,,,,,,,,,,,,,,,
,,,,,V2_010,20,Female,2024-03-01_14h01.43.208,jersey_experiment_5_v2,2023.2.2,Win32,85.47008547,,,,,,,,,,,,,,,,487.7874,489.6378,489.6378,491.0734,return,0.1989,,24.86979167,,,,,,FBP-PT-71.png,0.35,1.2,1,0.25,0,55,55,0,1,,,,,,,,,,,,,,,,,,,,,,,,,,,,,,,,,,,,,,,,
,,,,,V2_010,20,Female,2024-03-01_14h01.43.208,jersey_experiment_5_v2,2023.2.2,Win32,85.47008547,,,,,,,,,,,,,,,,491.0735,492.9318,492.9318,494.2346,return,0.1226,,24.86979167,,,,,,FBP-PT-91.png,0.43,1.2,14,0.25,0,56,56,13,1,,,,,,,,,,,,,,,,,,,,,,,,,,,,,,,,,,,,,,,,
,,,,,V2_010,20,Female,2024-03-01_14h01.43.208,jersey_experiment_5_v2,2023.2.2,Win32,85.47008547,,,,,,,,,,,,,,,,494.2348,496.3408,496.3409,497.7054,return,0.1226,,24.86979167,,,,,,FBP-YG-18.png,0.37,1.2,52,0.5,0,57,57,51,1,,,,,,,,,,,,,,,,,,,,,,,,,,,,,,,,,,,,,,,,
,,,,,V2_010,20,Female,2024-03-01_14h01.43.208,jersey_experiment_5_v2,2023.2.2,Win32,85.47008547,,,,,,,,,,,,,,,,497.7056,499.8163,499.8163,501.121,return,0.1989,,74.73958333,,,,,,FBP-YG-18.png,0.45,1.2,55,0.5,0,58,58,54,1,,,,,,,,,,,,,,,,,,,,,,,,,,,,,,,,,,,,,,,,
,,,,,V2_010,20,Female,2024-03-01_14h01.43.208,jersey_experiment_5_v2,2023.2.2,Win32,85.47008547,,,,,,,,,,,,,,,,501.1211,502.9692,502.9692,504.2976,return,0.1993,,74.73958333,,,,,,FBP-PT-71.png,0.4,1.2,3,0.25,0,59,59,2,1,,,,,,,,,,,,,,,,,,,,,,,,,,,,,,,,,,,,,,,,
,,,,,V2_010,20,Female,2024-03-01_14h01.43.208,jersey_experiment_5_v2,2023.2.2,Win32,85.47008547,,,,,,,,,,,,,,,,,,,,,,,,,,,,,,,,,,,,,,,504.2979,624.3018,,,,,,,,,,,,,,,,,,,,,,,,,,,,,,,,,,,,,,
,,,,,V2_010,20,Female,2024-03-01_14h01.43.208,jersey_experiment_5_v2,2023.2.2,Win32,85.47008547,,,,,,,,,,,,,,,,,,,,,,,,,,,,,,,,,,,,,,,,,624.3018,627.5454,return,3.2279,,,,,,,,,,,,,,,,,,,,,,,,,,,,,,,,,,
,,,,,V2_010,20,Female,2024-03-01_14h01.43.208,jersey_experiment_5_v2,2023.2.2,Win32,85.47008547,,,,,,,,,,,,,,,,627.5513,629.4205,629.4205,633.1858,return,0.5644,,24.47916667,,,,,,FBP-OG-18.png,0.35,1.2,21,0.25,,,,,,,,,,,,,0,0,0,20,1,,,,,,,,,,,,,,,,,,,,,,,,,,,,
,,,,,V2_010,20,Female,2024-03-01_14h01.43.208,jersey_experiment_5_v2,2023.2.2,Win32,85.47008547,,,,,,,,,,,,,,,,633.1859,635.0316,635.0316,636.0635,return,0.1307,,74.86979167,,,,,,FBP-YG-71.png,0.45,1.2,50,0.25,,,,,,,,,,,,,0,1,1,49,1,,,,,,,,,,,,,,,,,,,,,,,,,,,,
,,,,,V2_010,20,Female,2024-03-01_14h01.43.208,jersey_experiment_5_v2,2023.2.2,Win32,85.47008547,,,,,,,,,,,,,,,,636.0636,637.9223,637.9223,638.9106,return,0.1413,,74.609375,,,,,,FBP-RB-18.png,0.37,1.2,37,0.25,,,,,,,,,,,,,0,2,2,36,1,,,,,,,,,,,,,,,,,,,,,,,,,,,,
,,,,,V2_010,20,Female,2024-03-01_14h01.43.208,jersey_experiment_5_v2,2023.2.2,Win32,85.47008547,,,,,,,,,,,,,,,,638.9108,641.0049,641.0049,643.1626,return,0.1311,,75,,,,,,FBP-PT-17.png,0.37,1.2,2,0.5,,,,,,,,,,,,,0,3,3,1,1,,,,,,,,,,,,,,,,,,,,,,,,,,,,
,,,,,V2_010,20,Female,2024-03-01_14h01.43.208,jersey_experiment_5_v2,2023.2.2,Win32,85.47008547,,,,,,,,,,,,,,,,643.1628,645.0049,645.0049,645.6403,return,0.1708,,75,,,,,,FBP-OG-17.png,0.45,1.2,20,0.25,,,,,,,,,,,,,0,4,4,19,1,,,,,,,,,,,,,,,,,,,,,,,,,,,,
,,,,,V2_010,20,Female,2024-03-01_14h01.43.208,jersey_experiment_5_v2,2023.2.2,Win32,85.47008547,,,,,,,,,,,,,,,,645.6404,647.7461,647.7461,648.3344,return,0.0713,,75,,,,,,FBP-PT-19.png,0.43,1.2,14,0.5,,,,,,,,,,,,,0,5,5,13,1,,,,,,,,,,,,,,,,,,,,,,,,,,,,
,,,,,V2_010,20,Female,2024-03-01_14h01.43.208,jersey_experiment_5_v2,2023.2.2,Win32,85.47008547,,,,,,,,,,,,,,,,648.3345,650.1815,650.1815,650.8403,return,0.2174,,75.65104167,,,,,,FBP-RB-17.png,0.45,1.2,35,0.25,,,,,,,,,,,,,0,6,6,34,1,,,,,,,,,,,,,,,,,,,,,,,,,,,,
,,,,,V2_010,20,Female,2024-03-01_14h01.43.208,jersey_experiment_5_v2,2023.2.2,Win32,85.47008547,,,,,,,,,,,,,,,,650.8405,652.6993,652.6993,654.017,return,0.1648,,74.609375,,,,,,FBP-OG-19.png,0.45,1.2,30,0.25,,,,,,,,,,,,,0,7,7,29,1,,,,,,,,,,,,,,,,,,,,,,,,,,,,
,,,,,V2_010,20,Female,2024-03-01_14h01.43.208,jersey_experiment_5_v2,2023.2.2,Win32,85.47008547,,,,,,,,,,,,,,,,654.0172,656.1112,656.1112,657.3513,return,0.178,,74.86979167,,,,,,FBP-PT-17.png,0.43,1.2,4,0.5,,,,,,,,,,,,,0,8,8,3,1,,,,,,,,,,,,,,,,,,,,,,,,,,,,
,,,,,V2_010,20,Female,2024-03-01_14h01.43.208,jersey_experiment_5_v2,2023.2.2,Win32,85.47008547,,,,,,,,,,,,,,,,657.3514,659.2054,659.2055,659.916,return,0.1883,,74.86979167,,,,,,FBP-YG-81.png,0.43,1.2,54,0.25,,,,,,,,,,,,,0,9,9,53,1,,,,,,,,,,,,,,,,,,,,,,,,,,,,
,,,,,V2_010,20,Female,2024-03-01_14h01.43.208,jersey_experiment_5_v2,2023.2.2,Win32,85.47008547,,,,,,,,,,,,,,,,659.9162,661.7702,661.7702,662.4409,return,0.1834,,74.86979167,,,,,,FBP-RB-17.png,0.4,1.2,33,0.25,,,,,,,,,,,,,0,10,10,32,1,,,,,,,,,,,,,,,,,,,,,,,,,,,,
,,,,,V2_010,20,Female,2024-03-01_14h01.43.208,jersey_experiment_5_v2,2023.2.2,Win32,85.47008547,,,,,,,,,,,,,,,,662.4411,664.2926,664.2927,666.4763,return,0.2151,,25,,,,,,FBP-YG-91.png,0.35,1.2,56,0.25,,,,,,,,,,,,,0,11,11,55,1,,,,,,,,,,,,,,,,,,,,,,,,,,,,
,,,,,V2_010,20,Female,2024-03-01_14h01.43.208,jersey_experiment_5_v2,2023.2.2,Win32,85.47008547,,,,,,,,,,,,,,,,666.4764,668.5704,668.5704,670.0579,return,0.1651,,24.73958333,,,,,,FBP-PT-17.png,0.4,1.2,3,0.5,,,,,,,,,,,,,0,12,12,2,1,,,,,,,,,,,,,,,,,,,,,,,,,,,,
,,,,,V2_010,20,Female,2024-03-01_14h01.43.208,jersey_experiment_5_v2,2023.2.2,Win32,85.47008547,,,,,,,,,,,,,,,,670.058,671.9118,671.9118,673.7756,return,0.165,,24.86979167,,,,,,FBP-YG-81.png,0.4,1.2,53,0.25,,,,,,,,,,,,,0,13,13,52,1,,,,,,,,,,,,,,,,,,,,,,,,,,,,
,,,,,V2_010,20,Female,2024-03-01_14h01.43.208,jersey_experiment_5_v2,2023.2.2,Win32,85.47008547,,,,,,,,,,,,,,,,673.7758,675.8767,675.8767,676.9355,return,0.1849,,24.609375,,,,,,FBP-PT-19.png,0.45,1.2,15,0.5,,,,,,,,,,,,,0,14,14,14,1,,,,,,,,,,,,,,,,,,,,,,,,,,,,
,,,,,V2_010,20,Female,2024-03-01_14h01.43.208,jersey_experiment_5_v2,2023.2.2,Win32,85.47008547,,,,,,,,,,,,,,,,676.9356,678.7871,678.7871,680.665,return,0.1583,,49.73958333,,,,,,FBP-RB-19.png,0.35,1.2,41,0.25,,,,,,,,,,,,,0,15,15,40,1,,,,,,,,,,,,,,,,,,,,,,,,,,,,
,,,,,V2_010,20,Female,2024-03-01_14h01.43.208,jersey_experiment_5_v2,2023.2.2,Win32,85.47008547,,,,,,,,,,,,,,,,680.6651,682.5239,682.5239,683.9948,return,0.0976,,25,,,,,,FBP-RB-19.png,0.37,1.2,42,0.25,,,,,,,,,,,,,0,16,16,41,1,,,,,,,,,,,,,,,,,,,,,,,,,,,,
,,,,,V2_010,20,Female,2024-03-01_14h01.43.208,jersey_experiment_5_v2,2023.2.2,Win32,85.47008547,,,,,,,,,,,,,,,,683.995,685.8467,685.8468,687.3761,return,0.1777,,25.13020833,,,,,,FBP-RB-18.png,0.4,1.2,38,0.25,,,,,,,,,,,,,0,17,17,37,1,,,,,,,,,,,,,,,,,,,,,,,,,,,,
,,,,,V2_010,20,Female,2024-03-01_14h01.43.208,jersey_experiment_5_v2,2023.2.2,Win32,85.47008547,,,,,,,,,,,,,,,,687.3762,689.2299,689.2299,690.936,return,0.124,,75.26041667,,,,,,FBP-RB-18.png,0.45,1.2,40,0.25,,,,,,,,,,,,,0,18,18,39,1,,,,,,,,,,,,,,,,,,,,,,,,,,,,
,,,,,V2_010,20,Female,2024-03-01_14h01.43.208,jersey_experiment_5_v2,2023.2.2,Win32,85.47008547,,,,,,,,,,,,,,,,690.9363,692.788,692.788,693.4335,return,0.1649,,75.26041667,,,,,,FBP-YG-71.png,0.4,1.2,48,0.25,,,,,,,,,,,,,0,19,19,47,1,,,,,,,,,,,,,,,,,,,,,,,,,,,,
,,,,,V2_010,20,Female,2024-03-01_14h01.43.208,jersey_experiment_5_v2,2023.2.2,Win32,85.47008547,,,,,,,,,,,,,,,,693.4337,695.282,695.2821,696.2703,return,0.1311,,74.34895833,,,,,,FBP-RB-18.png,0.35,1.2,36,0.25,,,,,,,,,,,,,0,20,20,35,1,,,,,,,,,,,,,,,,,,,,,,,,,,,,
,,,,,V2_010,20,Female,2024-03-01_14h01.43.208,jersey_experiment_5_v2,2023.2.2,Win32,85.47008547,,,,,,,,,,,,,,,,696.2705,698.1158,698.1158,699.4004,return,0.0951,,49.609375,,,,,,FBP-OG-19.png,0.4,1.2,28,0.25,,,,,,,,,,,,,0,21,21,27,1,,,,,,,,,,,,,,,,,,,,,,,,,,,,
,,,,,V2_010,20,Female,2024-03-01_14h01.43.208,jersey_experiment_5_v2,2023.2.2,Win32,85.47008547,,,,,,,,,,,,,,,,699.4006,701.2453,701.2453,702.4358,return,0.1079,,75.26041667,,,,,,FBP-YG-71.png,0.37,1.2,47,0.25,,,,,,,,,,,,,0,22,22,46,1,,,,,,,,,,,,,,,,,,,,,,,,,,,,
,,,,,V2_010,20,Female,2024-03-01_14h01.43.208,jersey_experiment_5_v2,2023.2.2,Win32,85.47008547,,,,,,,,,,,,,,,,702.4359,704.2777,704.2777,706.0306,return,0.1657,,99.609375,,,,,,FBP-RB-19.png,0.43,1.2,44,0.25,,,,,,,,,,,,,0,23,23,43,1,,,,,,,,,,,,,,,,,,,,,,,,,,,,
,,,,,V2_010,20,Female,2024-03-01_14h01.43.208,jersey_experiment_5_v2,2023.2.2,Win32,85.47008547,,,,,,,,,,,,,,,,706.0308,707.8941,707.8942,709.7367,return,0.2645,,99.609375,,,,,,FBP-OG-18.png,0.45,1.2,25,0.25,,,,,,,,,,,,,0,24,24,24,1,,,,,,,,,,,,,,,,,,,,,,,,,,,,
,,,,,V2_010,20,Female,2024-03-01_14h01.43.208,jersey_experiment_5_v2,2023.2.2,Win32,85.47008547,,,,,,,,,,,,,,,,709.7368,711.8341,711.8341,712.9838,return,0.1945,,75,,,,,,FBP-PT-19.png,0.37,1.2,12,0.5,,,,,,,,,,,,,0,25,25,11,1,,,,,,,,,,,,,,,,,,,,,,,,,,,,
,,,,,V2_010,20,Female,2024-03-01_14h01.43.208,jersey_experiment_5_v2,2023.2.2,Win32,85.47008547,,,,,,,,,,,,,,,,712.9838,714.8309,714.8309,715.4545,return,0.1413,,75,,,,,,FBP-OG-18.png,0.4,1.2,23,0.25,,,,,,,,,,,,,0,26,26,22,1,,,,,,,,,,,,,,,,,,,,,,,,,,,,
,,,,,V2_010,20,Female,2024-03-01_14h01.43.208,jersey_experiment_5_v2,2023.2.2,Win32,85.47008547,,,,,,,,,,,,,,,,715.4547,717.3066,717.3066,721.5017,return,2.3427,,25.390625,,,,,,FBP-OG-18.png,0.37,1.2,22,0.25,,,,,,,,,,,,,0,27,27,21,1,,,,,,,,,,,,,,,,,,,,,,,,,,,,
,,,,,V2_010,20,Female,2024-03-01_14h01.43.208,jersey_experiment_5_v2,2023.2.2,Win32,85.47008547,,,,,,,,,,,,,,,,721.502,723.3637,723.3638,724.6666,return,0.1462,,25.26041667,,,,,,FBP-YG-81.png,0.35,1.2,51,0.25,,,,,,,,,,,,,0,28,28,50,1,,,,,,,,,,,,,,,,,,,,,,,,,,,,
,,,,,V2_010,20,Female,2024-03-01_14h01.43.208,jersey_experiment_5_v2,2023.2.2,Win32,85.47008547,,,,,,,,,,,,,,,,724.6668,726.5255,726.5255,729.008,return,0.1075,,74.86979167,,,,,,FBP-OG-19.png,0.43,1.2,29,0.25,,,,,,,,,,,,,0,29,29,28,1,,,,,,,,,,,,,,,,,,,,,,,,,,,,
,,,,,V2_010,20,Female,2024-03-01_14h01.43.208,jersey_experiment_5_v2,2023.2.2,Win32,85.47008547,,,,,,,,,,,,,,,,729.0082,730.8595,730.8595,731.4483,return,0.1416,,74.86979167,,,,,,FBP-YG-71.png,0.43,1.2,49,0.25,,,,,,,,,,,,,0,30,30,48,1,,,,,,,,,,,,,,,,,,,,,,,,,,,,
,,,,,V2_010,20,Female,2024-03-01_14h01.43.208,jersey_experiment_5_v2,2023.2.2,Win32,85.47008547,,,,,,,,,,,,,,,,731.4484,733.2905,733.2905,734.0367,return,0.0839,,74.86979167,,,,,,FBP-OG-17.png,0.37,1.2,17,0.25,,,,,,,,,,,,,0,31,31,16,1,,,,,,,,,,,,,,,,,,,,,,,,,,,,
,,,,,V2_010,20,Female,2024-03-01_14h01.43.208,jersey_experiment_5_v2,2023.2.2,Win32,85.47008547,,,,,,,,,,,,,,,,734.037,735.882,735.882,736.894,return,0.0944,,50.13020833,,,,,,FBP-OG-19.png,0.35,1.2,26,0.25,,,,,,,,,,,,,0,32,32,25,1,,,,,,,,,,,,,,,,,,,,,,,,,,,,
,,,,,V2_010,20,Female,2024-03-01_14h01.43.208,jersey_experiment_5_v2,2023.2.2,Win32,85.47008547,,,,,,,,,,,,,,,,736.8941,738.7377,738.7377,739.9966,return,0.1429,,75.390625,,,,,,FBP-RB-17.png,0.43,1.2,34,0.25,,,,,,,,,,,,,0,33,33,33,1,,,,,,,,,,,,,,,,,,,,,,,,,,,,
,,,,,V2_010,20,Female,2024-03-01_14h01.43.208,jersey_experiment_5_v2,2023.2.2,Win32,85.47008547,,,,,,,,,,,,,,,,739.9969,741.8437,741.8438,742.5732,return,0.2142,,75.390625,,,,,,FBP-RB-19.png,0.45,1.2,45,0.25,,,,,,,,,,,,,0,34,34,44,1,,,,,,,,,,,,,,,,,,,,,,,,,,,,
,,,,,V2_010,20,Female,2024-03-01_14h01.43.208,jersey_experiment_5_v2,2023.2.2,Win32,85.47008547,,,,,,,,,,,,,,,,742.5732,744.432,744.432,746.3537,return,0.1994,,49.86979167,,,,,,FBP-OG-19.png,0.37,1.2,27,0.25,,,,,,,,,,,,,0,35,35,26,1,,,,,,,,,,,,,,,,,,,,,,,,,,,,
,,,,,V2_010,20,Female,2024-03-01_14h01.43.208,jersey_experiment_5_v2,2023.2.2,Win32,85.47008547,,,,,,,,,,,,,,,,746.3539,748.4603,748.4603,751.0253,return,0.2253,,50.13020833,,,,,,FBP-PT-18.png,0.37,1.2,7,0.5,,,,,,,,,,,,,0,36,36,6,1,,,,,,,,,,,,,,,,,,,,,,,,,,,,
,,,,,V2_010,20,Female,2024-03-01_14h01.43.208,jersey_experiment_5_v2,2023.2.2,Win32,85.47008547,,,,,,,,,,,,,,,,751.0254,752.8839,752.8839,753.8961,return,0.1184,,74.47916667,,,,,,FBP-OG-17.png,0.4,1.2,18,0.25,,,,,,,,,,,,,0,37,37,17,1,,,,,,,,,,,,,,,,,,,,,,,,,,,,
,,,,,V2_010,20,Female,2024-03-01_14h01.43.208,jersey_experiment_5_v2,2023.2.2,Win32,85.47008547,,,,,,,,,,,,,,,,753.8963,755.7418,755.7418,757.2914,return,0.1207,,24.21875,,,,,,FBP-RB-19.png,0.4,1.2,43,0.25,,,,,,,,,,,,,0,38,38,42,1,,,,,,,,,,,,,,,,,,,,,,,,,,,,
,,,,,V2_010,20,Female,2024-03-01_14h01.43.208,jersey_experiment_5_v2,2023.2.2,Win32,85.47008547,,,,,,,,,,,,,,,,757.2916,759.1536,759.1537,760.3537,return,0.0944,,24.86979167,,,,,,FBP-YG-91.png,0.4,1.2,58,0.25,,,,,,,,,,,,,0,39,39,57,1,,,,,,,,,,,,,,,,,,,,,,,,,,,,
,,,,,V2_010,20,Female,2024-03-01_14h01.43.208,jersey_experiment_5_v2,2023.2.2,Win32,85.47008547,,,,,,,,,,,,,,,,760.3538,762.2125,762.2125,763.1537,return,0.128,,25,,,,,,FBP-YG-81.png,0.37,1.2,52,0.25,,,,,,,,,,,,,0,40,40,51,1,,,,,,,,,,,,,,,,,,,,,,,,,,,,
,,,,,V2_010,20,Female,2024-03-01_14h01.43.208,jersey_experiment_5_v2,2023.2.2,Win32,85.47008547,,,,,,,,,,,,,,,,763.1538,765.0124,765.0124,766.2254,return,0.0939,,75,,,,,,FBP-YG-81.png,0.45,1.2,55,0.25,,,,,,,,,,,,,0,41,41,54,1,,,,,,,,,,,,,,,,,,,,,,,,,,,,
,,,,,V2_010,20,Female,2024-03-01_14h01.43.208,jersey_experiment_5_v2,2023.2.2,Win32,85.47008547,,,,,,,,,,,,,,,,766.2256,768.3388,768.3388,768.9083,return,0.1541,,75,,,,,,FBP-PT-18.png,0.45,1.2,10,0.5,,,,,,,,,,,,,0,42,42,9,1,,,,,,,,,,,,,,,,,,,,,,,,,,,,
,,,,,V2_010,20,Female,2024-03-01_14h01.43.208,jersey_experiment_5_v2,2023.2.2,Win32,85.47008547,,,,,,,,,,,,,,,,768.9084,770.754,770.754,771.4498,return,0.1781,,75,,,,,,FBP-RB-17.png,0.35,1.2,31,0.25,,,,,,,,,,,,,0,43,43,30,1,,,,,,,,,,,,,,,,,,,,,,,,,,,,
,,,,,V2_010,20,Female,2024-03-01_14h01.43.208,jersey_experiment_5_v2,2023.2.2,Win32,85.47008547,,,,,,,,,,,,,,,,771.4499,773.3036,773.3037,773.8839,return,0.1756,,75,,,,,,FBP-OG-18.png,0.43,1.2,24,0.25,,,,,,,,,,,,,0,44,44,23,1,,,,,,,,,,,,,,,,,,,,,,,,,,,,
,,,,,V2_010,20,Female,2024-03-01_14h01.43.208,jersey_experiment_5_v2,2023.2.2,Win32,85.47008547,,,,,,,,,,,,,,,,773.8841,775.732,775.732,776.5862,return,0.2055,,75,,,,,,FBP-OG-17.png,0.43,1.2,19,0.25,,,,,,,,,,,,,0,45,45,18,1,,,,,,,,,,,,,,,,,,,,,,,,,,,,
,,,,,V2_010,20,Female,2024-03-01_14h01.43.208,jersey_experiment_5_v2,2023.2.2,Win32,85.47008547,,,,,,,,,,,,,,,,776.5864,778.6835,778.6836,780.4147,return,0.1781,,24.47916667,,,,,,FBP-PT-17.png,0.45,1.2,5,0.5,,,,,,,,,,,,,0,46,46,4,1,,,,,,,,,,,,,,,,,,,,,,,,,,,,
,,,,,V2_010,20,Female,2024-03-01_14h01.43.208,jersey_experiment_5_v2,2023.2.2,Win32,85.47008547,,,,,,,,,,,,,,,,780.4148,782.26,782.2601,783.5983,return,0.1546,,25.26041667,,,,,,FBP-OG-17.png,0.35,1.2,16,0.25,,,,,,,,,,,,,0,47,47,15,1,,,,,,,,,,,,,,,,,,,,,,,,,,,,
,,,,,V2_010,20,Female,2024-03-01_14h01.43.208,jersey_experiment_5_v2,2023.2.2,Win32,85.47008547,,,,,,,,,,,,,,,,783.5985,785.4571,785.4571,787.6252,return,1.1636,,23.95833333,,,,,,FBP-YG-91.png,0.37,1.2,57,0.25,,,,,,,,,,,,,0,48,48,56,1,,,,,,,,,,,,,,,,,,,,,,,,,,,,
,,,,,V2_010,20,Female,2024-03-01_14h01.43.208,jersey_experiment_5_v2,2023.2.2,Win32,85.47008547,,,,,,,,,,,,,,,,787.6254,789.7396,789.7396,792.4152,return,0.2118,,24.47916667,,,,,,FBP-PT-18.png,0.4,1.2,8,0.5,,,,,,,,,,,,,0,49,49,7,1,,,,,,,,,,,,,,,,,,,,,,,,,,,,
,,,,,V2_010,20,Female,2024-03-01_14h01.43.208,jersey_experiment_5_v2,2023.2.2,Win32,85.47008547,,,,,,,,,,,,,,,,792.4153,794.5327,794.5327,798.2846,return,1.271,,25,,,,,,FBP-PT-18.png,0.43,1.2,9,0.5,,,,,,,,,,,,,0,50,50,8,1,,,,,,,,,,,,,,,,,,,,,,,,,,,,
,,,,,V2_010,20,Female,2024-03-01_14h01.43.208,jersey_experiment_5_v2,2023.2.2,Win32,85.47008547,,,,,,,,,,,,,,,,798.2848,800.1433,800.1433,803.6342,return,0.4106,,74.609375,,,,,,FBP-YG-91.png,0.45,1.2,60,0.25,,,,,,,,,,,,,0,51,51,59,1,,,,,,,,,,,,,,,,,,,,,,,,,,,,
,,,,,V2_010,20,Female,2024-03-01_14h01.43.208,jersey_experiment_5_v2,2023.2.2,Win32,85.47008547,,,,,,,,,,,,,,,,803.6343,805.7334,805.7334,807.0614,return,0.0709,,49.47916667,,,,,,FBP-PT-19.png,0.4,1.2,13,0.5,,,,,,,,,,,,,0,52,52,12,1,,,,,,,,,,,,,,,,,,,,,,,,,,,,
,,,,,V2_010,20,Female,2024-03-01_14h01.43.208,jersey_experiment_5_v2,2023.2.2,Win32,85.47008547,,,,,,,,,,,,,,,,807.0615,809.1684,809.1686,810.3792,return,0.1415,,25,,,,,,FBP-PT-18.png,0.35,1.2,6,0.5,,,,,,,,,,,,,0,53,53,5,1,,,,,,,,,,,,,,,,,,,,,,,,,,,,
,,,,,V2_010,20,Female,2024-03-01_14h01.43.208,jersey_experiment_5_v2,2023.2.2,Win32,85.47008547,,,,,,,,,,,,,,,,810.3793,812.2347,812.2347,813.3758,return,0.118,,25,,,,,,FBP-YG-71.png,0.35,1.2,46,0.25,,,,,,,,,,,,,0,54,54,45,1,,,,,,,,,,,,,,,,,,,,,,,,,,,,
,,,,,V2_010,20,Female,2024-03-01_14h01.43.208,jersey_experiment_5_v2,2023.2.2,Win32,85.47008547,,,,,,,,,,,,,,,,813.376,815.2392,815.2393,816.3924,return,0.1178,,24.86979167,,,,,,FBP-RB-17.png,0.37,1.2,32,0.25,,,,,,,,,,,,,0,55,55,31,1,,,,,,,,,,,,,,,,,,,,,,,,,,,,
,,,,,V2_010,20,Female,2024-03-01_14h01.43.208,jersey_experiment_5_v2,2023.2.2,Win32,85.47008547,,,,,,,,,,,,,,,,816.3925,818.2347,818.2347,819.5289,return,0.1694,,24.86979167,,,,,,FBP-YG-91.png,0.43,1.2,59,0.25,,,,,,,,,,,,,0,56,56,58,1,,,,,,,,,,,,,,,,,,,,,,,,,,,,
,,,,,V2_010,20,Female,2024-03-01_14h01.43.208,jersey_experiment_5_v2,2023.2.2,Win32,85.47008547,,,,,,,,,,,,,,,,819.5292,821.6349,821.6349,822.7223,return,0.1646,,25,,,,,,FBP-PT-19.png,0.35,1.2,11,0.5,,,,,,,,,,,,,0,57,57,10,1,,,,,,,,,,,,,,,,,,,,,,,,,,,,
,,,,,V2_010,20,Female,2024-03-01_14h01.43.208,jersey_experiment_5_v2,2023.2.2,Win32,85.47008547,,,,,,,,,,,,,,,,822.7225,824.5676,824.5676,825.9292,return,0.2301,,99.86979167,,,,,,FBP-RB-18.png,0.43,1.2,39,0.25,,,,,,,,,,,,,0,58,58,38,1,,,,,,,,,,,,,,,,,,,,,,,,,,,,
,,,,,V2_010,20,Female,2024-03-01_14h01.43.208,jersey_experiment_5_v2,2023.2.2,Win32,85.47008547,,,,,,,,,,,,,,,,825.9293,828.0351,828.0351,829.1764,return,0.1836,,75.13020833,,,,,,FBP-PT-17.png,0.35,1.2,1,0.5,,,,,,,,,,,,,0,59,59,0,1,,,,,,,,,,,,,,,,,,,,,,,,,,,,
,,,,,V2_010,20,Female,2024-03-01_14h01.43.208,jersey_experiment_5_v2,2023.2.2,Win32,85.47008547,,,,,,,,,,,,,,,,829.1781,831.0235,831.0235,833.1647,return,0.201,,99.609375,,,,,,FBP-RB-91.png,0.45,1.2,45,0.25,,,,,,,,,,,,,,,,,,0,0,0,44,1,,,,,,,,,,,,,,,,,,,,,,,
,,,,,V2_010,20,Female,2024-03-01_14h01.43.208,jersey_experiment_5_v2,2023.2.2,Win32,85.47008547,,,,,,,,,,,,,,,,833.1648,835.0149,835.0149,836.0118,return,0.1311,,75.26041667,,,,,,FBP-YG-19.png,0.4,1.2,58,0.25,,,,,,,,,,,,,,,,,,0,1,1,57,1,,,,,,,,,,,,,,,,,,,,,,,
,,,,,V2_010,20,Female,2024-03-01_14h01.43.208,jersey_experiment_5_v2,2023.2.2,Win32,85.47008547,,,,,,,,,,,,,,,,836.012,837.859,837.859,838.4875,return,0.1306,,75.26041667,,,,,,FBP-OG-81.png,0.35,1.2,21,0.25,,,,,,,,,,,,,,,,,,0,2,2,20,1,,,,,,,,,,,,,,,,,,,,,,,
,,,,,V2_010,20,Female,2024-03-01_14h01.43.208,jersey_experiment_5_v2,2023.2.2,Win32,85.47008547,,,,,,,,,,,,,,,,838.4876,840.3297,840.3297,840.874,return,0.1044,,75.26041667,,,,,,FBP-OG-81.png,0.45,1.2,25,0.25,,,,,,,,,,,,,,,,,,0,3,3,24,1,,,,,,,,,,,,,,,,,,,,,,,
,,,,,V2_010,20,Female,2024-03-01_14h01.43.208,jersey_experiment_5_v2,2023.2.2,Win32,85.47008547,,,,,,,,,,,,,,,,840.8742,842.718,842.7181,843.2881,return,0.1419,,75.26041667,,,,,,FBP-YG-17.png,0.35,1.2,46,0.25,,,,,,,,,,,,,,,,,,0,4,4,45,1,,,,,,,,,,,,,,,,,,,,,,,
,,,,,V2_010,20,Female,2024-03-01_14h01.43.208,jersey_experiment_5_v2,2023.2.2,Win32,85.47008547,,,,,,,,,,,,,,,,843.2883,845.1298,845.1299,846.3571,return,0.0942,,24.86979167,,,,,,FBP-RB-91.png,0.37,1.2,42,0.25,,,,,,,,,,,,,,,,,,0,5,5,41,1,,,,,,,,,,,,,,,,,,,,,,,
,,,,,V2_010,20,Female,2024-03-01_14h01.43.208,jersey_experiment_5_v2,2023.2.2,Win32,85.47008547,,,,,,,,,,,,,,,,846.3572,848.2055,848.2055,848.7182,return,0.0479,,24.86979167,,,,,,FBP-OG-81.png,0.4,1.2,23,0.25,,,,,,,,,,,,,,,,,,0,6,6,22,1,,,,,,,,,,,,,,,,,,,,,,,
,,,,,V2_010,20,Female,2024-03-01_14h01.43.208,jersey_experiment_5_v2,2023.2.2,Win32,85.47008547,,,,,,,,,,,,,,,,848.7183,850.8169,850.8169,852.1349,return,0.7194,,24.86979167,,,,,,FBP-PT-71.png,0.4,1.2,3,0.5,,,,,,,,,,,,,,,,,,0,7,7,2,1,,,,,,,,,,,,,,,,,,,,,,,
,,,,,V2_010,20,Female,2024-03-01_14h01.43.208,jersey_experiment_5_v2,2023.2.2,Win32,85.47008547,,,,,,,,,,,,,,,,852.1351,853.9803,853.9804,855.0995,return,0.2015,,75,,,,,,FBP-OG-71.png,0.43,1.2,19,0.25,,,,,,,,,,,,,,,,,,0,8,8,18,1,,,,,,,,,,,,,,,,,,,,,,,
,,,,,V2_010,20,Female,2024-03-01_14h01.43.208,jersey_experiment_5_v2,2023.2.2,Win32,85.47008547,,,,,,,,,,,,,,,,855.0997,857.2009,857.2009,859.2647,return,0.1414,,25.390625,,,,,,FBP-PT-71.png,0.37,1.2,2,0.5,,,,,,,,,,,,,,,,,,0,9,9,1,1,,,,,,,,,,,,,,,,,,,,,,,
,,,,,V2_010,20,Female,2024-03-01_14h01.43.208,jersey_experiment_5_v2,2023.2.2,Win32,85.47008547,,,,,,,,,,,,,,,,859.2648,861.3776,861.3776,863.9235,return,0.1779,,74.21875,,,,,,FBP-PT-71.png,0.45,1.2,5,0.5,,,,,,,,,,,,,,,,,,0,10,10,4,1,,,,,,,,,,,,,,,,,,,,,,,
,,,,,V2_010,20,Female,2024-03-01_14h01.43.208,jersey_experiment_5_v2,2023.2.2,Win32,85.47008547,,,,,,,,,,,,,,,,863.9237,865.7777,865.7777,866.4522,return,0.1987,,74.21875,,,,,,FBP-OG-81.png,0.43,1.2,24,0.25,,,,,,,,,,,,,,,,,,0,11,11,23,1,,,,,,,,,,,,,,,,,,,,,,,
,,,,,V2_010,20,Female,2024-03-01_14h01.43.208,jersey_experiment_5_v2,2023.2.2,Win32,85.47008547,,,,,,,,,,,,,,,,866.4524,868.3,868.3001,871.5245,return,0.2019,,74.21875,,,,,,FBP-YG-19.png,0.43,1.2,59,0.25,,,,,,,,,,,,,,,,,,0,12,12,58,1,,,,,,,,,,,,,,,,,,,,,,,
,,,,,V2_010,20,Female,2024-03-01_14h01.43.208,jersey_experiment_5_v2,2023.2.2,Win32,85.47008547,,,,,,,,,,,,,,,,871.5247,873.378,873.378,877.0369,return,1.0027,,74.21875,,,,,,FBP-YG-18.png,0.4,1.2,53,0.25,,,,,,,,,,,,,,,,,,0,13,13,52,1,,,,,,,,,,,,,,,,,,,,,,,
,,,,,V2_010,20,Female,2024-03-01_14h01.43.208,jersey_experiment_5_v2,2023.2.2,Win32,85.47008547,,,,,,,,,,,,,,,,877.0371,878.8893,878.8893,879.8538,return,0.1888,,99.609375,,,,,,FBP-RB-71.png,0.45,1.2,35,0.25,,,,,,,,,,,,,,,,,,0,14,14,34,1,,,,,,,,,,,,,,,,,,,,,,,
,,,,,V2_010,20,Female,2024-03-01_14h01.43.208,jersey_experiment_5_v2,2023.2.2,Win32,85.47008547,,,,,,,,,,,,,,,,879.854,881.6989,881.6989,883.0489,return,0.3828,,74.86979167,,,,,,FBP-RB-81.png,0.4,1.2,38,0.25,,,,,,,,,,,,,,,,,,0,15,15,37,1,,,,,,,,,,,,,,,,,,,,,,,
,,,,,V2_010,20,Female,2024-03-01_14h01.43.208,jersey_experiment_5_v2,2023.2.2,Win32,85.47008547,,,,,,,,,,,,,,,,883.0492,884.896,884.8961,885.5666,return,0.1662,,74.86979167,,,,,,FBP-YG-17.png,0.4,1.2,48,0.25,,,,,,,,,,,,,,,,,,0,16,16,47,1,,,,,,,,,,,,,,,,,,,,,,,
,,,,,V2_010,20,Female,2024-03-01_14h01.43.208,jersey_experiment_5_v2,2023.2.2,Win32,85.47008547,,,,,,,,,,,,,,,,885.5669,887.43,887.43,889.3198,return,0.1138,,49.609375,,,,,,FBP-OG-71.png,0.37,1.2,17,0.25,,,,,,,,,,,,,,,,,,0,17,17,16,1,,,,,,,,,,,,,,,,,,,,,,,
,,,,,V2_010,20,Female,2024-03-01_14h01.43.208,jersey_experiment_5_v2,2023.2.2,Win32,85.47008547,,,,,,,,,,,,,,,,889.32,891.1787,891.1788,892.7824,return,0.1888,,73.95833333,,,,,,FBP-RB-71.png,0.4,1.2,33,0.25,,,,,,,,,,,,,,,,,,0,18,18,32,1,,,,,,,,,,,,,,,,,,,,,,,
,,,,,V2_010,20,Female,2024-03-01_14h01.43.208,jersey_experiment_5_v2,2023.2.2,Win32,85.47008547,,,,,,,,,,,,,,,,892.7825,894.6407,894.6407,895.6763,return,0.1045,,25.390625,,,,,,FBP-OG-71.png,0.35,1.2,16,0.25,,,,,,,,,,,,,,,,,,0,19,19,15,1,,,,,,,,,,,,,,,,,,,,,,,
,,,,,V2_010,20,Female,2024-03-01_14h01.43.208,jersey_experiment_5_v2,2023.2.2,Win32,85.47008547,,,,,,,,,,,,,,,,895.6765,897.5317,897.5317,898.1131,return,0.1543,,25.390625,,,,,,FBP-YG-19.png,0.35,1.2,56,0.25,,,,,,,,,,,,,,,,,,0,20,20,55,1,,,,,,,,,,,,,,,,,,,,,,,
,,,,,V2_010,20,Female,2024-03-01_14h01.43.208,jersey_experiment_5_v2,2023.2.2,Win32,85.47008547,,,,,,,,,,,,,,,,898.1132,900.2177,900.2178,901.3084,return,0.1678,,74.34895833,,,,,,FBP-PT-81.png,0.4,1.2,8,0.5,,,,,,,,,,,,,,,,,,0,21,21,7,1,,,,,,,,,,,,,,,,,,,,,,,
,,,,,V2_010,20,Female,2024-03-01_14h01.43.208,jersey_experiment_5_v2,2023.2.2,Win32,85.47008547,,,,,,,,,,,,,,,,901.3085,903.4144,903.4144,903.9591,return,0.1416,,74.34895833,,,,,,FBP-PT-91.png,0.43,1.2,14,0.5,,,,,,,,,,,,,,,,,,0,22,22,13,1,,,,,,,,,,,,,,,,,,,,,,,
,,,,,V2_010,20,Female,2024-03-01_14h01.43.208,jersey_experiment_5_v2,2023.2.2,Win32,85.47008547,,,,,,,,,,,,,,,,903.9593,906.066,906.066,906.8732,return,0.1461,,75.13020833,,,,,,FBP-PT-91.png,0.37,1.2,12,0.5,,,,,,,,,,,,,,,,,,0,23,23,11,1,,,,,,,,,,,,,,,,,,,,,,,
,,,,,V2_010,20,Female,2024-03-01_14h01.43.208,jersey_experiment_5_v2,2023.2.2,Win32,85.47008547,,,,,,,,,,,,,,,,906.8735,908.9793,908.9793,909.9357,return,0.1179,,24.86979167,,,,,,FBP-PT-81.png,0.35,1.2,6,0.5,,,,,,,,,,,,,,,,,,0,24,24,5,1,,,,,,,,,,,,,,,,,,,,,,,
,,,,,V2_010,20,Female,2024-03-01_14h01.43.208,jersey_experiment_5_v2,2023.2.2,Win32,85.47008547,,,,,,,,,,,,,,,,909.9359,911.7839,911.7839,912.3487,return,0.1072,,24.47916667,,,,,,FBP-YG-18.png,0.35,1.2,51,0.25,,,,,,,,,,,,,,,,,,0,25,25,50,1,,,,,,,,,,,,,,,,,,,,,,,
,,,,,V2_010,20,Female,2024-03-01_14h01.43.208,jersey_experiment_5_v2,2023.2.2,Win32,85.47008547,,,,,,,,,,,,,,,,912.3488,914.1946,914.1947,915.0416,return,0.1282,,24.73958333,,,,,,FBP-RB-81.png,0.37,1.2,37,0.25,,,,,,,,,,,,,,,,,,0,26,26,36,1,,,,,,,,,,,,,,,,,,,,,,,
,,,,,V2_010,20,Female,2024-03-01_14h01.43.208,jersey_experiment_5_v2,2023.2.2,Win32,85.47008547,,,,,,,,,,,,,,,,915.0417,916.8972,916.8973,917.7208,return,0.1128,,24.73958333,,,,,,FBP-RB-81.png,0.43,1.2,39,0.25,,,,,,,,,,,,,,,,,,0,27,27,38,1,,,,,,,,,,,,,,,,,,,,,,,
,,,,,V2_010,20,Female,2024-03-01_14h01.43.208,jersey_experiment_5_v2,2023.2.2,Win32,85.47008547,,,,,,,,,,,,,,,,917.721,919.5827,919.5827,920.2031,return,0.1561,,24.86979167,,,,,,FBP-RB-91.png,0.4,1.2,43,0.25,,,,,,,,,,,,,,,,,,0,28,28,42,1,,,,,,,,,,,,,,,,,,,,,,,
,,,,,V2_010,20,Female,2024-03-01_14h01.43.208,jersey_experiment_5_v2,2023.2.2,Win32,85.47008547,,,,,,,,,,,,,,,,920.2033,922.2974,922.2975,922.8621,return,0.0956,,24.86979167,,,,,,FBP-PT-81.png,0.45,1.2,10,0.5,,,,,,,,,,,,,,,,,,0,29,29,9,1,,,,,,,,,,,,,,,,,,,,,,,
,,,,,V2_010,20,Female,2024-03-01_14h01.43.208,jersey_experiment_5_v2,2023.2.2,Win32,85.47008547,,,,,,,,,,,,,,,,922.8623,924.7262,924.7262,925.3142,return,0.1652,,24.86979167,,,,,,FBP-YG-17.png,0.37,1.2,47,0.25,,,,,,,,,,,,,,,,,,0,30,30,46,1,,,,,,,,,,,,,,,,,,,,,,,
,,,,,V2_010,20,Female,2024-03-01_14h01.43.208,jersey_experiment_5_v2,2023.2.2,Win32,85.47008547,,,,,,,,,,,,,,,,925.3144,927.1563,927.1565,928.7261,return,0.1783,,75.390625,,,,,,FBP-OG-71.png,0.4,1.2,18,0.25,,,,,,,,,,,,,,,,,,0,31,31,17,1,,,,,,,,,,,,,,,,,,,,,,,
,,,,,V2_010,20,Female,2024-03-01_14h01.43.208,jersey_experiment_5_v2,2023.2.2,Win32,85.47008547,,,,,,,,,,,,,,,,928.7263,930.8271,930.8272,931.8424,return,0.1177,,49.73958333,,,,,,FBP-PT-81.png,0.37,1.2,7,0.5,,,,,,,,,,,,,,,,,,0,32,32,6,1,,,,,,,,,,,,,,,,,,,,,,,
,,,,,V2_010,20,Female,2024-03-01_14h01.43.208,jersey_experiment_5_v2,2023.2.2,Win32,85.47008547,,,,,,,,,,,,,,,,931.8426,933.6861,933.6861,935.0979,return,0.1809,,74.34895833,,,,,,FBP-RB-81.png,0.35,1.2,36,0.25,,,,,,,,,,,,,,,,,,0,33,33,35,1,,,,,,,,,,,,,,,,,,,,,,,
,,,,,V2_010,20,Female,2024-03-01_14h01.43.208,jersey_experiment_5_v2,2023.2.2,Win32,85.47008547,,,,,,,,,,,,,,,,935.0981,936.9481,936.9481,952.0211,return,3.6477,,74.73958333,,,,,,FBP-RB-71.png,0.37,1.2,32,0.25,,,,,,,,,,,,,,,,,,0,34,34,31,1,,,,,,,,,,,,,,,,,,,,,,,
,,,,,V2_010,20,Female,2024-03-01_14h01.43.208,jersey_experiment_5_v2,2023.2.2,Win32,85.47008547,,,,,,,,,,,,,,,,952.0214,953.8667,953.8667,956.2564,return,0.6018,,24.34895833,,,,,,FBP-RB-91.png,0.35,1.2,41,0.25,,,,,,,,,,,,,,,,,,0,35,35,40,1,,,,,,,,,,,,,,,,,,,,,,,
,,,,,V2_010,20,Female,2024-03-01_14h01.43.208,jersey_experiment_5_v2,2023.2.2,Win32,85.47008547,,,,,,,,,,,,,,,,956.2565,958.1018,958.1018,959.1458,return,0.2046,,74.609375,,,,,,FBP-YG-18.png,0.43,1.2,54,0.25,,,,,,,,,,,,,,,,,,0,36,36,53,1,,,,,,,,,,,,,,,,,,,,,,,
,,,,,V2_010,20,Female,2024-03-01_14h01.43.208,jersey_experiment_5_v2,2023.2.2,Win32,85.47008547,,,,,,,,,,,,,,,,959.146,960.9929,960.9929,961.9812,return,0.2838,,75,,,,,,FBP-RB-91.png,0.43,1.2,44,0.25,,,,,,,,,,,,,,,,,,0,37,37,43,1,,,,,,,,,,,,,,,,,,,,,,,
,,,,,V2_010,20,Female,2024-03-01_14h01.43.208,jersey_experiment_5_v2,2023.2.2,Win32,85.47008547,,,,,,,,,,,,,,,,961.9814,963.8435,963.8435,965.0636,return,0.6078,,75,,,,,,FBP-YG-19.png,0.45,1.2,60,0.25,,,,,,,,,,,,,,,,,,0,38,38,59,1,,,,,,,,,,,,,,,,,,,,,,,
,,,,,V2_010,20,Female,2024-03-01_14h01.43.208,jersey_experiment_5_v2,2023.2.2,Win32,85.47008547,,,,,,,,,,,,,,,,965.0638,967.1696,967.1696,968.4755,return,0.1096,,24.609375,,,,,,FBP-PT-91.png,0.45,1.2,15,0.5,,,,,,,,,,,,,,,,,,0,39,39,14,1,,,,,,,,,,,,,,,,,,,,,,,
,,,,,V2_010,20,Female,2024-03-01_14h01.43.208,jersey_experiment_5_v2,2023.2.2,Win32,85.47008547,,,,,,,,,,,,,,,,968.4758,970.5815,970.5815,972.7934,return,0.322,,75.91145833,,,,,,FBP-PT-71.png,0.43,1.2,4,0.5,,,,,,,,,,,,,,,,,,0,40,40,3,1,,,,,,,,,,,,,,,,,,,,,,,
,,,,,V2_010,20,Female,2024-03-01_14h01.43.208,jersey_experiment_5_v2,2023.2.2,Win32,85.47008547,,,,,,,,,,,,,,,,972.7935,974.6406,974.6406,976.3382,return,0.3298,,24.21875,,,,,,FBP-OG-81.png,0.37,1.2,22,0.25,,,,,,,,,,,,,,,,,,0,41,41,21,1,,,,,,,,,,,,,,,,,,,,,,,
,,,,,V2_010,20,Female,2024-03-01_14h01.43.208,jersey_experiment_5_v2,2023.2.2,Win32,85.47008547,,,,,,,,,,,,,,,,976.3383,978.1937,978.1938,980.5499,return,1.3752,,25.26041667,,,,,,FBP-OG-91.png,0.4,1.2,28,0.25,,,,,,,,,,,,,,,,,,0,42,42,27,1,,,,,,,,,,,,,,,,,,,,,,,
,,,,,V2_010,20,Female,2024-03-01_14h01.43.208,jersey_experiment_5_v2,2023.2.2,Win32,85.47008547,,,,,,,,,,,,,,,,980.5501,982.3937,982.3937,984.3753,return,0.471,,74.609375,,,,,,FBP-OG-71.png,0.45,1.2,20,0.25,,,,,,,,,,,,,,,,,,0,43,43,19,1,,,,,,,,,,,,,,,,,,,,,,,
,,,,,V2_010,20,Female,2024-03-01_14h01.43.208,jersey_experiment_5_v2,2023.2.2,Win32,85.47008547,,,,,,,,,,,,,,,,984.3755,986.2174,986.2175,987.4681,return,0.1047,,99.86979167,,,,,,FBP-RB-81.png,0.45,1.2,40,0.25,,,,,,,,,,,,,,,,,,0,44,44,39,1,,,,,,,,,,,,,,,,,,,,,,,
,,,,,V2_010,20,Female,2024-03-01_14h01.43.208,jersey_experiment_5_v2,2023.2.2,Win32,85.47008547,,,,,,,,,,,,,,,,987.4683,989.3163,989.3164,990.1641,return,0.1182,,75.52083333,,,,,,FBP-YG-17.png,0.43,1.2,49,0.25,,,,,,,,,,,,,,,,,,0,45,45,48,1,,,,,,,,,,,,,,,,,,,,,,,
,,,,,V2_010,20,Female,2024-03-01_14h01.43.208,jersey_experiment_5_v2,2023.2.2,Win32,85.47008547,,,,,,,,,,,,,,,,990.1643,992.0176,992.0176,992.6647,return,0.1129,,75.52083333,,,,,,FBP-OG-91.png,0.37,1.2,27,0.25,,,,,,,,,,,,,,,,,,0,46,46,26,1,,,,,,,,,,,,,,,,,,,,,,,
,,,,,V2_010,20,Female,2024-03-01_14h01.43.208,jersey_experiment_5_v2,2023.2.2,Win32,85.47008547,,,,,,,,,,,,,,,,992.6649,994.527,994.527,995.4412,return,0.1312,,23.828125,,,,,,FBP-RB-71.png,0.35,1.2,31,0.25,,,,,,,,,,,,,,,,,,0,47,47,30,1,,,,,,,,,,,,,,,,,,,,,,,
,,,,,V2_010,20,Female,2024-03-01_14h01.43.208,jersey_experiment_5_v2,2023.2.2,Win32,85.47008547,,,,,,,,,,,,,,,,995.4415,997.2883,997.2884,997.7708,return,0.087,,24.73958333,,,,,,FBP-OG-91.png,0.45,1.2,30,0.25,,,,,,,,,,,,,,,,,,0,48,48,29,1,,,,,,,,,,,,,,,,,,,,,,,
,,,,,V2_010,20,Female,2024-03-01_14h01.43.208,jersey_experiment_5_v2,2023.2.2,Win32,85.47008547,,,,,,,,,,,,,,,,997.7709,999.6179,999.6179,1000.1743,return,0.1415,,24.73958333,,,,,,FBP-YG-18.png,0.37,1.2,52,0.25,,,,,,,,,,,,,,,,,,0,49,49,51,1,,,,,,,,,,,,,,,,,,,,,,,
,,,,,V2_010,20,Female,2024-03-01_14h01.43.208,jersey_experiment_5_v2,2023.2.2,Win32,85.47008547,,,,,,,,,,,,,,,,1000.1745,1002.0225,1002.0225,1002.6213,return,0.1518,,24.73958333,,,,,,FBP-RB-71.png,0.43,1.2,34,0.25,,,,,,,,,,,,,,,,,,0,50,50,33,1,,,,,,,,,,,,,,,,,,,,,,,
,,,,,V2_010,20,Female,2024-03-01_14h01.43.208,jersey_experiment_5_v2,2023.2.2,Win32,85.47008547,,,,,,,,,,,,,,,,1002.6215,1004.4651,1004.4651,1005.8924,return,0.1182,,75.13020833,,,,,,FBP-YG-18.png,0.45,1.2,55,0.25,,,,,,,,,,,,,,,,,,0,51,51,54,1,,,,,,,,,,,,,,,,,,,,,,,
,,,,,V2_010,20,Female,2024-03-01_14h01.43.208,jersey_experiment_5_v2,2023.2.2,Win32,85.47008547,,,,,,,,,,,,,,,,1005.8926,1007.7358,1007.7358,1008.3389,return,0.0941,,75.13020833,,,,,,FBP-YG-17.png,0.45,1.2,50,0.25,,,,,,,,,,,,,,,,,,0,52,52,49,1,,,,,,,,,,,,,,,,,,,,,,,
,,,,,V2_010,20,Female,2024-03-01_14h01.43.208,jersey_experiment_5_v2,2023.2.2,Win32,85.47008547,,,,,,,,,,,,,,,,1008.3391,1010.4418,1010.4419,1010.9829,return,0.1027,,75.13020833,,,,,,FBP-PT-81.png,0.43,1.2,9,0.5,,,,,,,,,,,,,,,,,,0,53,53,8,1,,,,,,,,,,,,,,,,,,,,,,,
,,,,,V2_010,20,Female,2024-03-01_14h01.43.208,jersey_experiment_5_v2,2023.2.2,Win32,85.47008547,,,,,,,,,,,,,,,,1010.9831,1013.089,1013.089,1013.6473,return,0.1182,,75.13020833,,,,,,FBP-PT-91.png,0.4,1.2,13,0.5,,,,,,,,,,,,,,,,,,0,54,54,12,1,,,,,,,,,,,,,,,,,,,,,,,
,,,,,V2_010,20,Female,2024-03-01_14h01.43.208,jersey_experiment_5_v2,2023.2.2,Win32,85.47008547,,,,,,,,,,,,,,,,1013.6474,1015.5008,1015.5008,1016.3286,return,0.0836,,75.13020833,,,,,,FBP-OG-91.png,0.43,1.2,29,0.25,,,,,,,,,,,,,,,,,,0,55,55,28,1,,,,,,,,,,,,,,,,,,,,,,,
,,,,,V2_010,20,Female,2024-03-01_14h01.43.208,jersey_experiment_5_v2,2023.2.2,Win32,85.47008547,,,,,,,,,,,,,,,,1016.3288,1018.4469,1018.4469,1019.5771,return,0.0714,,24.21875,,,,,,FBP-PT-71.png,0.35,1.2,1,0.5,,,,,,,,,,,,,,,,,,0,56,56,0,1,,,,,,,,,,,,,,,,,,,,,,,
,,,,,V2_010,20,Female,2024-03-01_14h01.43.208,jersey_experiment_5_v2,2023.2.2,Win32,85.47008547,,,,,,,,,,,,,,,,1019.5773,1021.435,1021.435,1022.5128,return,0.0944,,24.73958333,,,,,,FBP-YG-19.png,0.37,1.2,57,0.25,,,,,,,,,,,,,,,,,,0,57,57,56,1,,,,,,,,,,,,,,,,,,,,,,,
,,,,,V2_010,20,Female,2024-03-01_14h01.43.208,jersey_experiment_5_v2,2023.2.2,Win32,85.47008547,,,,,,,,,,,,,,,,1022.5129,1024.622,1024.6221,1025.2814,return,0.0575,,25.13020833,,,,,,FBP-PT-91.png,0.35,1.2,11,0.5,,,,,,,,,,,,,,,,,,0,58,58,10,1,,,,,,,,,,,,,,,,,,,,,,,
,,,,,V2_010,20,Female,2024-03-01_14h01.43.208,jersey_experiment_5_v2,2023.2.2,Win32,85.47008547,,,,,,,,,,,,,,,,1025.2815,1027.1293,1027.1294,1027.906,return,0.06,,25.26041667,,,,,,FBP-OG-91.png,0.35,1.2,26,0.25,,,,,,,,,,,,,,,,,,0,59,59,25,1,,,,,,,,,,,,,,,,,,,,,,,
,,,,,V2_010,20,Female,2024-03-01_14h01.43.208,jersey_experiment_5_v2,2023.2.2,Win32,85.47008547,,,,,,,,,,,,,,,,,,,,,,,,,,,,,,,,,,,,,,,,,,,,,,,,,,,,,,,,1027.9063,1033.5842,return,5.6605,,,,,,,,,,,,,,,,,,,
,,,,,V2_010,20,Female,2024-03-01_14h01.43.208,jersey_experiment_5_v2,2023.2.2,Win32,85.47008547,,,,,,,,,,,,,,,,,,,,,,,,,,,,,,,,,,,,,,,,,,,,,,,,,,,,,,,,,,,,,1033.5842,1039.6243,1,5.3164,return,0.7058,,,,,,,,,,,,
,,,,,V2_010,20,Female,2024-03-01_14h01.43.208,jersey_experiment_5_v2,2023.2.2,Win32,85.47008547,,,,,,,,,,,,,,,,,,,,,,,,,,,,,,,,,,,,,,,,,,,,,,,,,,,,,,,,,,,,,,,,,,,,1039.6243,1058.6363,i think this study is about perceieving ,right,15.114,,,,,,
,,,,,V2_010,20,Female,2024-03-01_14h01.43.208,jersey_experiment_5_v2,2023.2.2,Win32,85.47008547,,,,,,,,,,,,,,,,,,,,,,,,,,,,,,,,,,,,,,,,,,,,,,,,,,,,,,,,,,,,,,,,,,,,,,,,,,1058.6364,1066.6559,return,8,