requirements.started,requirements.stopped,key_resp_3.keys,key_resp_3.rt,key_resp_3.duration,Subject ID,Age,Gender,date,expName,psychopyVersion,OS,frameRate,instructions1.started,instructions1.stopped,key_resp.keys,key_resp.rt,key_resp.duration,example.started,example.stopped,enter_2.keys,enter_2.rt,enter_2.duration,instructions2.started,instructions2.stopped,enter_3.keys,enter_3.rt,enter_3.duration,image.started,image.stopped,slider_2.started,slider_2.stopped,next.keys,next.rt,next.duration,slider.response,trial_block_1.thisRepN,trial_block_1.thisTrialN,trial_block_1.thisN,trial_block_1.thisIndex,trial_block_1.ran,Path,Width,Height,Index,Duration,trial_block_2.thisRepN,trial_block_2.thisTrialN,trial_block_2.thisN,trial_block_2.thisIndex,trial_block_2.ran,rest_break.started,rest_break.stopped,end_break.started,end_break.stopped,key_resp_5.keys,key_resp_5.rt,key_resp_5.duration,trial_block_3.thisRepN,trial_block_3.thisTrialN,trial_block_3.thisN,trial_block_3.thisIndex,trial_block_3.ran,trial_block_4.thisRepN,trial_block_4.thisTrialN,trial_block_4.thisN,trial_block_4.thisIndex,trial_block_4.ran,questions_intro.started,questions_intro.stopped,enter_12.keys,enter_12.rt,enter_12.duration,question2.started,question2.stopped,question_doingbest.response,question_doingbest.rt,enter_15.keys,enter_15.rt,enter_15.duration,pattern.started,pattern.stopped,pattern_2.text,enter_17.keys,enter_17.rt,enter_17.duration,thankyou.started,thankyou.stopped,enter_14.keys,enter_14.rt,enter_14.duration
0.0002,8.4334,return,8.4247,,V2_001,19,Female,2024-02-27_13h05.38.251,jersey_experiment_5_v2,2023.2.2,Win32,84.74576271,,,,,,,,,,,,,,,,,,,,,,,,,,,,,,,,,,,,,,,,,,,,,,,,,,,,,,,,,,,,,,,,,,,,,,,,,,,,,,
,,,,,V2_001,19,Female,2024-02-27_13h05.38.251,jersey_experiment_5_v2,2023.2.2,Win32,84.74576271,8.4335,14.4805,return,6.035,,,,,,,,,,,,,,,,,,,,,,,,,,,,,,,,,,,,,,,,,,,,,,,,,,,,,,,,,,,,,,,,,,,,,,,,,,
,,,,,V2_001,19,Female,2024-02-27_13h05.38.251,jersey_experiment_5_v2,2023.2.2,Win32,84.74576271,,,,,,14.4806,18.2217,return,3.709,,,,,,,,,,,,,,,,,,,,,,,,,,,,,,,,,,,,,,,,,,,,,,,,,,,,,,,,,,,,,,,,,,,,,
,,,,,V2_001,19,Female,2024-02-27_13h05.38.251,jersey_experiment_5_v2,2023.2.2,Win32,84.74576271,,,,,,,,,,,18.2219,27.387,return,9.1584,,,,,,,,,,,,,,,,,,,,,,,,,,,,,,,,,,,,,,,,,,,,,,,,,,,,,,,,,,,,,,,,
,,,,,V2_001,19,Female,2024-02-27_13h05.38.251,jersey_experiment_5_v2,2023.2.2,Win32,84.74576271,,,,,,,,,,,,,,,,27.3949,29.5045,29.5047,37.0342,return,2.9245,,50.91145833,0,0,0,24,1,FBP-OG-18.png,0.45,1.2,25,0.5,,,,,,,,,,,,,,,,,,,,,,,,,,,,,,,,,,,,,,,,,,,,,
,,,,,V2_001,19,Female,2024-02-27_13h05.38.251,jersey_experiment_5_v2,2023.2.2,Win32,84.74576271,,,,,,,,,,,,,,,,37.0345,39.1284,39.1284,41.8225,return,1.0153,,1.041666667,0,1,1,15,1,FBP-OG-17.png,0.35,1.2,16,0.5,,,,,,,,,,,,,,,,,,,,,,,,,,,,,,,,,,,,,,,,,,,,,
,,,,,V2_001,19,Female,2024-02-27_13h05.38.251,jersey_experiment_5_v2,2023.2.2,Win32,84.74576271,,,,,,,,,,,,,,,,41.8227,43.6698,43.6699,45.3168,return,0.3302,,26.953125,0,2,2,6,1,FBP-PT-18.png,0.37,1.2,7,0.25,,,,,,,,,,,,,,,,,,,,,,,,,,,,,,,,,,,,,,,,,,,,,
,,,,,V2_001,19,Female,2024-02-27_13h05.38.251,jersey_experiment_5_v2,2023.2.2,Win32,84.74576271,,,,,,,,,,,,,,,,45.317,47.4109,47.411,49.4698,return,0.2969,,72.91666667,0,3,3,19,1,FBP-OG-17.png,0.45,1.2,20,0.5,,,,,,,,,,,,,,,,,,,,,,,,,,,,,,,,,,,,,,,,,,,,,
,,,,,V2_001,19,Female,2024-02-27_13h05.38.251,jersey_experiment_5_v2,2023.2.2,Win32,84.74576271,,,,,,,,,,,,,,,,49.4699,51.5641,51.5641,54.1876,return,0.64,,39.453125,0,4,4,37,1,FBP-RB-18.png,0.4,1.2,38,0.5,,,,,,,,,,,,,,,,,,,,,,,,,,,,,,,,,,,,,,,,,,,,,
,,,,,V2_001,19,Female,2024-02-27_13h05.38.251,jersey_experiment_5_v2,2023.2.2,Win32,84.74576271,,,,,,,,,,,,,,,,54.1879,56.0348,56.0349,57.1524,return,0.2029,,24.73958333,0,5,5,10,1,FBP-PT-19.png,0.35,1.2,11,0.25,,,,,,,,,,,,,,,,,,,,,,,,,,,,,,,,,,,,,,,,,,,,,
,,,,,V2_001,19,Female,2024-02-27_13h05.38.251,jersey_experiment_5_v2,2023.2.2,Win32,84.74576271,,,,,,,,,,,,,,,,57.1527,59.2467,59.2468,60.9054,return,0.1367,,72.39583333,0,6,6,18,1,FBP-OG-17.png,0.43,1.2,19,0.5,,,,,,,,,,,,,,,,,,,,,,,,,,,,,,,,,,,,,,,,,,,,,
,,,,,V2_001,19,Female,2024-02-27_13h05.38.251,jersey_experiment_5_v2,2023.2.2,Win32,84.74576271,,,,,,,,,,,,,,,,60.9056,62.9997,62.9997,64.435,return,0.2449,,50.78125,0,7,7,16,1,FBP-OG-17.png,0.37,1.2,17,0.5,,,,,,,,,,,,,,,,,,,,,,,,,,,,,,,,,,,,,,,,,,,,,
,,,,,V2_001,19,Female,2024-02-27_13h05.38.251,jersey_experiment_5_v2,2023.2.2,Win32,84.74576271,,,,,,,,,,,,,,,,64.4352,66.5292,66.5293,67.4704,return,0.1917,,74.86979167,0,8,8,29,1,FBP-OG-19.png,0.45,1.2,30,0.5,,,,,,,,,,,,,,,,,,,,,,,,,,,,,,,,,,,,,,,,,,,,,
,,,,,V2_001,19,Female,2024-02-27_13h05.38.251,jersey_experiment_5_v2,2023.2.2,Win32,84.74576271,,,,,,,,,,,,,,,,67.4706,69.3293,69.3293,71.5883,return,1.046,,68.75,0,9,9,4,1,FBP-PT-17.png,0.45,1.2,5,0.25,,,,,,,,,,,,,,,,,,,,,,,,,,,,,,,,,,,,,,,,,,,,,
,,,,,V2_001,19,Female,2024-02-27_13h05.38.251,jersey_experiment_5_v2,2023.2.2,Win32,84.74576271,,,,,,,,,,,,,,,,71.5885,73.6941,73.6942,75.6943,return,0.191,,51.82291667,0,10,10,57,1,FBP-YG-91.png,0.4,1.2,58,0.5,,,,,,,,,,,,,,,,,,,,,,,,,,,,,,,,,,,,,,,,,,,,,
,,,,,V2_001,19,Female,2024-02-27_13h05.38.251,jersey_experiment_5_v2,2023.2.2,Win32,84.74576271,,,,,,,,,,,,,,,,75.6946,77.8002,77.8003,78.8002,return,0.1312,,74.73958333,0,11,11,54,1,FBP-YG-81.png,0.45,1.2,55,0.5,,,,,,,,,,,,,,,,,,,,,,,,,,,,,,,,,,,,,,,,,,,,,
,,,,,V2_001,19,Female,2024-02-27_13h05.38.251,jersey_experiment_5_v2,2023.2.2,Win32,84.74576271,,,,,,,,,,,,,,,,78.8005,80.8946,80.8946,82.318,return,0.2257,,25.91145833,0,12,12,55,1,FBP-YG-91.png,0.35,1.2,56,0.5,,,,,,,,,,,,,,,,,,,,,,,,,,,,,,,,,,,,,,,,,,,,,
,,,,,V2_001,19,Female,2024-02-27_13h05.38.251,jersey_experiment_5_v2,2023.2.2,Win32,84.74576271,,,,,,,,,,,,,,,,82.3181,84.1652,84.1652,85.0829,return,0.1455,,49.47916667,0,13,13,3,1,FBP-PT-17.png,0.43,1.2,4,0.25,,,,,,,,,,,,,,,,,,,,,,,,,,,,,,,,,,,,,,,,,,,,,
,,,,,V2_001,19,Female,2024-02-27_13h05.38.251,jersey_experiment_5_v2,2023.2.2,Win32,84.74576271,,,,,,,,,,,,,,,,85.0831,87.1771,87.1771,88.5889,return,0.2052,,25.65104167,0,14,14,45,1,FBP-YG-71.png,0.35,1.2,46,0.5,,,,,,,,,,,,,,,,,,,,,,,,,,,,,,,,,,,,,,,,,,,,,
,,,,,V2_001,19,Female,2024-02-27_13h05.38.251,jersey_experiment_5_v2,2023.2.2,Win32,84.74576271,,,,,,,,,,,,,,,,88.5891,90.6833,90.6833,92.189,return,0.205,,49.47916667,0,15,15,49,1,FBP-YG-71.png,0.45,1.2,50,0.5,,,,,,,,,,,,,,,,,,,,,,,,,,,,,,,,,,,,,,,,,,,,,
,,,,,V2_001,19,Female,2024-02-27_13h05.38.251,jersey_experiment_5_v2,2023.2.2,Win32,84.74576271,,,,,,,,,,,,,,,,92.1891,94.0478,94.0479,95.1185,return,0.2488,,49.47916667,0,16,16,13,1,FBP-PT-19.png,0.43,1.2,14,0.25,,,,,,,,,,,,,,,,,,,,,,,,,,,,,,,,,,,,,,,,,,,,,
,,,,,V2_001,19,Female,2024-02-27_13h05.38.251,jersey_experiment_5_v2,2023.2.2,Win32,84.74576271,,,,,,,,,,,,,,,,95.1187,97.2245,97.2245,98.2833,return,0.3244,,49.47916667,0,17,17,59,1,FBP-YG-91.png,0.45,1.2,60,0.5,,,,,,,,,,,,,,,,,,,,,,,,,,,,,,,,,,,,,,,,,,,,,
,,,,,V2_001,19,Female,2024-02-27_13h05.38.251,jersey_experiment_5_v2,2023.2.2,Win32,84.74576271,,,,,,,,,,,,,,,,98.2835,100.3892,100.3893,101.1658,return,0.1797,,49.47916667,0,18,18,34,1,FBP-RB-17.png,0.45,1.2,35,0.5,,,,,,,,,,,,,,,,,,,,,,,,,,,,,,,,,,,,,,,,,,,,,
,,,,,V2_001,19,Female,2024-02-27_13h05.38.251,jersey_experiment_5_v2,2023.2.2,Win32,84.74576271,,,,,,,,,,,,,,,,101.166,103.2601,103.2601,105.5189,return,0.2247,,36.97916667,0,19,19,21,1,FBP-OG-18.png,0.37,1.2,22,0.5,,,,,,,,,,,,,,,,,,,,,,,,,,,,,,,,,,,,,,,,,,,,,
,,,,,V2_001,19,Female,2024-02-27_13h05.38.251,jersey_experiment_5_v2,2023.2.2,Win32,84.74576271,,,,,,,,,,,,,,,,105.5191,107.6131,107.6131,108.5072,return,0.2057,,36.97916667,0,20,20,26,1,FBP-OG-19.png,0.37,1.2,27,0.5,,,,,,,,,,,,,,,,,,,,,,,,,,,,,,,,,,,,,,,,,,,,,
,,,,,V2_001,19,Female,2024-02-27_13h05.38.251,jersey_experiment_5_v2,2023.2.2,Win32,84.74576271,,,,,,,,,,,,,,,,108.5074,110.6014,110.6015,111.3779,return,0.2119,,36.97916667,0,21,21,52,1,FBP-YG-81.png,0.4,1.2,53,0.5,,,,,,,,,,,,,,,,,,,,,,,,,,,,,,,,,,,,,,,,,,,,,
,,,,,V2_001,19,Female,2024-02-27_13h05.38.251,jersey_experiment_5_v2,2023.2.2,Win32,84.74576271,,,,,,,,,,,,,,,,111.3781,113.484,113.484,114.178,return,0.1981,,36.97916667,0,22,22,36,1,FBP-RB-18.png,0.37,1.2,37,0.5,,,,,,,,,,,,,,,,,,,,,,,,,,,,,,,,,,,,,,,,,,,,,
,,,,,V2_001,19,Female,2024-02-27_13h05.38.251,jersey_experiment_5_v2,2023.2.2,Win32,84.74576271,,,,,,,,,,,,,,,,114.1781,116.284,116.284,116.9546,return,0.2427,,36.97916667,0,23,23,22,1,FBP-OG-18.png,0.4,1.2,23,0.5,,,,,,,,,,,,,,,,,,,,,,,,,,,,,,,,,,,,,,,,,,,,,
,,,,,V2_001,19,Female,2024-02-27_13h05.38.251,jersey_experiment_5_v2,2023.2.2,Win32,84.74576271,,,,,,,,,,,,,,,,116.9547,119.0488,119.0488,120.0606,return,0.1468,,24.609375,0,24,24,56,1,FBP-YG-91.png,0.37,1.2,57,0.5,,,,,,,,,,,,,,,,,,,,,,,,,,,,,,,,,,,,,,,,,,,,,
,,,,,V2_001,19,Female,2024-02-27_13h05.38.251,jersey_experiment_5_v2,2023.2.2,Win32,84.74576271,,,,,,,,,,,,,,,,120.0608,122.1549,122.1549,123.0608,return,0.1543,,49.34895833,0,25,25,33,1,FBP-RB-17.png,0.43,1.2,34,0.5,,,,,,,,,,,,,,,,,,,,,,,,,,,,,,,,,,,,,,,,,,,,,
,,,,,V2_001,19,Female,2024-02-27_13h05.38.251,jersey_experiment_5_v2,2023.2.2,Win32,84.74576271,,,,,,,,,,,,,,,,123.0609,124.9196,124.9196,126.5903,return,0.204,,62.23958333,0,26,26,8,1,FBP-PT-18.png,0.43,1.2,9,0.25,,,,,,,,,,,,,,,,,,,,,,,,,,,,,,,,,,,,,,,,,,,,,
,,,,,V2_001,19,Female,2024-02-27_13h05.38.251,jersey_experiment_5_v2,2023.2.2,Win32,84.74576271,,,,,,,,,,,,,,,,126.5904,128.6846,128.6846,129.5316,return,0.1228,,73.828125,0,27,27,43,1,FBP-RB-19.png,0.43,1.2,44,0.5,,,,,,,,,,,,,,,,,,,,,,,,,,,,,,,,,,,,,,,,,,,,,
,,,,,V2_001,19,Female,2024-02-27_13h05.38.251,jersey_experiment_5_v2,2023.2.2,Win32,84.74576271,,,,,,,,,,,,,,,,129.5318,131.3787,131.3787,132.5435,return,0.1412,,49.73958333,0,28,28,1,1,FBP-PT-17.png,0.37,1.2,2,0.25,,,,,,,,,,,,,,,,,,,,,,,,,,,,,,,,,,,,,,,,,,,,,
,,,,,V2_001,19,Female,2024-02-27_13h05.38.251,jersey_experiment_5_v2,2023.2.2,Win32,84.74576271,,,,,,,,,,,,,,,,132.5437,134.6376,134.6377,135.2847,return,0.1882,,49.73958333,0,29,29,27,1,FBP-OG-19.png,0.4,1.2,28,0.5,,,,,,,,,,,,,,,,,,,,,,,,,,,,,,,,,,,,,,,,,,,,,
,,,,,V2_001,19,Female,2024-02-27_13h05.38.251,jersey_experiment_5_v2,2023.2.2,Win32,84.74576271,,,,,,,,,,,,,,,,135.2848,137.379,137.379,138.7555,return,0.1419,,26.5625,0,30,30,35,1,FBP-RB-18.png,0.35,1.2,36,0.5,,,,,,,,,,,,,,,,,,,,,,,,,,,,,,,,,,,,,,,,,,,,,
,,,,,V2_001,19,Female,2024-02-27_13h05.38.251,jersey_experiment_5_v2,2023.2.2,Win32,84.74576271,,,,,,,,,,,,,,,,138.7556,140.8497,140.8497,142.0026,return,0.1187,,63.15104167,0,31,31,58,1,FBP-YG-91.png,0.43,1.2,59,0.5,,,,,,,,,,,,,,,,,,,,,,,,,,,,,,,,,,,,,,,,,,,,,
,,,,,V2_001,19,Female,2024-02-27_13h05.38.251,jersey_experiment_5_v2,2023.2.2,Win32,84.74576271,,,,,,,,,,,,,,,,142.0028,144.1085,144.1085,144.7086,return,0.1649,,63.15104167,0,32,32,47,1,FBP-YG-71.png,0.4,1.2,48,0.5,,,,,,,,,,,,,,,,,,,,,,,,,,,,,,,,,,,,,,,,,,,,,
,,,,,V2_001,19,Female,2024-02-27_13h05.38.251,jersey_experiment_5_v2,2023.2.2,Win32,84.74576271,,,,,,,,,,,,,,,,144.7088,146.5557,146.5558,147.3793,return,0.103,,74.21875,0,33,33,9,1,FBP-PT-18.png,0.45,1.2,10,0.25,,,,,,,,,,,,,,,,,,,,,,,,,,,,,,,,,,,,,,,,,,,,,
,,,,,V2_001,19,Female,2024-02-27_13h05.38.251,jersey_experiment_5_v2,2023.2.2,Win32,84.74576271,,,,,,,,,,,,,,,,147.3794,149.4736,149.4736,150.1912,return,0.1558,,42.44791667,0,34,34,20,1,FBP-OG-18.png,0.35,1.2,21,0.5,,,,,,,,,,,,,,,,,,,,,,,,,,,,,,,,,,,,,,,,,,,,,
,,,,,V2_001,19,Female,2024-02-27_13h05.38.251,jersey_experiment_5_v2,2023.2.2,Win32,84.74576271,,,,,,,,,,,,,,,,150.1914,152.0382,152.0383,153.0265,return,0.1886,,59.89583333,0,35,35,12,1,FBP-PT-19.png,0.4,1.2,13,0.25,,,,,,,,,,,,,,,,,,,,,,,,,,,,,,,,,,,,,,,,,,,,,
,,,,,V2_001,19,Female,2024-02-27_13h05.38.251,jersey_experiment_5_v2,2023.2.2,Win32,84.74576271,,,,,,,,,,,,,,,,153.0267,154.8738,154.8739,155.6502,return,0.0839,,37.63020833,0,36,36,0,1,FBP-PT-17.png,0.35,1.2,1,0.25,,,,,,,,,,,,,,,,,,,,,,,,,,,,,,,,,,,,,,,,,,,,,
,,,,,V2_001,19,Female,2024-02-27_13h05.38.251,jersey_experiment_5_v2,2023.2.2,Win32,84.74576271,,,,,,,,,,,,,,,,155.6504,157.4972,157.4972,158.1796,return,0.1513,,50.91145833,0,37,37,7,1,FBP-PT-18.png,0.4,1.2,8,0.25,,,,,,,,,,,,,,,,,,,,,,,,,,,,,,,,,,,,,,,,,,,,,
,,,,,V2_001,19,Female,2024-02-27_13h05.38.251,jersey_experiment_5_v2,2023.2.2,Win32,84.74576271,,,,,,,,,,,,,,,,158.1798,160.0268,160.0269,160.4974,return,0.085,,49.08854167,0,38,38,11,1,FBP-PT-19.png,0.37,1.2,12,0.25,,,,,,,,,,,,,,,,,,,,,,,,,,,,,,,,,,,,,,,,,,,,,
,,,,,V2_001,19,Female,2024-02-27_13h05.38.251,jersey_experiment_5_v2,2023.2.2,Win32,84.74576271,,,,,,,,,,,,,,,,160.4976,162.5916,162.5916,163.1563,return,0.1414,,49.08854167,0,39,39,31,1,FBP-RB-17.png,0.37,1.2,32,0.5,,,,,,,,,,,,,,,,,,,,,,,,,,,,,,,,,,,,,,,,,,,,,
,,,,,V2_001,19,Female,2024-02-27_13h05.38.251,jersey_experiment_5_v2,2023.2.2,Win32,84.74576271,,,,,,,,,,,,,,,,163.1566,165.2623,165.2623,166.2035,return,0.1107,,26.04166667,0,40,40,40,1,FBP-RB-19.png,0.35,1.2,41,0.5,,,,,,,,,,,,,,,,,,,,,,,,,,,,,,,,,,,,,,,,,,,,,
,,,,,V2_001,19,Female,2024-02-27_13h05.38.251,jersey_experiment_5_v2,2023.2.2,Win32,84.74576271,,,,,,,,,,,,,,,,166.2037,168.2977,168.2977,169.2507,return,0.1891,,37.36979167,0,41,41,46,1,FBP-YG-71.png,0.37,1.2,47,0.5,,,,,,,,,,,,,,,,,,,,,,,,,,,,,,,,,,,,,,,,,,,,,
,,,,,V2_001,19,Female,2024-02-27_13h05.38.251,jersey_experiment_5_v2,2023.2.2,Win32,84.74576271,,,,,,,,,,,,,,,,169.2508,171.3566,171.3566,172.2037,return,0.1346,,23.828125,0,42,42,25,1,FBP-OG-19.png,0.35,1.2,26,0.5,,,,,,,,,,,,,,,,,,,,,,,,,,,,,,,,,,,,,,,,,,,,,
,,,,,V2_001,19,Female,2024-02-27_13h05.38.251,jersey_experiment_5_v2,2023.2.2,Win32,84.74576271,,,,,,,,,,,,,,,,172.2039,174.3098,174.3098,175.5803,return,0.1349,,71.484375,0,43,43,44,1,FBP-RB-19.png,0.45,1.2,45,0.5,,,,,,,,,,,,,,,,,,,,,,,,,,,,,,,,,,,,,,,,,,,,,
,,,,,V2_001,19,Female,2024-02-27_13h05.38.251,jersey_experiment_5_v2,2023.2.2,Win32,84.74576271,,,,,,,,,,,,,,,,175.5806,177.686,177.6861,178.2861,return,0.1804,,71.484375,0,44,44,28,1,FBP-OG-19.png,0.43,1.2,29,0.5,,,,,,,,,,,,,,,,,,,,,,,,,,,,,,,,,,,,,,,,,,,,,
,,,,,V2_001,19,Female,2024-02-27_13h05.38.251,jersey_experiment_5_v2,2023.2.2,Win32,84.74576271,,,,,,,,,,,,,,,,178.2863,180.3922,180.3922,181.5687,return,0.7414,,71.484375,0,45,45,39,1,FBP-RB-18.png,0.45,1.2,40,0.5,,,,,,,,,,,,,,,,,,,,,,,,,,,,,,,,,,,,,,,,,,,,,
,,,,,V2_001,19,Female,2024-02-27_13h05.38.251,jersey_experiment_5_v2,2023.2.2,Win32,84.74576271,,,,,,,,,,,,,,,,181.5689,183.6629,183.6629,185.0866,return,0.1798,,49.86979167,0,46,46,51,1,FBP-YG-81.png,0.37,1.2,52,0.5,,,,,,,,,,,,,,,,,,,,,,,,,,,,,,,,,,,,,,,,,,,,,
,,,,,V2_001,19,Female,2024-02-27_13h05.38.251,jersey_experiment_5_v2,2023.2.2,Win32,84.74576271,,,,,,,,,,,,,,,,185.0868,186.9338,186.9338,187.7101,return,0.0978,,36.58854167,0,47,47,5,1,FBP-PT-18.png,0.35,1.2,6,0.25,,,,,,,,,,,,,,,,,,,,,,,,,,,,,,,,,,,,,,,,,,,,,
,,,,,V2_001,19,Female,2024-02-27_13h05.38.251,jersey_experiment_5_v2,2023.2.2,Win32,84.74576271,,,,,,,,,,,,,,,,187.7103,189.8161,189.8161,191.0866,return,0.1564,,50,0,48,48,32,1,FBP-RB-17.png,0.4,1.2,33,0.5,,,,,,,,,,,,,,,,,,,,,,,,,,,,,,,,,,,,,,,,,,,,,
,,,,,V2_001,19,Female,2024-02-27_13h05.38.251,jersey_experiment_5_v2,2023.2.2,Win32,84.74576271,,,,,,,,,,,,,,,,191.0869,193.1811,193.1811,194.2869,return,0.1091,,35.546875,0,49,49,50,1,FBP-YG-81.png,0.35,1.2,51,0.5,,,,,,,,,,,,,,,,,,,,,,,,,,,,,,,,,,,,,,,,,,,,,
,,,,,V2_001,19,Female,2024-02-27_13h05.38.251,jersey_experiment_5_v2,2023.2.2,Win32,84.74576271,,,,,,,,,,,,,,,,194.2872,196.3928,196.3928,197.3458,return,0.1072,,39.0625,0,50,50,17,1,FBP-OG-17.png,0.4,1.2,18,0.5,,,,,,,,,,,,,,,,,,,,,,,,,,,,,,,,,,,,,,,,,,,,,
,,,,,V2_001,19,Female,2024-02-27_13h05.38.251,jersey_experiment_5_v2,2023.2.2,Win32,84.74576271,,,,,,,,,,,,,,,,197.346,199.1929,199.1929,200.1694,return,0.1379,,63.41145833,0,51,51,14,1,FBP-PT-19.png,0.45,1.2,15,0.25,,,,,,,,,,,,,,,,,,,,,,,,,,,,,,,,,,,,,,,,,,,,,
,,,,,V2_001,19,Female,2024-02-27_13h05.38.251,jersey_experiment_5_v2,2023.2.2,Win32,84.74576271,,,,,,,,,,,,,,,,200.1696,202.0166,202.0166,202.7342,return,0.1332,,48.95833333,0,52,52,2,1,FBP-PT-17.png,0.4,1.2,3,0.25,,,,,,,,,,,,,,,,,,,,,,,,,,,,,,,,,,,,,,,,,,,,,
,,,,,V2_001,19,Female,2024-02-27_13h05.38.251,jersey_experiment_5_v2,2023.2.2,Win32,84.74576271,,,,,,,,,,,,,,,,202.7345,204.8284,204.8285,205.8048,return,0.0758,,28.64583333,0,53,53,30,1,FBP-RB-17.png,0.35,1.2,31,0.5,,,,,,,,,,,,,,,,,,,,,,,,,,,,,,,,,,,,,,,,,,,,,
,,,,,V2_001,19,Female,2024-02-27_13h05.38.251,jersey_experiment_5_v2,2023.2.2,Win32,84.74576271,,,,,,,,,,,,,,,,205.8049,207.8991,207.8991,209.3109,return,0.1782,,62.109375,0,54,54,53,1,FBP-YG-81.png,0.43,1.2,54,0.5,,,,,,,,,,,,,,,,,,,,,,,,,,,,,,,,,,,,,,,,,,,,,
,,,,,V2_001,19,Female,2024-02-27_13h05.38.251,jersey_experiment_5_v2,2023.2.2,Win32,84.74576271,,,,,,,,,,,,,,,,209.3111,211.4052,211.4053,212.2875,return,0.132,,42.1875,0,55,55,41,1,FBP-RB-19.png,0.37,1.2,42,0.5,,,,,,,,,,,,,,,,,,,,,,,,,,,,,,,,,,,,,,,,,,,,,
,,,,,V2_001,19,Female,2024-02-27_13h05.38.251,jersey_experiment_5_v2,2023.2.2,Win32,84.74576271,,,,,,,,,,,,,,,,212.2878,214.3818,214.3818,215.2758,return,0.1591,,60.02604167,0,56,56,38,1,FBP-RB-18.png,0.43,1.2,39,0.5,,,,,,,,,,,,,,,,,,,,,,,,,,,,,,,,,,,,,,,,,,,,,
,,,,,V2_001,19,Female,2024-02-27_13h05.38.251,jersey_experiment_5_v2,2023.2.2,Win32,84.74576271,,,,,,,,,,,,,,,,215.2761,217.3818,217.3818,218.523,return,0.2161,,49.73958333,0,57,57,42,1,FBP-RB-19.png,0.4,1.2,43,0.5,,,,,,,,,,,,,,,,,,,,,,,,,,,,,,,,,,,,,,,,,,,,,
,,,,,V2_001,19,Female,2024-02-27_13h05.38.251,jersey_experiment_5_v2,2023.2.2,Win32,84.74576271,,,,,,,,,,,,,,,,218.5232,220.6172,220.6173,221.3465,return,0.155,,63.54166667,0,58,58,48,1,FBP-YG-71.png,0.43,1.2,49,0.5,,,,,,,,,,,,,,,,,,,,,,,,,,,,,,,,,,,,,,,,,,,,,
,,,,,V2_001,19,Female,2024-02-27_13h05.38.251,jersey_experiment_5_v2,2023.2.2,Win32,84.74576271,,,,,,,,,,,,,,,,221.3467,223.4526,223.4526,224.7703,return,0.9651,,63.41145833,0,59,59,23,1,FBP-OG-18.png,0.43,1.2,24,0.5,,,,,,,,,,,,,,,,,,,,,,,,,,,,,,,,,,,,,,,,,,,,,
,,,,,V2_001,19,Female,2024-02-27_13h05.38.251,jersey_experiment_5_v2,2023.2.2,Win32,84.74576271,,,,,,,,,,,,,,,,224.7724,226.6176,226.6176,227.5469,return,0.159,,36.19791667,,,,,,FBP-PT-91.png,0.37,1.2,12,0.25,0,0,0,11,1,,,,,,,,,,,,,,,,,,,,,,,,,,,,,,,,,,,,,,,,
,,,,,V2_001,19,Female,2024-02-27_13h05.38.251,jersey_experiment_5_v2,2023.2.2,Win32,84.74576271,,,,,,,,,,,,,,,,227.5472,229.6531,229.6531,230.3353,return,0.1664,,62.36979167,,,,,,FBP-YG-18.png,0.43,1.2,54,0.5,0,1,1,53,1,,,,,,,,,,,,,,,,,,,,,,,,,,,,,,,,,,,,,,,,
,,,,,V2_001,19,Female,2024-02-27_13h05.38.251,jersey_experiment_5_v2,2023.2.2,Win32,84.74576271,,,,,,,,,,,,,,,,230.3356,232.1943,232.1944,233.2411,return,0.1498,,38.54166667,,,,,,FBP-PT-71.png,0.37,1.2,2,0.25,0,2,2,1,1,,,,,,,,,,,,,,,,,,,,,,,,,,,,,,,,,,,,,,,,
,,,,,V2_001,19,Female,2024-02-27_13h05.38.251,jersey_experiment_5_v2,2023.2.2,Win32,84.74576271,,,,,,,,,,,,,,,,233.2412,235.3354,235.3354,236.1002,return,0.2126,,52.60416667,,,,,,FBP-YG-17.png,0.43,1.2,49,0.5,0,3,3,48,1,,,,,,,,,,,,,,,,,,,,,,,,,,,,,,,,,,,,,,,,
,,,,,V2_001,19,Female,2024-02-27_13h05.38.251,jersey_experiment_5_v2,2023.2.2,Win32,84.74576271,,,,,,,,,,,,,,,,236.1004,238.1944,238.1945,238.7707,return,0.1513,,46.09375,,,,,,FBP-RB-81.png,0.43,1.2,39,0.5,0,4,4,38,1,,,,,,,,,,,,,,,,,,,,,,,,,,,,,,,,,,,,,,,,
,,,,,V2_001,19,Female,2024-02-27_13h05.38.251,jersey_experiment_5_v2,2023.2.2,Win32,84.74576271,,,,,,,,,,,,,,,,238.771,240.8766,240.8767,241.9238,return,0.3056,,67.31770833,,,,,,FBP-YG-18.png,0.45,1.2,55,0.5,0,5,5,54,1,,,,,,,,,,,,,,,,,,,,,,,,,,,,,,,,,,,,,,,,
,,,,,V2_001,19,Female,2024-02-27_13h05.38.251,jersey_experiment_5_v2,2023.2.2,Win32,84.74576271,,,,,,,,,,,,,,,,241.924,244.0181,244.0181,246.43,return,0.6041,,67.1875,,,,,,FBP-RB-81.png,0.45,1.2,40,0.5,0,6,6,39,1,,,,,,,,,,,,,,,,,,,,,,,,,,,,,,,,,,,,,,,,
,,,,,V2_001,19,Female,2024-02-27_13h05.38.251,jersey_experiment_5_v2,2023.2.2,Win32,84.74576271,,,,,,,,,,,,,,,,246.4302,248.5243,248.5244,249.3948,return,0.1632,,51.171875,,,,,,FBP-YG-19.png,0.43,1.2,59,0.5,0,7,7,58,1,,,,,,,,,,,,,,,,,,,,,,,,,,,,,,,,,,,,,,,,
,,,,,V2_001,19,Female,2024-02-27_13h05.38.251,jersey_experiment_5_v2,2023.2.2,Win32,84.74576271,,,,,,,,,,,,,,,,249.395,251.489,251.489,252.6654,return,0.1853,,48.30729167,,,,,,FBP-OG-71.png,0.43,1.2,19,0.5,0,8,8,18,1,,,,,,,,,,,,,,,,,,,,,,,,,,,,,,,,,,,,,,,,
,,,,,V2_001,19,Female,2024-02-27_13h05.38.251,jersey_experiment_5_v2,2023.2.2,Win32,84.74576271,,,,,,,,,,,,,,,,252.6656,254.7599,254.7599,255.7715,return,0.1933,,25,,,,,,FBP-OG-81.png,0.37,1.2,22,0.5,0,9,9,21,1,,,,,,,,,,,,,,,,,,,,,,,,,,,,,,,,,,,,,,,,
,,,,,V2_001,19,Female,2024-02-27_13h05.38.251,jersey_experiment_5_v2,2023.2.2,Win32,84.74576271,,,,,,,,,,,,,,,,255.7718,257.6186,257.6187,258.8185,return,0.118,,49.47916667,,,,,,FBP-PT-81.png,0.43,1.2,9,0.25,0,10,10,8,1,,,,,,,,,,,,,,,,,,,,,,,,,,,,,,,,,,,,,,,,
,,,,,V2_001,19,Female,2024-02-27_13h05.38.251,jersey_experiment_5_v2,2023.2.2,Win32,84.74576271,,,,,,,,,,,,,,,,258.8187,260.9128,260.9128,261.8423,return,0.2498,,63.15104167,,,,,,FBP-OG-91.png,0.45,1.2,30,0.5,0,11,11,29,1,,,,,,,,,,,,,,,,,,,,,,,,,,,,,,,,,,,,,,,,
,,,,,V2_001,19,Female,2024-02-27_13h05.38.251,jersey_experiment_5_v2,2023.2.2,Win32,84.74576271,,,,,,,,,,,,,,,,261.8427,263.6895,263.6895,264.5247,return,0.1818,,49.86979167,,,,,,FBP-PT-71.png,0.4,1.2,3,0.25,0,12,12,2,1,,,,,,,,,,,,,,,,,,,,,,,,,,,,,,,,,,,,,,,,
,,,,,V2_001,19,Female,2024-02-27_13h05.38.251,jersey_experiment_5_v2,2023.2.2,Win32,84.74576271,,,,,,,,,,,,,,,,264.525,266.6305,266.6305,268.2072,return,0.154,,25.390625,,,,,,FBP-OG-91.png,0.37,1.2,27,0.5,0,13,13,26,1,,,,,,,,,,,,,,,,,,,,,,,,,,,,,,,,,,,,,,,,
,,,,,V2_001,19,Female,2024-02-27_13h05.38.251,jersey_experiment_5_v2,2023.2.2,Win32,84.74576271,,,,,,,,,,,,,,,,268.2073,270.3014,270.3015,272.3015,return,0.1217,,23.4375,,,,,,FBP-YG-19.png,0.37,1.2,57,0.5,0,14,14,56,1,,,,,,,,,,,,,,,,,,,,,,,,,,,,,,,,,,,,,,,,
,,,,,V2_001,19,Female,2024-02-27_13h05.38.251,jersey_experiment_5_v2,2023.2.2,Win32,84.74576271,,,,,,,,,,,,,,,,272.3018,274.1487,274.1487,277.2192,return,1.0928,,36.71875,,,,,,FBP-PT-91.png,0.35,1.2,11,0.25,0,15,15,10,1,,,,,,,,,,,,,,,,,,,,,,,,,,,,,,,,,,,,,,,,
,,,,,V2_001,19,Female,2024-02-27_13h05.38.251,jersey_experiment_5_v2,2023.2.2,Win32,84.74576271,,,,,,,,,,,,,,,,277.2194,279.3255,279.3255,280.8313,return,0.0849,,74.73958333,,,,,,FBP-RB-91.png,0.45,1.2,45,0.5,0,16,16,44,1,,,,,,,,,,,,,,,,,,,,,,,,,,,,,,,,,,,,,,,,
,,,,,V2_001,19,Female,2024-02-27_13h05.38.251,jersey_experiment_5_v2,2023.2.2,Win32,84.74576271,,,,,,,,,,,,,,,,280.8314,282.9371,282.9372,284.0784,return,0.1097,,50,,,,,,FBP-YG-19.png,0.4,1.2,58,0.5,0,17,17,57,1,,,,,,,,,,,,,,,,,,,,,,,,,,,,,,,,,,,,,,,,
,,,,,V2_001,19,Female,2024-02-27_13h05.38.251,jersey_experiment_5_v2,2023.2.2,Win32,84.74576271,,,,,,,,,,,,,,,,284.0787,285.9255,285.9256,286.8432,return,0.1345,,78.90625,,,,,,FBP-PT-81.png,0.45,1.2,10,0.25,0,18,18,9,1,,,,,,,,,,,,,,,,,,,,,,,,,,,,,,,,,,,,,,,,
,,,,,V2_001,19,Female,2024-02-27_13h05.38.251,jersey_experiment_5_v2,2023.2.2,Win32,84.74576271,,,,,,,,,,,,,,,,286.8434,288.9492,288.9492,289.8903,return,0.0839,,74.86979167,,,,,,FBP-RB-71.png,0.43,1.2,34,0.5,0,19,19,33,1,,,,,,,,,,,,,,,,,,,,,,,,,,,,,,,,,,,,,,,,
,,,,,V2_001,19,Female,2024-02-27_13h05.38.251,jersey_experiment_5_v2,2023.2.2,Win32,84.74576271,,,,,,,,,,,,,,,,289.8906,291.7492,291.7494,292.9963,return,0.3055,,74.86979167,,,,,,FBP-PT-91.png,0.45,1.2,15,0.25,0,20,20,14,1,,,,,,,,,,,,,,,,,,,,,,,,,,,,,,,,,,,,,,,,
,,,,,V2_001,19,Female,2024-02-27_13h05.38.251,jersey_experiment_5_v2,2023.2.2,Win32,84.74576271,,,,,,,,,,,,,,,,292.9966,295.0907,295.0907,295.9847,return,0.3295,,74.86979167,,,,,,FBP-YG-17.png,0.45,1.2,50,0.5,0,21,21,49,1,,,,,,,,,,,,,,,,,,,,,,,,,,,,,,,,,,,,,,,,
,,,,,V2_001,19,Female,2024-02-27_13h05.38.251,jersey_experiment_5_v2,2023.2.2,Win32,84.74576271,,,,,,,,,,,,,,,,295.9849,298.0908,298.0908,299.5143,return,0.1606,,38.671875,,,,,,FBP-RB-81.png,0.35,1.2,36,0.5,0,22,22,35,1,,,,,,,,,,,,,,,,,,,,,,,,,,,,,,,,,,,,,,,,
,,,,,V2_001,19,Female,2024-02-27_13h05.38.251,jersey_experiment_5_v2,2023.2.2,Win32,84.74576271,,,,,,,,,,,,,,,,299.5145,301.6203,301.6204,302.8908,return,0.1106,,34.89583333,,,,,,FBP-RB-91.png,0.43,1.2,44,0.5,0,23,23,43,1,,,,,,,,,,,,,,,,,,,,,,,,,,,,,,,,,,,,,,,,
,,,,,V2_001,19,Female,2024-02-27_13h05.38.251,jersey_experiment_5_v2,2023.2.2,Win32,84.74576271,,,,,,,,,,,,,,,,302.891,304.9969,304.9969,306.1145,return,0.0812,,49.08854167,,,,,,FBP-OG-91.png,0.43,1.2,29,0.5,0,24,24,28,1,,,,,,,,,,,,,,,,,,,,,,,,,,,,,,,,,,,,,,,,
,,,,,V2_001,19,Female,2024-02-27_13h05.38.251,jersey_experiment_5_v2,2023.2.2,Win32,84.74576271,,,,,,,,,,,,,,,,306.1147,308.2088,308.2088,309.5969,return,0.0988,,36.328125,,,,,,FBP-YG-17.png,0.37,1.2,47,0.5,0,25,25,46,1,,,,,,,,,,,,,,,,,,,,,,,,,,,,,,,,,,,,,,,,
,,,,,V2_001,19,Female,2024-02-27_13h05.38.251,jersey_experiment_5_v2,2023.2.2,Win32,84.74576271,,,,,,,,,,,,,,,,309.5971,311.6912,311.6912,312.7618,return,0.2653,,36.328125,,,,,,FBP-OG-71.png,0.4,1.2,18,0.5,0,26,26,17,1,,,,,,,,,,,,,,,,,,,,,,,,,,,,,,,,,,,,,,,,
,,,,,V2_001,19,Female,2024-02-27_13h05.38.251,jersey_experiment_5_v2,2023.2.2,Win32,84.74576271,,,,,,,,,,,,,,,,312.7621,314.8677,314.8678,315.4089,return,0.1275,,37.36979167,,,,,,FBP-RB-71.png,0.37,1.2,32,0.5,0,27,27,31,1,,,,,,,,,,,,,,,,,,,,,,,,,,,,,,,,,,,,,,,,
,,,,,V2_001,19,Female,2024-02-27_13h05.38.251,jersey_experiment_5_v2,2023.2.2,Win32,84.74576271,,,,,,,,,,,,,,,,315.4091,317.515,317.515,318.1267,return,0.1564,,37.36979167,,,,,,FBP-YG-18.png,0.37,1.2,52,0.5,0,28,28,51,1,,,,,,,,,,,,,,,,,,,,,,,,,,,,,,,,,,,,,,,,
,,,,,V2_001,19,Female,2024-02-27_13h05.38.251,jersey_experiment_5_v2,2023.2.2,Win32,84.74576271,,,,,,,,,,,,,,,,318.127,320.2326,320.2326,320.8328,return,0.1784,,37.36979167,,,,,,FBP-OG-71.png,0.35,1.2,16,0.5,0,29,29,15,1,,,,,,,,,,,,,,,,,,,,,,,,,,,,,,,,,,,,,,,,
,,,,,V2_001,19,Female,2024-02-27_13h05.38.251,jersey_experiment_5_v2,2023.2.2,Win32,84.74576271,,,,,,,,,,,,,,,,320.8331,322.9386,322.9386,324.0681,return,0.0475,,45.44270833,,,,,,FBP-OG-71.png,0.37,1.2,17,0.5,0,30,30,16,1,,,,,,,,,,,,,,,,,,,,,,,,,,,,,,,,,,,,,,,,
,,,,,V2_001,19,Female,2024-02-27_13h05.38.251,jersey_experiment_5_v2,2023.2.2,Win32,84.74576271,,,,,,,,,,,,,,,,324.0683,325.9269,325.927,326.7505,return,0.1305,,60.02604167,,,,,,FBP-PT-71.png,0.43,1.2,4,0.25,0,31,31,3,1,,,,,,,,,,,,,,,,,,,,,,,,,,,,,,,,,,,,,,,,
,,,,,V2_001,19,Female,2024-02-27_13h05.38.251,jersey_experiment_5_v2,2023.2.2,Win32,84.74576271,,,,,,,,,,,,,,,,326.7507,328.8567,328.8568,329.5977,return,0.0857,,36.97916667,,,,,,FBP-YG-19.png,0.35,1.2,56,0.5,0,32,32,55,1,,,,,,,,,,,,,,,,,,,,,,,,,,,,,,,,,,,,,,,,
,,,,,V2_001,19,Female,2024-02-27_13h05.38.251,jersey_experiment_5_v2,2023.2.2,Win32,84.74576271,,,,,,,,,,,,,,,,329.5979,331.7038,331.7038,333.1626,return,0.1369,,74.609375,,,,,,FBP-OG-81.png,0.45,1.2,25,0.5,0,33,33,24,1,,,,,,,,,,,,,,,,,,,,,,,,,,,,,,,,,,,,,,,,
,,,,,V2_001,19,Female,2024-02-27_13h05.38.251,jersey_experiment_5_v2,2023.2.2,Win32,84.74576271,,,,,,,,,,,,,,,,333.1627,335.0215,335.0217,336.1156,return,0.094,,48.69791667,,,,,,FBP-PT-81.png,0.35,1.2,6,0.25,0,34,34,5,1,,,,,,,,,,,,,,,,,,,,,,,,,,,,,,,,,,,,,,,,
,,,,,V2_001,19,Female,2024-02-27_13h05.38.251,jersey_experiment_5_v2,2023.2.2,Win32,84.74576271,,,,,,,,,,,,,,,,336.1158,338.2098,338.2098,338.9627,return,0.1277,,65.625,,,,,,FBP-RB-81.png,0.4,1.2,38,0.5,0,35,35,37,1,,,,,,,,,,,,,,,,,,,,,,,,,,,,,,,,,,,,,,,,
,,,,,V2_001,19,Female,2024-02-27_13h05.38.251,jersey_experiment_5_v2,2023.2.2,Win32,84.74576271,,,,,,,,,,,,,,,,338.9629,341.0687,341.0687,341.6922,return,0.1,,75,,,,,,FBP-OG-81.png,0.43,1.2,24,0.5,0,36,36,23,1,,,,,,,,,,,,,,,,,,,,,,,,,,,,,,,,,,,,,,,,
,,,,,V2_001,19,Female,2024-02-27_13h05.38.251,jersey_experiment_5_v2,2023.2.2,Win32,84.74576271,,,,,,,,,,,,,,,,341.6923,343.7864,343.7865,344.9748,return,0.1089,,50.390625,,,,,,FBP-RB-91.png,0.37,1.2,42,0.5,0,37,37,41,1,,,,,,,,,,,,,,,,,,,,,,,,,,,,,,,,,,,,,,,,
,,,,,V2_001,19,Female,2024-02-27_13h05.38.251,jersey_experiment_5_v2,2023.2.2,Win32,84.74576271,,,,,,,,,,,,,,,,344.975,347.069,347.0691,348.6926,return,0.2122,,25.91145833,,,,,,FBP-OG-81.png,0.35,1.2,21,0.5,0,38,38,20,1,,,,,,,,,,,,,,,,,,,,,,,,,,,,,,,,,,,,,,,,
,,,,,V2_001,19,Female,2024-02-27_13h05.38.251,jersey_experiment_5_v2,2023.2.2,Win32,84.74576271,,,,,,,,,,,,,,,,348.6928,350.7868,350.7868,352.0808,return,0.1556,,73.56770833,,,,,,FBP-YG-19.png,0.45,1.2,60,0.5,0,39,39,59,1,,,,,,,,,,,,,,,,,,,,,,,,,,,,,,,,,,,,,,,,
,,,,,V2_001,19,Female,2024-02-27_13h05.38.251,jersey_experiment_5_v2,2023.2.2,Win32,84.74576271,,,,,,,,,,,,,,,,352.0811,354.1869,354.1869,355.5634,return,0.1703,,70.703125,,,,,,FBP-OG-91.png,0.4,1.2,28,0.5,0,40,40,27,1,,,,,,,,,,,,,,,,,,,,,,,,,,,,,,,,,,,,,,,,
,,,,,V2_001,19,Female,2024-02-27_13h05.38.251,jersey_experiment_5_v2,2023.2.2,Win32,84.74576271,,,,,,,,,,,,,,,,355.5637,357.4106,357.4106,358.1869,return,0.0638,,74.73958333,,,,,,FBP-PT-91.png,0.43,1.2,14,0.25,0,41,41,13,1,,,,,,,,,,,,,,,,,,,,,,,,,,,,,,,,,,,,,,,,
,,,,,V2_001,19,Female,2024-02-27_13h05.38.251,jersey_experiment_5_v2,2023.2.2,Win32,84.74576271,,,,,,,,,,,,,,,,358.187,360.0343,360.0344,361.6458,return,0.1217,,24.34895833,,,,,,FBP-PT-71.png,0.35,1.2,1,0.25,0,42,42,0,1,,,,,,,,,,,,,,,,,,,,,,,,,,,,,,,,,,,,,,,,
,,,,,V2_001,19,Female,2024-02-27_13h05.38.251,jersey_experiment_5_v2,2023.2.2,Win32,84.74576271,,,,,,,,,,,,,,,,361.646,363.7401,363.7401,365.1519,return,0.1669,,47.52604167,,,,,,FBP-RB-91.png,0.4,1.2,43,0.5,0,43,43,42,1,,,,,,,,,,,,,,,,,,,,,,,,,,,,,,,,,,,,,,,,
,,,,,V2_001,19,Female,2024-02-27_13h05.38.251,jersey_experiment_5_v2,2023.2.2,Win32,84.74576271,,,,,,,,,,,,,,,,365.1521,366.9992,366.9993,368.2814,return,0.2061,,68.359375,,,,,,FBP-PT-71.png,0.45,1.2,5,0.25,0,44,44,4,1,,,,,,,,,,,,,,,,,,,,,,,,,,,,,,,,,,,,,,,,
,,,,,V2_001,19,Female,2024-02-27_13h05.38.251,jersey_experiment_5_v2,2023.2.2,Win32,84.74576271,,,,,,,,,,,,,,,,368.2816,370.3758,370.3758,371.0815,return,0.1497,,31.640625,,,,,,FBP-RB-81.png,0.37,1.2,37,0.5,0,45,45,36,1,,,,,,,,,,,,,,,,,,,,,,,,,,,,,,,,,,,,,,,,
,,,,,V2_001,19,Female,2024-02-27_13h05.38.251,jersey_experiment_5_v2,2023.2.2,Win32,84.74576271,,,,,,,,,,,,,,,,371.0817,372.9287,372.9287,374.0464,return,0.0037,,52.34375,,,,,,FBP-PT-81.png,0.4,1.2,8,0.25,0,46,46,7,1,,,,,,,,,,,,,,,,,,,,,,,,,,,,,,,,,,,,,,,,
,,,,,V2_001,19,Female,2024-02-27_13h05.38.251,jersey_experiment_5_v2,2023.2.2,Win32,84.74576271,,,,,,,,,,,,,,,,374.0465,376.1524,376.1525,376.8465,return,0.1447,,21.09375,,,,,,FBP-YG-18.png,0.35,1.2,51,0.5,0,47,47,50,1,,,,,,,,,,,,,,,,,,,,,,,,,,,,,,,,,,,,,,,,
,,,,,V2_001,19,Female,2024-02-27_13h05.38.251,jersey_experiment_5_v2,2023.2.2,Win32,84.74576271,,,,,,,,,,,,,,,,376.8467,378.9525,378.9525,379.8584,return,0.0944,,72.65625,,,,,,FBP-OG-71.png,0.45,1.2,20,0.5,0,48,48,19,1,,,,,,,,,,,,,,,,,,,,,,,,,,,,,,,,,,,,,,,,
,,,,,V2_001,19,Female,2024-02-27_13h05.38.251,jersey_experiment_5_v2,2023.2.2,Win32,84.74576271,,,,,,,,,,,,,,,,379.8585,381.9643,381.9643,382.9054,return,0.1014,,43.61979167,,,,,,FBP-YG-17.png,0.35,1.2,46,0.5,0,49,49,45,1,,,,,,,,,,,,,,,,,,,,,,,,,,,,,,,,,,,,,,,,
,,,,,V2_001,19,Female,2024-02-27_13h05.38.251,jersey_experiment_5_v2,2023.2.2,Win32,84.74576271,,,,,,,,,,,,,,,,382.9057,384.9997,384.9997,385.8116,return,0.0941,,49.73958333,,,,,,FBP-YG-17.png,0.4,1.2,48,0.5,0,50,50,47,1,,,,,,,,,,,,,,,,,,,,,,,,,,,,,,,,,,,,,,,,
,,,,,V2_001,19,Female,2024-02-27_13h05.38.251,jersey_experiment_5_v2,2023.2.2,Win32,84.74576271,,,,,,,,,,,,,,,,385.8117,387.9175,387.9176,388.6705,return,0.0387,,25.52083333,,,,,,FBP-RB-71.png,0.35,1.2,31,0.5,0,51,51,30,1,,,,,,,,,,,,,,,,,,,,,,,,,,,,,,,,,,,,,,,,
,,,,,V2_001,19,Female,2024-02-27_13h05.38.251,jersey_experiment_5_v2,2023.2.2,Win32,84.74576271,,,,,,,,,,,,,,,,388.6706,390.7647,390.7647,391.6941,return,0.192,,28.125,,,,,,FBP-OG-91.png,0.35,1.2,26,0.5,0,52,52,25,1,,,,,,,,,,,,,,,,,,,,,,,,,,,,,,,,,,,,,,,,
,,,,,V2_001,19,Female,2024-02-27_13h05.38.251,jersey_experiment_5_v2,2023.2.2,Win32,84.74576271,,,,,,,,,,,,,,,,391.6944,393.5412,393.5413,394.3531,return,0.0944,,31.90104167,,,,,,FBP-PT-91.png,0.4,1.2,13,0.25,0,53,53,12,1,,,,,,,,,,,,,,,,,,,,,,,,,,,,,,,,,,,,,,,,
,,,,,V2_001,19,Female,2024-02-27_13h05.38.251,jersey_experiment_5_v2,2023.2.2,Win32,84.74576271,,,,,,,,,,,,,,,,394.3532,396.459,396.4591,397.6001,return,0.6234,,22.91666667,,,,,,FBP-RB-91.png,0.35,1.2,41,0.5,0,54,54,40,1,,,,,,,,,,,,,,,,,,,,,,,,,,,,,,,,,,,,,,,,
,,,,,V2_001,19,Female,2024-02-27_13h05.38.251,jersey_experiment_5_v2,2023.2.2,Win32,84.74576271,,,,,,,,,,,,,,,,397.6004,399.6945,399.6945,400.765,return,0.0873,,50.78125,,,,,,FBP-YG-18.png,0.4,1.2,53,0.5,0,55,55,52,1,,,,,,,,,,,,,,,,,,,,,,,,,,,,,,,,,,,,,,,,
,,,,,V2_001,19,Female,2024-02-27_13h05.38.251,jersey_experiment_5_v2,2023.2.2,Win32,84.74576271,,,,,,,,,,,,,,,,400.7652,402.8594,402.8594,403.5181,return,0.1911,,61.19791667,,,,,,FBP-OG-81.png,0.4,1.2,23,0.5,0,56,56,22,1,,,,,,,,,,,,,,,,,,,,,,,,,,,,,,,,,,,,,,,,
,,,,,V2_001,19,Female,2024-02-27_13h05.38.251,jersey_experiment_5_v2,2023.2.2,Win32,84.74576271,,,,,,,,,,,,,,,,403.5184,405.3653,405.3653,406.0358,return,0.225,,45.96354167,,,,,,FBP-PT-81.png,0.37,1.2,7,0.25,0,57,57,6,1,,,,,,,,,,,,,,,,,,,,,,,,,,,,,,,,,,,,,,,,
,,,,,V2_001,19,Female,2024-02-27_13h05.38.251,jersey_experiment_5_v2,2023.2.2,Win32,84.74576271,,,,,,,,,,,,,,,,406.036,408.13,408.13,408.7535,return,0.1179,,66.015625,,,,,,FBP-RB-71.png,0.4,1.2,33,0.5,0,58,58,32,1,,,,,,,,,,,,,,,,,,,,,,,,,,,,,,,,,,,,,,,,
,,,,,V2_001,19,Female,2024-02-27_13h05.38.251,jersey_experiment_5_v2,2023.2.2,Win32,84.74576271,,,,,,,,,,,,,,,,408.7535,410.8478,410.8478,411.5654,return,0.1444,,82.421875,,,,,,FBP-RB-71.png,0.45,1.2,35,0.5,0,59,59,34,1,,,,,,,,,,,,,,,,,,,,,,,,,,,,,,,,,,,,,,,,
,,,,,V2_001,19,Female,2024-02-27_13h05.38.251,jersey_experiment_5_v2,2023.2.2,Win32,84.74576271,,,,,,,,,,,,,,,,,,,,,,,,,,,,,,,,,,,,,,,411.566,531.5583,,,,,,,,,,,,,,,,,,,,,,,,,,,,,,,,,,,,,,
,,,,,V2_001,19,Female,2024-02-27_13h05.38.251,jersey_experiment_5_v2,2023.2.2,Win32,84.74576271,,,,,,,,,,,,,,,,,,,,,,,,,,,,,,,,,,,,,,,,,531.5585,601.714,return,70.1429,,,,,,,,,,,,,,,,,,,,,,,,,,,,,,,,,,
,,,,,V2_001,19,Female,2024-02-27_13h05.38.251,jersey_experiment_5_v2,2023.2.2,Win32,84.74576271,,,,,,,,,,,,,,,,601.7204,603.5725,603.5726,608.3022,return,0.9205,,25.78125,,,,,,FBP-OG-18.png,0.35,1.2,21,0.25,,,,,,,,,,,,,0,0,0,20,1,,,,,,,,,,,,,,,,,,,,,,,,,,,,
,,,,,V2_001,19,Female,2024-02-27_13h05.38.251,jersey_experiment_5_v2,2023.2.2,Win32,84.74576271,,,,,,,,,,,,,,,,608.3025,610.1492,610.1492,611.2786,return,0.0133,,74.08854167,,,,,,FBP-RB-19.png,0.45,1.2,45,0.25,,,,,,,,,,,,,0,1,1,44,1,,,,,,,,,,,,,,,,,,,,,,,,,,,,
,,,,,V2_001,19,Female,2024-02-27_13h05.38.251,jersey_experiment_5_v2,2023.2.2,Win32,84.74576271,,,,,,,,,,,,,,,,611.2788,613.1375,613.1375,613.6787,return,0.0127,,74.08854167,,,,,,FBP-OG-17.png,0.43,1.2,19,0.25,,,,,,,,,,,,,0,2,2,18,1,,,,,,,,,,,,,,,,,,,,,,,,,,,,
,,,,,V2_001,19,Female,2024-02-27_13h05.38.251,jersey_experiment_5_v2,2023.2.2,Win32,84.74576271,,,,,,,,,,,,,,,,613.6789,615.5259,615.526,616.5377,return,0.0528,,83.46354167,,,,,,FBP-OG-17.png,0.45,1.2,20,0.25,,,,,,,,,,,,,0,3,3,19,1,,,,,,,,,,,,,,,,,,,,,,,,,,,,
,,,,,V2_001,19,Female,2024-02-27_13h05.38.251,jersey_experiment_5_v2,2023.2.2,Win32,84.74576271,,,,,,,,,,,,,,,,616.5379,618.3968,618.3968,618.9612,return,0.0842,,69.66145833,,,,,,FBP-RB-18.png,0.43,1.2,39,0.25,,,,,,,,,,,,,0,4,4,38,1,,,,,,,,,,,,,,,,,,,,,,,,,,,,
,,,,,V2_001,19,Female,2024-02-27_13h05.38.251,jersey_experiment_5_v2,2023.2.2,Win32,84.74576271,,,,,,,,,,,,,,,,618.9614,620.8084,620.8086,621.7379,return,0.1716,,55.72916667,,,,,,FBP-YG-71.png,0.4,1.2,48,0.25,,,,,,,,,,,,,0,5,5,47,1,,,,,,,,,,,,,,,,,,,,,,,,,,,,
,,,,,V2_001,19,Female,2024-02-27_13h05.38.251,jersey_experiment_5_v2,2023.2.2,Win32,84.74576271,,,,,,,,,,,,,,,,621.7381,623.5968,623.5968,624.7027,return,0.1089,,72.65625,,,,,,FBP-OG-19.png,0.43,1.2,29,0.25,,,,,,,,,,,,,0,6,6,28,1,,,,,,,,,,,,,,,,,,,,,,,,,,,,
,,,,,V2_001,19,Female,2024-02-27_13h05.38.251,jersey_experiment_5_v2,2023.2.2,Win32,84.74576271,,,,,,,,,,,,,,,,624.7031,626.8088,626.8088,627.6204,return,0.1176,,32.421875,,,,,,FBP-PT-17.png,0.35,1.2,1,0.5,,,,,,,,,,,,,0,7,7,0,1,,,,,,,,,,,,,,,,,,,,,,,,,,,,
,,,,,V2_001,19,Female,2024-02-27_13h05.38.251,jersey_experiment_5_v2,2023.2.2,Win32,84.74576271,,,,,,,,,,,,,,,,627.6207,629.4676,629.4677,629.9499,return,0.0394,,39.19270833,,,,,,FBP-OG-19.png,0.35,1.2,26,0.25,,,,,,,,,,,,,0,8,8,25,1,,,,,,,,,,,,,,,,,,,,,,,,,,,,
,,,,,V2_001,19,Female,2024-02-27_13h05.38.251,jersey_experiment_5_v2,2023.2.2,Win32,84.74576271,,,,,,,,,,,,,,,,629.9501,632.0441,632.0442,633.3148,return,0.0694,,73.046875,,,,,,FBP-PT-18.png,0.45,1.2,10,0.5,,,,,,,,,,,,,0,9,9,9,1,,,,,,,,,,,,,,,,,,,,,,,,,,,,
,,,,,V2_001,19,Female,2024-02-27_13h05.38.251,jersey_experiment_5_v2,2023.2.2,Win32,84.74576271,,,,,,,,,,,,,,,,633.315,635.162,635.162,635.6913,return,0.1233,,84.50520833,,,,,,FBP-YG-81.png,0.45,1.2,55,0.25,,,,,,,,,,,,,0,10,10,54,1,,,,,,,,,,,,,,,,,,,,,,,,,,,,
,,,,,V2_001,19,Female,2024-02-27_13h05.38.251,jersey_experiment_5_v2,2023.2.2,Win32,84.74576271,,,,,,,,,,,,,,,,635.6916,637.5503,637.5503,638.7149,return,0.0776,,50.390625,,,,,,FBP-RB-19.png,0.35,1.2,41,0.25,,,,,,,,,,,,,0,11,11,40,1,,,,,,,,,,,,,,,,,,,,,,,,,,,,
,,,,,V2_001,19,Female,2024-02-27_13h05.38.251,jersey_experiment_5_v2,2023.2.2,Win32,84.74576271,,,,,,,,,,,,,,,,638.7151,640.8209,640.8209,641.7856,return,0.0199,,74.21875,,,,,,FBP-PT-17.png,0.43,1.2,4,0.5,,,,,,,,,,,,,0,12,12,3,1,,,,,,,,,,,,,,,,,,,,,,,,,,,,
,,,,,V2_001,19,Female,2024-02-27_13h05.38.251,jersey_experiment_5_v2,2023.2.2,Win32,84.74576271,,,,,,,,,,,,,,,,641.7858,643.6328,643.6328,644.0917,return,0.027,,69.79166667,,,,,,FBP-YG-91.png,0.4,1.2,58,0.25,,,,,,,,,,,,,0,13,13,57,1,,,,,,,,,,,,,,,,,,,,,,,,,,,,
,,,,,V2_001,19,Female,2024-02-27_13h05.38.251,jersey_experiment_5_v2,2023.2.2,Win32,84.74576271,,,,,,,,,,,,,,,,644.092,645.9505,645.9505,646.4447,return,0.0171,,83.46354167,,,,,,FBP-OG-18.png,0.45,1.2,25,0.25,,,,,,,,,,,,,0,14,14,24,1,,,,,,,,,,,,,,,,,,,,,,,,,,,,
,,,,,V2_001,19,Female,2024-02-27_13h05.38.251,jersey_experiment_5_v2,2023.2.2,Win32,84.74576271,,,,,,,,,,,,,,,,646.4449,648.292,648.292,649.0918,return,0.0094,,63.671875,,,,,,FBP-YG-91.png,0.37,1.2,57,0.25,,,,,,,,,,,,,0,15,15,56,1,,,,,,,,,,,,,,,,,,,,,,,,,,,,
,,,,,V2_001,19,Female,2024-02-27_13h05.38.251,jersey_experiment_5_v2,2023.2.2,Win32,84.74576271,,,,,,,,,,,,,,,,649.092,650.9507,650.9507,652.1271,return,0.201,,58.72395833,,,,,,FBP-RB-19.png,0.37,1.2,42,0.25,,,,,,,,,,,,,0,16,16,41,1,,,,,,,,,,,,,,,,,,,,,,,,,,,,
,,,,,V2_001,19,Female,2024-02-27_13h05.38.251,jersey_experiment_5_v2,2023.2.2,Win32,84.74576271,,,,,,,,,,,,,,,,652.1273,653.9744,653.9745,654.4685,return,0.1634,,71.74479167,,,,,,FBP-OG-18.png,0.4,1.2,23,0.25,,,,,,,,,,,,,0,17,17,22,1,,,,,,,,,,,,,,,,,,,,,,,,,,,,
,,,,,V2_001,19,Female,2024-02-27_13h05.38.251,jersey_experiment_5_v2,2023.2.2,Win32,84.74576271,,,,,,,,,,,,,,,,654.4687,656.3274,656.3274,656.7039,return,0.1409,,83.85416667,,,,,,FBP-YG-81.png,0.43,1.2,54,0.25,,,,,,,,,,,,,0,18,18,53,1,,,,,,,,,,,,,,,,,,,,,,,,,,,,
,,,,,V2_001,19,Female,2024-02-27_13h05.38.251,jersey_experiment_5_v2,2023.2.2,Win32,84.74576271,,,,,,,,,,,,,,,,656.7041,658.5628,658.5628,658.9628,return,0.0468,,75.390625,,,,,,FBP-OG-19.png,0.4,1.2,28,0.25,,,,,,,,,,,,,0,19,19,27,1,,,,,,,,,,,,,,,,,,,,,,,,,,,,
,,,,,V2_001,19,Female,2024-02-27_13h05.38.251,jersey_experiment_5_v2,2023.2.2,Win32,84.74576271,,,,,,,,,,,,,,,,658.9631,660.8217,660.8217,662.0099,return,0.0784,,50.91145833,,,,,,FBP-OG-17.png,0.37,1.2,17,0.25,,,,,,,,,,,,,0,20,20,16,1,,,,,,,,,,,,,,,,,,,,,,,,,,,,
,,,,,V2_001,19,Female,2024-02-27_13h05.38.251,jersey_experiment_5_v2,2023.2.2,Win32,84.74576271,,,,,,,,,,,,,,,,662.0101,663.8572,663.8572,664.8336,return,0.1415,,50.91145833,,,,,,FBP-RB-18.png,0.37,1.2,37,0.25,,,,,,,,,,,,,0,21,21,36,1,,,,,,,,,,,,,,,,,,,,,,,,,,,,
,,,,,V2_001,19,Female,2024-02-27_13h05.38.251,jersey_experiment_5_v2,2023.2.2,Win32,84.74576271,,,,,,,,,,,,,,,,664.8338,666.6924,666.6925,667.2102,return,0.1724,,67.31770833,,,,,,FBP-OG-18.png,0.43,1.2,24,0.25,,,,,,,,,,,,,0,22,22,23,1,,,,,,,,,,,,,,,,,,,,,,,,,,,,
,,,,,V2_001,19,Female,2024-02-27_13h05.38.251,jersey_experiment_5_v2,2023.2.2,Win32,84.74576271,,,,,,,,,,,,,,,,667.2103,669.0689,669.069,669.4926,return,0.0707,,60.41666667,,,,,,FBP-OG-18.png,0.37,1.2,22,0.25,,,,,,,,,,,,,0,23,23,21,1,,,,,,,,,,,,,,,,,,,,,,,,,,,,
,,,,,V2_001,19,Female,2024-02-27_13h05.38.251,jersey_experiment_5_v2,2023.2.2,Win32,84.74576271,,,,,,,,,,,,,,,,669.4928,671.3399,671.34,672.4338,return,0.1283,,51.171875,,,,,,FBP-OG-19.png,0.37,1.2,27,0.25,,,,,,,,,,,,,0,24,24,26,1,,,,,,,,,,,,,,,,,,,,,,,,,,,,
,,,,,V2_001,19,Female,2024-02-27_13h05.38.251,jersey_experiment_5_v2,2023.2.2,Win32,84.74576271,,,,,,,,,,,,,,,,672.434,674.281,674.281,674.7987,return,0.1903,,68.48958333,,,,,,FBP-YG-71.png,0.43,1.2,49,0.25,,,,,,,,,,,,,0,25,25,48,1,,,,,,,,,,,,,,,,,,,,,,,,,,,,
,,,,,V2_001,19,Female,2024-02-27_13h05.38.251,jersey_experiment_5_v2,2023.2.2,Win32,84.74576271,,,,,,,,,,,,,,,,674.7989,676.6575,676.6575,677.0693,return,0.1224,,58.33333333,,,,,,FBP-YG-81.png,0.37,1.2,52,0.25,,,,,,,,,,,,,0,26,26,51,1,,,,,,,,,,,,,,,,,,,,,,,,,,,,
,,,,,V2_001,19,Female,2024-02-27_13h05.38.251,jersey_experiment_5_v2,2023.2.2,Win32,84.74576271,,,,,,,,,,,,,,,,677.0694,678.9165,678.9165,679.3636,return,0.2025,,71.74479167,,,,,,FBP-RB-17.png,0.4,1.2,33,0.25,,,,,,,,,,,,,0,27,27,32,1,,,,,,,,,,,,,,,,,,,,,,,,,,,,
,,,,,V2_001,19,Female,2024-02-27_13h05.38.251,jersey_experiment_5_v2,2023.2.2,Win32,84.74576271,,,,,,,,,,,,,,,,679.3639,681.2106,681.2107,681.5989,return,0.1657,,60.67708333,,,,,,FBP-YG-71.png,0.37,1.2,47,0.25,,,,,,,,,,,,,0,28,28,46,1,,,,,,,,,,,,,,,,,,,,,,,,,,,,
,,,,,V2_001,19,Female,2024-02-27_13h05.38.251,jersey_experiment_5_v2,2023.2.2,Win32,84.74576271,,,,,,,,,,,,,,,,681.599,683.446,683.446,684.0107,return,0.1583,,60.28645833,,,,,,FBP-RB-17.png,0.37,1.2,32,0.25,,,,,,,,,,,,,0,29,29,31,1,,,,,,,,,,,,,,,,,,,,,,,,,,,,
,,,,,V2_001,19,Female,2024-02-27_13h05.38.251,jersey_experiment_5_v2,2023.2.2,Win32,84.74576271,,,,,,,,,,,,,,,,684.011,685.8696,685.8696,686.3872,return,0.1884,,72.91666667,,,,,,FBP-RB-19.png,0.43,1.2,44,0.25,,,,,,,,,,,,,0,30,30,43,1,,,,,,,,,,,,,,,,,,,,,,,,,,,,
,,,,,V2_001,19,Female,2024-02-27_13h05.38.251,jersey_experiment_5_v2,2023.2.2,Win32,84.74576271,,,,,,,,,,,,,,,,686.3874,688.4815,688.4816,689.4581,return,0.0004,,49.609375,,,,,,FBP-PT-18.png,0.35,1.2,6,0.5,,,,,,,,,,,,,0,31,31,5,1,,,,,,,,,,,,,,,,,,,,,,,,,,,,
,,,,,V2_001,19,Female,2024-02-27_13h05.38.251,jersey_experiment_5_v2,2023.2.2,Win32,84.74576271,,,,,,,,,,,,,,,,689.4583,691.317,691.317,691.9993,return,0.108,,39.58333333,,,,,,FBP-OG-17.png,0.35,1.2,16,0.25,,,,,,,,,,,,,0,32,32,15,1,,,,,,,,,,,,,,,,,,,,,,,,,,,,
,,,,,V2_001,19,Female,2024-02-27_13h05.38.251,jersey_experiment_5_v2,2023.2.2,Win32,84.74576271,,,,,,,,,,,,,,,,691.9995,693.8581,693.8581,694.8465,return,0.0715,,63.02083333,,,,,,FBP-RB-18.png,0.4,1.2,38,0.25,,,,,,,,,,,,,0,33,33,37,1,,,,,,,,,,,,,,,,,,,,,,,,,,,,
,,,,,V2_001,19,Female,2024-02-27_13h05.38.251,jersey_experiment_5_v2,2023.2.2,Win32,84.74576271,,,,,,,,,,,,,,,,694.8467,696.7054,696.7054,697.2347,return,0.1512,,82.29166667,,,,,,FBP-YG-91.png,0.45,1.2,60,0.25,,,,,,,,,,,,,0,34,34,59,1,,,,,,,,,,,,,,,,,,,,,,,,,,,,
,,,,,V2_001,19,Female,2024-02-27_13h05.38.251,jersey_experiment_5_v2,2023.2.2,Win32,84.74576271,,,,,,,,,,,,,,,,697.2349,699.0821,699.0822,700.3055,return,0.1402,,46.74479167,,,,,,FBP-YG-91.png,0.35,1.2,56,0.25,,,,,,,,,,,,,0,35,35,55,1,,,,,,,,,,,,,,,,,,,,,,,,,,,,
,,,,,V2_001,19,Female,2024-02-27_13h05.38.251,jersey_experiment_5_v2,2023.2.2,Win32,84.74576271,,,,,,,,,,,,,,,,700.3056,702.3996,702.3997,703.0115,return,0.1879,,40.234375,,,,,,FBP-PT-19.png,0.35,1.2,11,0.5,,,,,,,,,,,,,0,36,36,10,1,,,,,,,,,,,,,,,,,,,,,,,,,,,,
,,,,,V2_001,19,Female,2024-02-27_13h05.38.251,jersey_experiment_5_v2,2023.2.2,Win32,84.74576271,,,,,,,,,,,,,,,,703.0116,704.8587,704.8587,705.8703,return,0.1552,,76.171875,,,,,,FBP-YG-91.png,0.43,1.2,59,0.25,,,,,,,,,,,,,0,37,37,58,1,,,,,,,,,,,,,,,,,,,,,,,,,,,,
,,,,,V2_001,19,Female,2024-02-27_13h05.38.251,jersey_experiment_5_v2,2023.2.2,Win32,84.74576271,,,,,,,,,,,,,,,,705.8705,707.9763,707.9763,708.8822,return,0.1411,,56.25,,,,,,FBP-PT-19.png,0.37,1.2,12,0.5,,,,,,,,,,,,,0,38,38,11,1,,,,,,,,,,,,,,,,,,,,,,,,,,,,
,,,,,V2_001,19,Female,2024-02-27_13h05.38.251,jersey_experiment_5_v2,2023.2.2,Win32,84.74576271,,,,,,,,,,,,,,,,708.8823,710.9766,710.9767,711.8234,return,0.0602,,75.91145833,,,,,,FBP-PT-19.png,0.43,1.2,14,0.5,,,,,,,,,,,,,0,39,39,13,1,,,,,,,,,,,,,,,,,,,,,,,,,,,,
,,,,,V2_001,19,Female,2024-02-27_13h05.38.251,jersey_experiment_5_v2,2023.2.2,Win32,84.74576271,,,,,,,,,,,,,,,,711.8236,713.9297,713.9297,714.5413,return,0.1105,,55.98958333,,,,,,FBP-PT-18.png,0.37,1.2,7,0.5,,,,,,,,,,,,,0,40,40,6,1,,,,,,,,,,,,,,,,,,,,,,,,,,,,
,,,,,V2_001,19,Female,2024-02-27_13h05.38.251,jersey_experiment_5_v2,2023.2.2,Win32,84.74576271,,,,,,,,,,,,,,,,714.5415,716.6356,716.6357,717.3767,return,0.0818,,89.32291667,,,,,,FBP-PT-17.png,0.45,1.2,5,0.5,,,,,,,,,,,,,0,41,41,4,1,,,,,,,,,,,,,,,,,,,,,,,,,,,,
,,,,,V2_001,19,Female,2024-02-27_13h05.38.251,jersey_experiment_5_v2,2023.2.2,Win32,84.74576271,,,,,,,,,,,,,,,,717.3768,719.224,719.224,720.0003,return,0.0839,,69.40104167,,,,,,FBP-RB-19.png,0.4,1.2,43,0.25,,,,,,,,,,,,,0,42,42,42,1,,,,,,,,,,,,,,,,,,,,,,,,,,,,
,,,,,V2_001,19,Female,2024-02-27_13h05.38.251,jersey_experiment_5_v2,2023.2.2,Win32,84.74576271,,,,,,,,,,,,,,,,720.0006,721.8592,721.8593,722.3298,return,0.0907,,90.88541667,,,,,,FBP-YG-71.png,0.45,1.2,50,0.25,,,,,,,,,,,,,0,43,43,49,1,,,,,,,,,,,,,,,,,,,,,,,,,,,,
,,,,,V2_001,19,Female,2024-02-27_13h05.38.251,jersey_experiment_5_v2,2023.2.2,Win32,84.74576271,,,,,,,,,,,,,,,,722.33,724.1889,724.189,724.9533,return,0.1262,,45.83333333,,,,,,FBP-YG-81.png,0.35,1.2,51,0.25,,,,,,,,,,,,,0,44,44,50,1,,,,,,,,,,,,,,,,,,,,,,,,,,,,
,,,,,V2_001,19,Female,2024-02-27_13h05.38.251,jersey_experiment_5_v2,2023.2.2,Win32,84.74576271,,,,,,,,,,,,,,,,724.9535,726.8123,726.8124,727.4125,return,0.0721,,62.36979167,,,,,,FBP-OG-17.png,0.4,1.2,18,0.25,,,,,,,,,,,,,0,45,45,17,1,,,,,,,,,,,,,,,,,,,,,,,,,,,,
,,,,,V2_001,19,Female,2024-02-27_13h05.38.251,jersey_experiment_5_v2,2023.2.2,Win32,84.74576271,,,,,,,,,,,,,,,,727.4128,729.2593,729.2594,730.7183,return,0.7432,,57.29166667,,,,,,FBP-YG-81.png,0.4,1.2,53,0.25,,,,,,,,,,,,,0,46,46,52,1,,,,,,,,,,,,,,,,,,,,,,,,,,,,
,,,,,V2_001,19,Female,2024-02-27_13h05.38.251,jersey_experiment_5_v2,2023.2.2,Win32,84.74576271,,,,,,,,,,,,,,,,730.7186,732.5657,732.5657,734.095,return,0.2031,,38.02083333,,,,,,FBP-RB-18.png,0.35,1.2,36,0.25,,,,,,,,,,,,,0,47,47,35,1,,,,,,,,,,,,,,,,,,,,,,,,,,,,
,,,,,V2_001,19,Female,2024-02-27_13h05.38.251,jersey_experiment_5_v2,2023.2.2,Win32,84.74576271,,,,,,,,,,,,,,,,734.0952,736.1892,736.1892,737.401,return,0.0193,,49.08854167,,,,,,FBP-PT-19.png,0.4,1.2,13,0.5,,,,,,,,,,,,,0,48,48,12,1,,,,,,,,,,,,,,,,,,,,,,,,,,,,
,,,,,V2_001,19,Female,2024-02-27_13h05.38.251,jersey_experiment_5_v2,2023.2.2,Win32,84.74576271,,,,,,,,,,,,,,,,737.4012,739.5069,739.507,739.9658,return,0.1549,,58.07291667,,,,,,FBP-PT-17.png,0.4,1.2,3,0.5,,,,,,,,,,,,,0,49,49,2,1,,,,,,,,,,,,,,,,,,,,,,,,,,,,
,,,,,V2_001,19,Female,2024-02-27_13h05.38.251,jersey_experiment_5_v2,2023.2.2,Win32,84.74576271,,,,,,,,,,,,,,,,739.9659,741.8247,741.8247,742.8835,return,0.5649,,73.30729167,,,,,,FBP-RB-17.png,0.45,1.2,35,0.25,,,,,,,,,,,,,0,50,50,34,1,,,,,,,,,,,,,,,,,,,,,,,,,,,,
,,,,,V2_001,19,Female,2024-02-27_13h05.38.251,jersey_experiment_5_v2,2023.2.2,Win32,84.74576271,,,,,,,,,,,,,,,,742.8837,744.9778,744.9778,745.4366,return,0.1216,,79.42708333,,,,,,FBP-PT-19.png,0.45,1.2,15,0.5,,,,,,,,,,,,,0,51,51,14,1,,,,,,,,,,,,,,,,,,,,,,,,,,,,
,,,,,V2_001,19,Female,2024-02-27_13h05.38.251,jersey_experiment_5_v2,2023.2.2,Win32,84.74576271,,,,,,,,,,,,,,,,745.4369,747.2836,747.2836,748.8836,return,0.2828,,79.42708333,,,,,,FBP-RB-18.png,0.45,1.2,40,0.25,,,,,,,,,,,,,0,52,52,39,1,,,,,,,,,,,,,,,,,,,,,,,,,,,,
,,,,,V2_001,19,Female,2024-02-27_13h05.38.251,jersey_experiment_5_v2,2023.2.2,Win32,84.74576271,,,,,,,,,,,,,,,,748.8838,750.731,750.7311,751.7308,return,0.118,,36.19791667,,,,,,FBP-YG-71.png,0.35,1.2,46,0.25,,,,,,,,,,,,,0,53,53,45,1,,,,,,,,,,,,,,,,,,,,,,,,,,,,
,,,,,V2_001,19,Female,2024-02-27_13h05.38.251,jersey_experiment_5_v2,2023.2.2,Win32,84.74576271,,,,,,,,,,,,,,,,751.7311,753.825,753.825,754.331,return,0.0658,,52.60416667,,,,,,FBP-PT-18.png,0.4,1.2,8,0.5,,,,,,,,,,,,,0,54,54,7,1,,,,,,,,,,,,,,,,,,,,,,,,,,,,
,,,,,V2_001,19,Female,2024-02-27_13h05.38.251,jersey_experiment_5_v2,2023.2.2,Win32,84.74576271,,,,,,,,,,,,,,,,754.3313,756.1899,756.1899,756.7546,return,0.1407,,73.17708333,,,,,,FBP-OG-19.png,0.45,1.2,30,0.25,,,,,,,,,,,,,0,55,55,29,1,,,,,,,,,,,,,,,,,,,,,,,,,,,,
,,,,,V2_001,19,Female,2024-02-27_13h05.38.251,jersey_experiment_5_v2,2023.2.2,Win32,84.74576271,,,,,,,,,,,,,,,,756.7549,758.6019,758.6019,759.684,return,0.1415,,26.04166667,,,,,,FBP-RB-17.png,0.35,1.2,31,0.25,,,,,,,,,,,,,0,56,56,30,1,,,,,,,,,,,,,,,,,,,,,,,,,,,,
,,,,,V2_001,19,Female,2024-02-27_13h05.38.251,jersey_experiment_5_v2,2023.2.2,Win32,84.74576271,,,,,,,,,,,,,,,,759.6842,761.7784,761.7785,763.4254,return,0.1279,,66.66666667,,,,,,FBP-PT-18.png,0.43,1.2,9,0.5,,,,,,,,,,,,,0,57,57,8,1,,,,,,,,,,,,,,,,,,,,,,,,,,,,
,,,,,V2_001,19,Female,2024-02-27_13h05.38.251,jersey_experiment_5_v2,2023.2.2,Win32,84.74576271,,,,,,,,,,,,,,,,763.4257,765.2843,765.2844,765.8726,return,0.1057,,66.66666667,,,,,,FBP-RB-17.png,0.43,1.2,34,0.25,,,,,,,,,,,,,0,58,58,33,1,,,,,,,,,,,,,,,,,,,,,,,,,,,,
,,,,,V2_001,19,Female,2024-02-27_13h05.38.251,jersey_experiment_5_v2,2023.2.2,Win32,84.74576271,,,,,,,,,,,,,,,,765.8728,767.9668,767.9668,768.649,return,0.1366,,49.21875,,,,,,FBP-PT-17.png,0.37,1.2,2,0.5,,,,,,,,,,,,,0,59,59,1,1,,,,,,,,,,,,,,,,,,,,,,,,,,,,
,,,,,V2_001,19,Female,2024-02-27_13h05.38.251,jersey_experiment_5_v2,2023.2.2,Win32,84.74576271,,,,,,,,,,,,,,,,768.6505,770.5081,770.5081,771.708,return,0.3354,,49.21875,,,,,,FBP-YG-18.png,0.43,1.2,54,0.25,,,,,,,,,,,,,,,,,,0,0,0,53,1,,,,,,,,,,,,,,,,,,,,,,,
,,,,,V2_001,19,Female,2024-02-27_13h05.38.251,jersey_experiment_5_v2,2023.2.2,Win32,84.74576271,,,,,,,,,,,,,,,,771.7083,773.5554,773.5554,774.2847,return,0.0507,,37.23958333,,,,,,FBP-YG-18.png,0.35,1.2,51,0.25,,,,,,,,,,,,,,,,,,0,1,1,50,1,,,,,,,,,,,,,,,,,,,,,,,
,,,,,V2_001,19,Female,2024-02-27_13h05.38.251,jersey_experiment_5_v2,2023.2.2,Win32,84.74576271,,,,,,,,,,,,,,,,774.2849,776.1318,776.1318,776.6259,return,0.1648,,59.765625,,,,,,FBP-OG-81.png,0.43,1.2,24,0.25,,,,,,,,,,,,,,,,,,0,2,2,23,1,,,,,,,,,,,,,,,,,,,,,,,
,,,,,V2_001,19,Female,2024-02-27_13h05.38.251,jersey_experiment_5_v2,2023.2.2,Win32,84.74576271,,,,,,,,,,,,,,,,776.626,778.473,778.4731,778.9437,return,0.0611,,69.66145833,,,,,,FBP-YG-19.png,0.43,1.2,59,0.25,,,,,,,,,,,,,,,,,,0,3,3,58,1,,,,,,,,,,,,,,,,,,,,,,,
,,,,,V2_001,19,Female,2024-02-27_13h05.38.251,jersey_experiment_5_v2,2023.2.2,Win32,84.74576271,,,,,,,,,,,,,,,,778.9439,781.0496,781.0496,781.5791,return,0.1472,,69.66145833,,,,,,FBP-PT-91.png,0.43,1.2,14,0.5,,,,,,,,,,,,,,,,,,0,4,4,13,1,,,,,,,,,,,,,,,,,,,,,,,
,,,,,V2_001,19,Female,2024-02-27_13h05.38.251,jersey_experiment_5_v2,2023.2.2,Win32,84.74576271,,,,,,,,,,,,,,,,781.5793,783.4263,783.4263,784.4967,return,0.1306,,44.27083333,,,,,,FBP-OG-71.png,0.35,1.2,16,0.25,,,,,,,,,,,,,,,,,,0,5,5,15,1,,,,,,,,,,,,,,,,,,,,,,,
,,,,,V2_001,19,Female,2024-02-27_13h05.38.251,jersey_experiment_5_v2,2023.2.2,Win32,84.74576271,,,,,,,,,,,,,,,,784.4969,786.3439,786.344,787.0498,return,0.0891,,28.25520833,,,,,,FBP-YG-17.png,0.35,1.2,46,0.25,,,,,,,,,,,,,,,,,,0,6,6,45,1,,,,,,,,,,,,,,,,,,,,,,,
,,,,,V2_001,19,Female,2024-02-27_13h05.38.251,jersey_experiment_5_v2,2023.2.2,Win32,84.74576271,,,,,,,,,,,,,,,,787.0499,788.9087,788.9087,789.4382,return,0.1568,,28.125,,,,,,FBP-YG-18.png,0.37,1.2,52,0.25,,,,,,,,,,,,,,,,,,0,7,7,51,1,,,,,,,,,,,,,,,,,,,,,,,
,,,,,V2_001,19,Female,2024-02-27_13h05.38.251,jersey_experiment_5_v2,2023.2.2,Win32,84.74576271,,,,,,,,,,,,,,,,789.4385,791.5324,791.5325,791.9206,return,0.119,,58.203125,,,,,,FBP-PT-81.png,0.43,1.2,9,0.5,,,,,,,,,,,,,,,,,,0,8,8,8,1,,,,,,,,,,,,,,,,,,,,,,,
,,,,,V2_001,19,Female,2024-02-27_13h05.38.251,jersey_experiment_5_v2,2023.2.2,Win32,84.74576271,,,,,,,,,,,,,,,,791.9209,794.0149,794.0149,794.5913,return,0.1192,,30.078125,,,,,,FBP-PT-81.png,0.35,1.2,6,0.5,,,,,,,,,,,,,,,,,,0,9,9,5,1,,,,,,,,,,,,,,,,,,,,,,,
,,,,,V2_001,19,Female,2024-02-27_13h05.38.251,jersey_experiment_5_v2,2023.2.2,Win32,84.74576271,,,,,,,,,,,,,,,,794.5916,796.4384,796.4384,796.8973,return,0.0375,,55.46875,,,,,,FBP-YG-17.png,0.4,1.2,48,0.25,,,,,,,,,,,,,,,,,,0,10,10,47,1,,,,,,,,,,,,,,,,,,,,,,,
,,,,,V2_001,19,Female,2024-02-27_13h05.38.251,jersey_experiment_5_v2,2023.2.2,Win32,84.74576271,,,,,,,,,,,,,,,,796.8976,799.0033,799.0033,799.4738,return,0.0579,,47.13541667,,,,,,FBP-PT-91.png,0.37,1.2,12,0.5,,,,,,,,,,,,,,,,,,0,11,11,11,1,,,,,,,,,,,,,,,,,,,,,,,
,,,,,V2_001,19,Female,2024-02-27_13h05.38.251,jersey_experiment_5_v2,2023.2.2,Win32,84.74576271,,,,,,,,,,,,,,,,799.474,801.5798,801.5798,802.2268,return,0.1043,,69.79166667,,,,,,FBP-PT-71.png,0.43,1.2,4,0.5,,,,,,,,,,,,,,,,,,0,12,12,3,1,,,,,,,,,,,,,,,,,,,,,,,
,,,,,V2_001,19,Female,2024-02-27_13h05.38.251,jersey_experiment_5_v2,2023.2.2,Win32,84.74576271,,,,,,,,,,,,,,,,802.227,804.0857,804.0858,804.4506,return,0.1421,,86.19791667,,,,,,FBP-OG-71.png,0.45,1.2,20,0.25,,,,,,,,,,,,,,,,,,0,13,13,19,1,,,,,,,,,,,,,,,,,,,,,,,
,,,,,V2_001,19,Female,2024-02-27_13h05.38.251,jersey_experiment_5_v2,2023.2.2,Win32,84.74576271,,,,,,,,,,,,,,,,804.4508,806.5566,806.5566,807.0388,return,0.0147,,89.453125,,,,,,FBP-PT-81.png,0.45,1.2,10,0.5,,,,,,,,,,,,,,,,,,0,14,14,9,1,,,,,,,,,,,,,,,,,,,,,,,
,,,,,V2_001,19,Female,2024-02-27_13h05.38.251,jersey_experiment_5_v2,2023.2.2,Win32,84.74576271,,,,,,,,,,,,,,,,807.039,808.8978,808.8978,810.4508,return,0.6734,,58.85416667,,,,,,FBP-OG-81.png,0.35,1.2,21,0.25,,,,,,,,,,,,,,,,,,0,15,15,20,1,,,,,,,,,,,,,,,,,,,,,,,
,,,,,V2_001,19,Female,2024-02-27_13h05.38.251,jersey_experiment_5_v2,2023.2.2,Win32,84.74576271,,,,,,,,,,,,,,,,810.4509,812.2979,812.298,812.8273,return,0.136,,63.02083333,,,,,,FBP-YG-18.png,0.4,1.2,53,0.25,,,,,,,,,,,,,,,,,,0,16,16,52,1,,,,,,,,,,,,,,,,,,,,,,,
,,,,,V2_001,19,Female,2024-02-27_13h05.38.251,jersey_experiment_5_v2,2023.2.2,Win32,84.74576271,,,,,,,,,,,,,,,,812.8275,814.9332,814.9333,815.3921,return,0.085,,61.97916667,,,,,,FBP-PT-91.png,0.4,1.2,13,0.5,,,,,,,,,,,,,,,,,,0,17,17,12,1,,,,,,,,,,,,,,,,,,,,,,,
,,,,,V2_001,19,Female,2024-02-27_13h05.38.251,jersey_experiment_5_v2,2023.2.2,Win32,84.74576271,,,,,,,,,,,,,,,,815.3923,817.251,817.251,817.7451,return,0.1541,,75.91145833,,,,,,FBP-YG-19.png,0.45,1.2,60,0.25,,,,,,,,,,,,,,,,,,0,18,18,59,1,,,,,,,,,,,,,,,,,,,,,,,
,,,,,V2_001,19,Female,2024-02-27_13h05.38.251,jersey_experiment_5_v2,2023.2.2,Win32,84.74576271,,,,,,,,,,,,,,,,817.7453,819.6042,819.6042,820.1452,return,0.085,,61.45833333,,,,,,FBP-YG-19.png,0.37,1.2,57,0.25,,,,,,,,,,,,,,,,,,0,19,19,56,1,,,,,,,,,,,,,,,,,,,,,,,
,,,,,V2_001,19,Female,2024-02-27_13h05.38.251,jersey_experiment_5_v2,2023.2.2,Win32,84.74576271,,,,,,,,,,,,,,,,820.1454,821.9922,821.9923,822.5571,return,0.2275,,78.125,,,,,,FBP-RB-71.png,0.45,1.2,35,0.25,,,,,,,,,,,,,,,,,,0,20,20,34,1,,,,,,,,,,,,,,,,,,,,,,,
,,,,,V2_001,19,Female,2024-02-27_13h05.38.251,jersey_experiment_5_v2,2023.2.2,Win32,84.74576271,,,,,,,,,,,,,,,,822.5571,824.4042,824.4042,824.7451,return,0.1025,,86.97916667,,,,,,FBP-YG-18.png,0.45,1.2,55,0.25,,,,,,,,,,,,,,,,,,0,21,21,54,1,,,,,,,,,,,,,,,,,,,,,,,
,,,,,V2_001,19,Female,2024-02-27_13h05.38.251,jersey_experiment_5_v2,2023.2.2,Win32,84.74576271,,,,,,,,,,,,,,,,824.7453,826.8513,826.8514,827.2278,return,0.1933,,72.13541667,,,,,,FBP-PT-71.png,0.37,1.2,2,0.5,,,,,,,,,,,,,,,,,,0,22,22,1,1,,,,,,,,,,,,,,,,,,,,,,,
,,,,,V2_001,19,Female,2024-02-27_13h05.38.251,jersey_experiment_5_v2,2023.2.2,Win32,84.74576271,,,,,,,,,,,,,,,,827.2279,829.0749,829.0749,829.5454,return,0.1261,,88.671875,,,,,,FBP-OG-81.png,0.45,1.2,25,0.25,,,,,,,,,,,,,,,,,,0,23,23,24,1,,,,,,,,,,,,,,,,,,,,,,,
,,,,,V2_001,19,Female,2024-02-27_13h05.38.251,jersey_experiment_5_v2,2023.2.2,Win32,84.74576271,,,,,,,,,,,,,,,,829.5456,831.6397,831.6398,832.4986,return,0.0241,,61.71875,,,,,,FBP-PT-81.png,0.37,1.2,7,0.5,,,,,,,,,,,,,,,,,,0,24,24,6,1,,,,,,,,,,,,,,,,,,,,,,,
,,,,,V2_001,19,Female,2024-02-27_13h05.38.251,jersey_experiment_5_v2,2023.2.2,Win32,84.74576271,,,,,,,,,,,,,,,,832.4989,834.3456,834.3457,834.7456,return,0.1355,,68.61979167,,,,,,FBP-OG-81.png,0.37,1.2,22,0.25,,,,,,,,,,,,,,,,,,0,25,25,21,1,,,,,,,,,,,,,,,,,,,,,,,
,,,,,V2_001,19,Female,2024-02-27_13h05.38.251,jersey_experiment_5_v2,2023.2.2,Win32,84.74576271,,,,,,,,,,,,,,,,834.7458,836.6048,836.6048,837.1223,return,0.0808,,62.109375,,,,,,FBP-RB-91.png,0.37,1.2,42,0.25,,,,,,,,,,,,,,,,,,0,26,26,41,1,,,,,,,,,,,,,,,,,,,,,,,
,,,,,V2_001,19,Female,2024-02-27_13h05.38.251,jersey_experiment_5_v2,2023.2.2,Win32,84.74576271,,,,,,,,,,,,,,,,837.1224,838.9812,838.9812,839.4753,return,0.105,,58.72395833,,,,,,FBP-RB-91.png,0.35,1.2,41,0.25,,,,,,,,,,,,,,,,,,0,27,27,40,1,,,,,,,,,,,,,,,,,,,,,,,
,,,,,V2_001,19,Female,2024-02-27_13h05.38.251,jersey_experiment_5_v2,2023.2.2,Win32,84.74576271,,,,,,,,,,,,,,,,839.4755,841.3224,841.3225,841.7225,return,0.0899,,63.02083333,,,,,,FBP-RB-81.png,0.37,1.2,37,0.25,,,,,,,,,,,,,,,,,,0,28,28,36,1,,,,,,,,,,,,,,,,,,,,,,,
,,,,,V2_001,19,Female,2024-02-27_13h05.38.251,jersey_experiment_5_v2,2023.2.2,Win32,84.74576271,,,,,,,,,,,,,,,,841.7227,843.8169,843.8169,844.393,return,0.1263,,58.59375,,,,,,FBP-PT-71.png,0.35,1.2,1,0.5,,,,,,,,,,,,,,,,,,0,29,29,0,1,,,,,,,,,,,,,,,,,,,,,,,
,,,,,V2_001,19,Female,2024-02-27_13h05.38.251,jersey_experiment_5_v2,2023.2.2,Win32,84.74576271,,,,,,,,,,,,,,,,844.3931,846.252,846.252,846.6285,return,0.0942,,58.33333333,,,,,,FBP-OG-71.png,0.37,1.2,17,0.25,,,,,,,,,,,,,,,,,,0,30,30,16,1,,,,,,,,,,,,,,,,,,,,,,,
,,,,,V2_001,19,Female,2024-02-27_13h05.38.251,jersey_experiment_5_v2,2023.2.2,Win32,84.74576271,,,,,,,,,,,,,,,,846.6287,848.4757,848.4757,848.9227,return,0.0658,,62.890625,,,,,,FBP-YG-17.png,0.37,1.2,47,0.25,,,,,,,,,,,,,,,,,,0,31,31,46,1,,,,,,,,,,,,,,,,,,,,,,,
,,,,,V2_001,19,Female,2024-02-27_13h05.38.251,jersey_experiment_5_v2,2023.2.2,Win32,84.74576271,,,,,,,,,,,,,,,,848.9229,850.7698,850.7699,851.664,return,0.1537,,62.890625,,,,,,FBP-OG-91.png,0.37,1.2,27,0.25,,,,,,,,,,,,,,,,,,0,32,32,26,1,,,,,,,,,,,,,,,,,,,,,,,
,,,,,V2_001,19,Female,2024-02-27_13h05.38.251,jersey_experiment_5_v2,2023.2.2,Win32,84.74576271,,,,,,,,,,,,,,,,851.6642,853.5111,853.5112,854.0641,return,0.0596,,62.890625,,,,,,FBP-RB-71.png,0.37,1.2,32,0.25,,,,,,,,,,,,,,,,,,0,33,33,31,1,,,,,,,,,,,,,,,,,,,,,,,
,,,,,V2_001,19,Female,2024-02-27_13h05.38.251,jersey_experiment_5_v2,2023.2.2,Win32,84.74576271,,,,,,,,,,,,,,,,854.0643,855.9113,855.9113,856.4289,return,0.1683,,75.26041667,,,,,,FBP-RB-91.png,0.45,1.2,45,0.25,,,,,,,,,,,,,,,,,,0,34,34,44,1,,,,,,,,,,,,,,,,,,,,,,,
,,,,,V2_001,19,Female,2024-02-27_13h05.38.251,jersey_experiment_5_v2,2023.2.2,Win32,84.74576271,,,,,,,,,,,,,,,,856.4292,858.5348,858.5349,859.0408,return,0.1652,,82.421875,,,,,,FBP-PT-91.png,0.45,1.2,15,0.5,,,,,,,,,,,,,,,,,,0,35,35,14,1,,,,,,,,,,,,,,,,,,,,,,,
,,,,,V2_001,19,Female,2024-02-27_13h05.38.251,jersey_experiment_5_v2,2023.2.2,Win32,84.74576271,,,,,,,,,,,,,,,,859.041,860.8996,860.8996,861.3232,return,0.0655,,73.95833333,,,,,,FBP-OG-71.png,0.4,1.2,18,0.25,,,,,,,,,,,,,,,,,,0,36,36,17,1,,,,,,,,,,,,,,,,,,,,,,,
,,,,,V2_001,19,Female,2024-02-27_13h05.38.251,jersey_experiment_5_v2,2023.2.2,Win32,84.74576271,,,,,,,,,,,,,,,,861.3234,863.1703,863.1703,863.5939,return,0.1018,,82.94270833,,,,,,FBP-OG-91.png,0.43,1.2,29,0.25,,,,,,,,,,,,,,,,,,0,37,37,28,1,,,,,,,,,,,,,,,,,,,,,,,
,,,,,V2_001,19,Female,2024-02-27_13h05.38.251,jersey_experiment_5_v2,2023.2.2,Win32,84.74576271,,,,,,,,,,,,,,,,863.594,865.441,865.441,865.9352,return,0.1557,,53.515625,,,,,,FBP-OG-91.png,0.35,1.2,26,0.25,,,,,,,,,,,,,,,,,,0,38,38,25,1,,,,,,,,,,,,,,,,,,,,,,,
,,,,,V2_001,19,Female,2024-02-27_13h05.38.251,jersey_experiment_5_v2,2023.2.2,Win32,84.74576271,,,,,,,,,,,,,,,,865.9354,868.0293,868.0293,868.6529,return,0.1225,,40.36458333,,,,,,FBP-PT-91.png,0.35,1.2,11,0.5,,,,,,,,,,,,,,,,,,0,39,39,10,1,,,,,,,,,,,,,,,,,,,,,,,
,,,,,V2_001,19,Female,2024-02-27_13h05.38.251,jersey_experiment_5_v2,2023.2.2,Win32,84.74576271,,,,,,,,,,,,,,,,868.653,870.5001,870.5002,871.7117,return,0.1296,,51.953125,,,,,,FBP-RB-81.png,0.35,1.2,36,0.25,,,,,,,,,,,,,,,,,,0,40,40,35,1,,,,,,,,,,,,,,,,,,,,,,,
,,,,,V2_001,19,Female,2024-02-27_13h05.38.251,jersey_experiment_5_v2,2023.2.2,Win32,84.74576271,,,,,,,,,,,,,,,,871.7118,873.5591,873.5591,874.0411,return,0.0657,,65.49479167,,,,,,FBP-YG-17.png,0.45,1.2,50,0.25,,,,,,,,,,,,,,,,,,0,41,41,49,1,,,,,,,,,,,,,,,,,,,,,,,
,,,,,V2_001,19,Female,2024-02-27_13h05.38.251,jersey_experiment_5_v2,2023.2.2,Win32,84.74576271,,,,,,,,,,,,,,,,874.0413,875.9003,875.9003,876.4179,return,0.0576,,71.22395833,,,,,,FBP-RB-81.png,0.43,1.2,39,0.25,,,,,,,,,,,,,,,,,,0,42,42,38,1,,,,,,,,,,,,,,,,,,,,,,,
,,,,,V2_001,19,Female,2024-02-27_13h05.38.251,jersey_experiment_5_v2,2023.2.2,Win32,84.74576271,,,,,,,,,,,,,,,,876.4181,878.2767,878.2767,879.218,return,0.0575,,71.22395833,,,,,,FBP-RB-91.png,0.4,1.2,43,0.25,,,,,,,,,,,,,,,,,,0,43,43,42,1,,,,,,,,,,,,,,,,,,,,,,,
,,,,,V2_001,19,Female,2024-02-27_13h05.38.251,jersey_experiment_5_v2,2023.2.2,Win32,84.74576271,,,,,,,,,,,,,,,,879.2181,881.0768,881.0769,881.6298,return,0.298,,77.47395833,,,,,,FBP-OG-71.png,0.43,1.2,19,0.25,,,,,,,,,,,,,,,,,,0,44,44,18,1,,,,,,,,,,,,,,,,,,,,,,,
,,,,,V2_001,19,Female,2024-02-27_13h05.38.251,jersey_experiment_5_v2,2023.2.2,Win32,84.74576271,,,,,,,,,,,,,,,,881.6301,883.4769,883.4769,884.0651,return,0.0575,,69.27083333,,,,,,FBP-YG-19.png,0.4,1.2,58,0.25,,,,,,,,,,,,,,,,,,0,45,45,57,1,,,,,,,,,,,,,,,,,,,,,,,
,,,,,V2_001,19,Female,2024-02-27_13h05.38.251,jersey_experiment_5_v2,2023.2.2,Win32,84.74576271,,,,,,,,,,,,,,,,884.0654,885.9125,885.9125,886.3476,return,0.0534,,79.296875,,,,,,FBP-RB-71.png,0.43,1.2,34,0.25,,,,,,,,,,,,,,,,,,0,46,46,33,1,,,,,,,,,,,,,,,,,,,,,,,
,,,,,V2_001,19,Female,2024-02-27_13h05.38.251,jersey_experiment_5_v2,2023.2.2,Win32,84.74576271,,,,,,,,,,,,,,,,886.3477,888.2064,888.2065,888.5947,return,0.155,,71.35416667,,,,,,FBP-RB-71.png,0.4,1.2,33,0.25,,,,,,,,,,,,,,,,,,0,47,47,32,1,,,,,,,,,,,,,,,,,,,,,,,
,,,,,V2_001,19,Female,2024-02-27_13h05.38.251,jersey_experiment_5_v2,2023.2.2,Win32,84.74576271,,,,,,,,,,,,,,,,888.5949,890.4419,890.442,891.1361,return,0.0607,,49.609375,,,,,,FBP-RB-71.png,0.35,1.2,31,0.25,,,,,,,,,,,,,,,,,,0,48,48,30,1,,,,,,,,,,,,,,,,,,,,,,,
,,,,,V2_001,19,Female,2024-02-27_13h05.38.251,jersey_experiment_5_v2,2023.2.2,Win32,84.74576271,,,,,,,,,,,,,,,,891.1363,892.995,892.9951,893.9715,return,0.1416,,70.18229167,,,,,,FBP-YG-17.png,0.43,1.2,49,0.25,,,,,,,,,,,,,,,,,,0,49,49,48,1,,,,,,,,,,,,,,,,,,,,,,,
,,,,,V2_001,19,Female,2024-02-27_13h05.38.251,jersey_experiment_5_v2,2023.2.2,Win32,84.74576271,,,,,,,,,,,,,,,,893.9716,895.8188,895.8189,896.3478,return,0.1471,,60.80729167,,,,,,FBP-OG-81.png,0.4,1.2,23,0.25,,,,,,,,,,,,,,,,,,0,50,50,22,1,,,,,,,,,,,,,,,,,,,,,,,
,,,,,V2_001,19,Female,2024-02-27_13h05.38.251,jersey_experiment_5_v2,2023.2.2,Win32,84.74576271,,,,,,,,,,,,,,,,896.3481,898.4422,898.4423,898.9246,return,0.1217,,60.80729167,,,,,,FBP-PT-71.png,0.4,1.2,3,0.5,,,,,,,,,,,,,,,,,,0,51,51,2,1,,,,,,,,,,,,,,,,,,,,,,,
,,,,,V2_001,19,Female,2024-02-27_13h05.38.251,jersey_experiment_5_v2,2023.2.2,Win32,84.74576271,,,,,,,,,,,,,,,,898.9248,900.7717,900.7718,901.1952,return,0.1949,,72.65625,,,,,,FBP-RB-91.png,0.43,1.2,44,0.25,,,,,,,,,,,,,,,,,,0,52,52,43,1,,,,,,,,,,,,,,,,,,,,,,,
,,,,,V2_001,19,Female,2024-02-27_13h05.38.251,jersey_experiment_5_v2,2023.2.2,Win32,84.74576271,,,,,,,,,,,,,,,,901.1954,903.0426,903.0427,903.6777,return,0.1573,,52.99479167,,,,,,FBP-OG-91.png,0.4,1.2,28,0.25,,,,,,,,,,,,,,,,,,0,53,53,27,1,,,,,,,,,,,,,,,,,,,,,,,
,,,,,V2_001,19,Female,2024-02-27_13h05.38.251,jersey_experiment_5_v2,2023.2.2,Win32,84.74576271,,,,,,,,,,,,,,,,903.6779,905.7836,905.7836,906.3483,return,0.1936,,52.34375,,,,,,FBP-PT-81.png,0.4,1.2,8,0.5,,,,,,,,,,,,,,,,,,0,54,54,7,1,,,,,,,,,,,,,,,,,,,,,,,
,,,,,V2_001,19,Female,2024-02-27_13h05.38.251,jersey_experiment_5_v2,2023.2.2,Win32,84.74576271,,,,,,,,,,,,,,,,906.3486,908.4425,908.4426,908.7955,return,0.1947,,69.40104167,,,,,,FBP-PT-71.png,0.45,1.2,5,0.5,,,,,,,,,,,,,,,,,,0,55,55,4,1,,,,,,,,,,,,,,,,,,,,,,,
,,,,,V2_001,19,Female,2024-02-27_13h05.38.251,jersey_experiment_5_v2,2023.2.2,Win32,84.74576271,,,,,,,,,,,,,,,,908.7957,910.6427,910.6427,911.0661,return,0.1371,,77.734375,,,,,,FBP-OG-91.png,0.45,1.2,30,0.25,,,,,,,,,,,,,,,,,,0,56,56,29,1,,,,,,,,,,,,,,,,,,,,,,,
,,,,,V2_001,19,Female,2024-02-27_13h05.38.251,jersey_experiment_5_v2,2023.2.2,Win32,84.74576271,,,,,,,,,,,,,,,,911.0664,912.9132,912.9132,913.4663,return,0.09,,84.765625,,,,,,FBP-RB-81.png,0.45,1.2,40,0.25,,,,,,,,,,,,,,,,,,0,57,57,39,1,,,,,,,,,,,,,,,,,,,,,,,
,,,,,V2_001,19,Female,2024-02-27_13h05.38.251,jersey_experiment_5_v2,2023.2.2,Win32,84.74576271,,,,,,,,,,,,,,,,913.4665,915.3252,915.3252,916.1723,return,0.0266,,67.31770833,,,,,,FBP-RB-81.png,0.4,1.2,38,0.25,,,,,,,,,,,,,,,,,,0,58,58,37,1,,,,,,,,,,,,,,,,,,,,,,,
,,,,,V2_001,19,Female,2024-02-27_13h05.38.251,jersey_experiment_5_v2,2023.2.2,Win32,84.74576271,,,,,,,,,,,,,,,,916.1724,918.0195,918.0196,918.7488,return,0.157,,44.53125,,,,,,FBP-YG-19.png,0.35,1.2,56,0.25,,,,,,,,,,,,,,,,,,0,59,59,55,1,,,,,,,,,,,,,,,,,,,,,,,
,,,,,V2_001,19,Female,2024-02-27_13h05.38.251,jersey_experiment_5_v2,2023.2.2,Win32,84.74576271,,,,,,,,,,,,,,,,,,,,,,,,,,,,,,,,,,,,,,,,,,,,,,,,,,,,,,,,918.7492,922.3138,return,3.5595,,,,,,,,,,,,,,,,,,,
,,,,,V2_001,19,Female,2024-02-27_13h05.38.251,jersey_experiment_5_v2,2023.2.2,Win32,84.74576271,,,,,,,,,,,,,,,,,,,,,,,,,,,,,,,,,,,,,,,,,,,,,,,,,,,,,,,,,,,,,922.3138,925.7727,1,3.0189,return,0.4276,,,,,,,,,,,,
,,,,,V2_001,19,Female,2024-02-27_13h05.38.251,jersey_experiment_5_v2,2023.2.2,Win32,84.74576271,,,,,,,,,,,,,,,,,,,,,,,,,,,,,,,,,,,,,,,,,,,,,,,,,,,,,,,,,,,,,,,,,,,,925.7728,978.0973,before the break there's more slender players; after the break there's more husky players,right,45.0148,,,,,,
,,,,,V2_001,19,Female,2024-02-27_13h05.38.251,jersey_experiment_5_v2,2023.2.2,Win32,84.74576271,,,,,,,,,,,,,,,,,,,,,,,,,,,,,,,,,,,,,,,,,,,,,,,,,,,,,,,,,,,,,,,,,,,,,,,,,,978.0974,980.5158,return,2.4055,