requirements.started,requirements.stopped,key_resp_3.keys,key_resp_3.rt,key_resp_3.duration,Subject ID,Age,Gender,date,expName,psychopyVersion,OS,frameRate,instructions1.started,instructions1.stopped,key_resp.keys,key_resp.rt,key_resp.duration,example.started,example.stopped,enter_2.keys,enter_2.rt,enter_2.duration,instructions2.started,instructions2.stopped,enter_3.keys,enter_3.rt,enter_3.duration,image.started,image.stopped,slider_2.started,slider_2.stopped,next.keys,next.rt,next.duration,slider.response,trial_block_1.thisRepN,trial_block_1.thisTrialN,trial_block_1.thisN,trial_block_1.thisIndex,trial_block_1.ran,Path,Width,Height,Index,Duration,trial_block_2.thisRepN,trial_block_2.thisTrialN,trial_block_2.thisN,trial_block_2.thisIndex,trial_block_2.ran,rest_break.started,rest_break.stopped,end_break.started,end_break.stopped,key_resp_5.keys,key_resp_5.rt,key_resp_5.duration,trial_block_3.thisRepN,trial_block_3.thisTrialN,trial_block_3.thisN,trial_block_3.thisIndex,trial_block_3.ran,trial_block_4.thisRepN,trial_block_4.thisTrialN,trial_block_4.thisN,trial_block_4.thisIndex,trial_block_4.ran,questions_intro.started,questions_intro.stopped,enter_12.keys,enter_12.rt,enter_12.duration,question2.started,question2.stopped,question_doingbest.response,question_doingbest.rt,enter_15.keys,enter_15.rt,enter_15.duration,pattern.started,pattern.stopped,pattern_2.text,enter_17.keys,enter_17.rt,enter_17.duration,thankyou.started,thankyou.stopped,enter_14.keys,enter_14.rt,enter_14.duration
0.0001,13.5199,return,13.513,,V2_004,20,Female,2024-02-28_14h57.26.185,jersey_experiment_5_v2,2023.2.2,Win32,84.74576271,,,,,,,,,,,,,,,,,,,,,,,,,,,,,,,,,,,,,,,,,,,,,,,,,,,,,,,,,,,,,,,,,,,,,,,,,,,,,,
,,,,,V2_004,20,Female,2024-02-28_14h57.26.185,jersey_experiment_5_v2,2023.2.2,Win32,84.74576271,13.52,31.1701,return,17.6399,,,,,,,,,,,,,,,,,,,,,,,,,,,,,,,,,,,,,,,,,,,,,,,,,,,,,,,,,,,,,,,,,,,,,,,,,,
,,,,,V2_004,20,Female,2024-02-28_14h57.26.185,jersey_experiment_5_v2,2023.2.2,Win32,84.74576271,,,,,,31.1702,38.4996,return,7.2886,,,,,,,,,,,,,,,,,,,,,,,,,,,,,,,,,,,,,,,,,,,,,,,,,,,,,,,,,,,,,,,,,,,,,
,,,,,V2_004,20,Female,2024-02-28_14h57.26.185,jersey_experiment_5_v2,2023.2.2,Win32,84.74576271,,,,,,,,,,,38.4997,61.7759,return,23.2609,,,,,,,,,,,,,,,,,,,,,,,,,,,,,,,,,,,,,,,,,,,,,,,,,,,,,,,,,,,,,,,,
,,,,,V2_004,20,Female,2024-02-28_14h57.26.185,jersey_experiment_5_v2,2023.2.2,Win32,84.74576271,,,,,,,,,,,,,,,,61.7835,63.8935,63.8937,73.0304,return,4.8139,,25,0,0,0,25,1,FBP-OG-19.png,0.35,1.2,26,0.5,,,,,,,,,,,,,,,,,,,,,,,,,,,,,,,,,,,,,,,,,,,,,
,,,,,V2_004,20,Female,2024-02-28_14h57.26.185,jersey_experiment_5_v2,2023.2.2,Win32,84.74576271,,,,,,,,,,,,,,,,73.0307,75.1244,75.1246,84.8305,return,7.2786,,86.71875,0,1,1,34,1,FBP-RB-17.png,0.45,1.2,35,0.5,,,,,,,,,,,,,,,,,,,,,,,,,,,,,,,,,,,,,,,,,,,,,
,,,,,V2_004,20,Female,2024-02-28_14h57.26.185,jersey_experiment_5_v2,2023.2.2,Win32,84.74576271,,,,,,,,,,,,,,,,84.8349,86.6777,86.678,91.713,return,3.0856,,33.46354167,0,2,2,6,1,FBP-PT-18.png,0.37,1.2,7,0.25,,,,,,,,,,,,,,,,,,,,,,,,,,,,,,,,,,,,,,,,,,,,,
,,,,,V2_004,20,Female,2024-02-28_14h57.26.185,jersey_experiment_5_v2,2023.2.2,Win32,84.74576271,,,,,,,,,,,,,,,,91.7133,93.8073,93.8075,97.1838,return,1.5931,,49.609375,0,3,3,56,1,FBP-YG-91.png,0.37,1.2,57,0.5,,,,,,,,,,,,,,,,,,,,,,,,,,,,,,,,,,,,,,,,,,,,,
,,,,,V2_004,20,Female,2024-02-28_14h57.26.185,jersey_experiment_5_v2,2023.2.2,Win32,84.74576271,,,,,,,,,,,,,,,,97.1841,99.278,99.2783,104.5958,return,3.777,,49.609375,0,4,4,42,1,FBP-RB-19.png,0.4,1.2,43,0.5,,,,,,,,,,,,,,,,,,,,,,,,,,,,,,,,,,,,,,,,,,,,,
,,,,,V2_004,20,Female,2024-02-28_14h57.26.185,jersey_experiment_5_v2,2023.2.2,Win32,84.74576271,,,,,,,,,,,,,,,,104.6002,106.7019,106.702,110.8785,return,2.5121,,74.73958333,0,5,5,39,1,FBP-RB-18.png,0.45,1.2,40,0.5,,,,,,,,,,,,,,,,,,,,,,,,,,,,,,,,,,,,,,,,,,,,,
,,,,,V2_004,20,Female,2024-02-28_14h57.26.185,jersey_experiment_5_v2,2023.2.2,Win32,84.74576271,,,,,,,,,,,,,,,,110.8787,112.9847,112.9849,117.4787,return,2.7068,,24.609375,0,6,6,46,1,FBP-YG-71.png,0.37,1.2,47,0.5,,,,,,,,,,,,,,,,,,,,,,,,,,,,,,,,,,,,,,,,,,,,,
,,,,,V2_004,20,Female,2024-02-28_14h57.26.185,jersey_experiment_5_v2,2023.2.2,Win32,84.74576271,,,,,,,,,,,,,,,,117.4789,119.5729,119.5731,125.0084,return,3.1808,,31.11979167,0,7,7,45,1,FBP-YG-71.png,0.35,1.2,46,0.5,,,,,,,,,,,,,,,,,,,,,,,,,,,,,,,,,,,,,,,,,,,,,
,,,,,V2_004,20,Female,2024-02-28_14h57.26.185,jersey_experiment_5_v2,2023.2.2,Win32,84.74576271,,,,,,,,,,,,,,,,125.0086,127.1141,127.1145,129.8085,return,1.9097,,31.11979167,0,8,8,20,1,FBP-OG-18.png,0.35,1.2,21,0.5,,,,,,,,,,,,,,,,,,,,,,,,,,,,,,,,,,,,,,,,,,,,,
,,,,,V2_004,20,Female,2024-02-28_14h57.26.185,jersey_experiment_5_v2,2023.2.2,Win32,84.74576271,,,,,,,,,,,,,,,,129.8088,131.6556,131.6558,134.9969,return,1.5068,,99.73958333,0,9,9,4,1,FBP-PT-17.png,0.45,1.2,5,0.25,,,,,,,,,,,,,,,,,,,,,,,,,,,,,,,,,,,,,,,,,,,,,
,,,,,V2_004,20,Female,2024-02-28_14h57.26.185,jersey_experiment_5_v2,2023.2.2,Win32,84.74576271,,,,,,,,,,,,,,,,134.9972,137.0912,137.0914,140.6089,return,1.2174,,85.41666667,0,10,10,59,1,FBP-YG-91.png,0.45,1.2,60,0.5,,,,,,,,,,,,,,,,,,,,,,,,,,,,,,,,,,,,,,,,,,,,,
,,,,,V2_004,20,Female,2024-02-28_14h57.26.185,jersey_experiment_5_v2,2023.2.2,Win32,84.74576271,,,,,,,,,,,,,,,,140.6091,142.7149,142.7151,145.7267,return,1.2873,,98.69791667,0,11,11,38,1,FBP-RB-18.png,0.43,1.2,39,0.5,,,,,,,,,,,,,,,,,,,,,,,,,,,,,,,,,,,,,,,,,,,,,
,,,,,V2_004,20,Female,2024-02-28_14h57.26.185,jersey_experiment_5_v2,2023.2.2,Win32,84.74576271,,,,,,,,,,,,,,,,145.727,147.8211,147.8212,151.5033,return,1.393,,75.78125,0,12,12,28,1,FBP-OG-19.png,0.43,1.2,29,0.5,,,,,,,,,,,,,,,,,,,,,,,,,,,,,,,,,,,,,,,,,,,,,
,,,,,V2_004,20,Female,2024-02-28_14h57.26.185,jersey_experiment_5_v2,2023.2.2,Win32,84.74576271,,,,,,,,,,,,,,,,151.5035,153.3505,153.3507,156.2448,return,1.0135,,73.69791667,0,13,13,8,1,FBP-PT-18.png,0.43,1.2,9,0.25,,,,,,,,,,,,,,,,,,,,,,,,,,,,,,,,,,,,,,,,,,,,,
,,,,,V2_004,20,Female,2024-02-28_14h57.26.185,jersey_experiment_5_v2,2023.2.2,Win32,84.74576271,,,,,,,,,,,,,,,,156.245,158.0919,158.0922,160.7861,return,1.1808,,74.73958333,0,14,14,7,1,FBP-PT-18.png,0.4,1.2,8,0.25,,,,,,,,,,,,,,,,,,,,,,,,,,,,,,,,,,,,,,,,,,,,,
,,,,,V2_004,20,Female,2024-02-28_14h57.26.185,jersey_experiment_5_v2,2023.2.2,Win32,84.74576271,,,,,,,,,,,,,,,,160.7863,162.8805,162.8807,165.1979,return,1.4556,,25,0,15,15,36,1,FBP-RB-18.png,0.37,1.2,37,0.5,,,,,,,,,,,,,,,,,,,,,,,,,,,,,,,,,,,,,,,,,,,,,
,,,,,V2_004,20,Female,2024-02-28_14h57.26.185,jersey_experiment_5_v2,2023.2.2,Win32,84.74576271,,,,,,,,,,,,,,,,165.1981,167.0453,167.0454,173.1277,return,3.0588,,86.84895833,0,16,16,3,1,FBP-PT-17.png,0.43,1.2,4,0.25,,,,,,,,,,,,,,,,,,,,,,,,,,,,,,,,,,,,,,,,,,,,,
,,,,,V2_004,20,Female,2024-02-28_14h57.26.185,jersey_experiment_5_v2,2023.2.2,Win32,84.74576271,,,,,,,,,,,,,,,,173.128,175.222,175.2222,177.5279,return,0.8845,,99.34895833,0,17,17,18,1,FBP-OG-17.png,0.43,1.2,19,0.5,,,,,,,,,,,,,,,,,,,,,,,,,,,,,,,,,,,,,,,,,,,,,
,,,,,V2_004,20,Female,2024-02-28_14h57.26.185,jersey_experiment_5_v2,2023.2.2,Win32,84.74576271,,,,,,,,,,,,,,,,177.5281,179.6222,179.6224,182.1163,return,0.9649,,98.95833333,0,18,18,43,1,FBP-RB-19.png,0.43,1.2,44,0.5,,,,,,,,,,,,,,,,,,,,,,,,,,,,,,,,,,,,,,,,,,,,,
,,,,,V2_004,20,Female,2024-02-28_14h57.26.185,jersey_experiment_5_v2,2023.2.2,Win32,84.74576271,,,,,,,,,,,,,,,,182.1165,184.2106,184.2109,186.2928,return,1.0372,,98.69791667,0,19,19,48,1,FBP-YG-71.png,0.43,1.2,49,0.5,,,,,,,,,,,,,,,,,,,,,,,,,,,,,,,,,,,,,,,,,,,,,
,,,,,V2_004,20,Female,2024-02-28_14h57.26.185,jersey_experiment_5_v2,2023.2.2,Win32,84.74576271,,,,,,,,,,,,,,,,186.2931,188.1402,188.1404,191.8107,return,1.9308,,14.453125,0,20,20,0,1,FBP-PT-17.png,0.35,1.2,1,0.25,,,,,,,,,,,,,,,,,,,,,,,,,,,,,,,,,,,,,,,,,,,,,
,,,,,V2_004,20,Female,2024-02-28_14h57.26.185,jersey_experiment_5_v2,2023.2.2,Win32,84.74576271,,,,,,,,,,,,,,,,191.811,193.9049,193.9051,196.8814,return,1.4872,,24.86979167,0,21,21,31,1,FBP-RB-17.png,0.37,1.2,32,0.5,,,,,,,,,,,,,,,,,,,,,,,,,,,,,,,,,,,,,,,,,,,,,
,,,,,V2_004,20,Female,2024-02-28_14h57.26.185,jersey_experiment_5_v2,2023.2.2,Win32,84.74576271,,,,,,,,,,,,,,,,196.8816,198.7404,198.7405,204.623,return,4.5725,,24.86979167,0,22,22,5,1,FBP-PT-18.png,0.35,1.2,6,0.25,,,,,,,,,,,,,,,,,,,,,,,,,,,,,,,,,,,,,,,,,,,,,
,,,,,V2_004,20,Female,2024-02-28_14h57.26.185,jersey_experiment_5_v2,2023.2.2,Win32,84.74576271,,,,,,,,,,,,,,,,204.6274,206.729,206.7293,209.6466,return,1.182,,85.80729167,0,23,23,58,1,FBP-YG-91.png,0.43,1.2,59,0.5,,,,,,,,,,,,,,,,,,,,,,,,,,,,,,,,,,,,,,,,,,,,,
,,,,,V2_004,20,Female,2024-02-28_14h57.26.185,jersey_experiment_5_v2,2023.2.2,Win32,84.74576271,,,,,,,,,,,,,,,,209.6469,211.4938,211.494,216.6587,return,1.5683,,74.47916667,0,24,24,1,1,FBP-PT-17.png,0.37,1.2,2,0.25,,,,,,,,,,,,,,,,,,,,,,,,,,,,,,,,,,,,,,,,,,,,,
,,,,,V2_004,20,Female,2024-02-28_14h57.26.185,jersey_experiment_5_v2,2023.2.2,Win32,84.74576271,,,,,,,,,,,,,,,,216.6589,218.753,218.7532,221.2353,return,1.3209,,90.36458333,0,25,25,23,1,FBP-OG-18.png,0.43,1.2,24,0.5,,,,,,,,,,,,,,,,,,,,,,,,,,,,,,,,,,,,,,,,,,,,,
,,,,,V2_004,20,Female,2024-02-28_14h57.26.185,jersey_experiment_5_v2,2023.2.2,Win32,84.74576271,,,,,,,,,,,,,,,,221.2354,223.3296,223.3298,227.5767,return,1.0827,,63.28125,0,26,26,51,1,FBP-YG-81.png,0.37,1.2,52,0.5,,,,,,,,,,,,,,,,,,,,,,,,,,,,,,,,,,,,,,,,,,,,,
,,,,,V2_004,20,Female,2024-02-28_14h57.26.185,jersey_experiment_5_v2,2023.2.2,Win32,84.74576271,,,,,,,,,,,,,,,,227.577,229.6828,229.6829,234.271,return,1.9369,,61.84895833,0,27,27,15,1,FBP-OG-17.png,0.35,1.2,16,0.5,,,,,,,,,,,,,,,,,,,,,,,,,,,,,,,,,,,,,,,,,,,,,
,,,,,V2_004,20,Female,2024-02-28_14h57.26.185,jersey_experiment_5_v2,2023.2.2,Win32,84.74576271,,,,,,,,,,,,,,,,234.2714,236.3652,236.3653,240.1184,return,2.4376,,86.58854167,0,28,28,47,1,FBP-YG-71.png,0.4,1.2,48,0.5,,,,,,,,,,,,,,,,,,,,,,,,,,,,,,,,,,,,,,,,,,,,,
,,,,,V2_004,20,Female,2024-02-28_14h57.26.185,jersey_experiment_5_v2,2023.2.2,Win32,84.74576271,,,,,,,,,,,,,,,,240.1186,242.2242,242.2245,247.1891,return,0.8719,,75.13020833,0,29,29,37,1,FBP-RB-18.png,0.4,1.2,38,0.5,,,,,,,,,,,,,,,,,,,,,,,,,,,,,,,,,,,,,,,,,,,,,
,,,,,V2_004,20,Female,2024-02-28_14h57.26.185,jersey_experiment_5_v2,2023.2.2,Win32,84.74576271,,,,,,,,,,,,,,,,247.1894,249.2834,249.2836,253.6952,return,3.6192,,75.26041667,0,30,30,22,1,FBP-OG-18.png,0.4,1.2,23,0.5,,,,,,,,,,,,,,,,,,,,,,,,,,,,,,,,,,,,,,,,,,,,,
,,,,,V2_004,20,Female,2024-02-28_14h57.26.185,jersey_experiment_5_v2,2023.2.2,Win32,84.74576271,,,,,,,,,,,,,,,,253.6954,255.7895,255.7897,259.5191,return,2.0667,,65.625,0,31,31,32,1,FBP-RB-17.png,0.4,1.2,33,0.5,,,,,,,,,,,,,,,,,,,,,,,,,,,,,,,,,,,,,,,,,,,,,
,,,,,V2_004,20,Female,2024-02-28_14h57.26.185,jersey_experiment_5_v2,2023.2.2,Win32,84.74576271,,,,,,,,,,,,,,,,259.5193,261.6131,261.6134,264.3663,return,1.1846,,50.26041667,0,32,32,55,1,FBP-YG-91.png,0.35,1.2,56,0.5,,,,,,,,,,,,,,,,,,,,,,,,,,,,,,,,,,,,,,,,,,,,,
,,,,,V2_004,20,Female,2024-02-28_14h57.26.185,jersey_experiment_5_v2,2023.2.2,Win32,84.74576271,,,,,,,,,,,,,,,,264.3665,266.4604,266.4606,268.8723,return,1.0495,,99.47916667,0,33,33,49,1,FBP-YG-71.png,0.45,1.2,50,0.5,,,,,,,,,,,,,,,,,,,,,,,,,,,,,,,,,,,,,,,,,,,,,
,,,,,V2_004,20,Female,2024-02-28_14h57.26.185,jersey_experiment_5_v2,2023.2.2,Win32,84.74576271,,,,,,,,,,,,,,,,268.8724,270.9667,270.967,275.2843,return,1.3767,,23.69791667,0,34,34,40,1,FBP-RB-19.png,0.35,1.2,41,0.5,,,,,,,,,,,,,,,,,,,,,,,,,,,,,,,,,,,,,,,,,,,,,
,,,,,V2_004,20,Female,2024-02-28_14h57.26.185,jersey_experiment_5_v2,2023.2.2,Win32,84.74576271,,,,,,,,,,,,,,,,275.2846,277.3785,277.3787,279.5432,return,0.9649,,49.47916667,0,35,35,57,1,FBP-YG-91.png,0.4,1.2,58,0.5,,,,,,,,,,,,,,,,,,,,,,,,,,,,,,,,,,,,,,,,,,,,,
,,,,,V2_004,20,Female,2024-02-28_14h57.26.185,jersey_experiment_5_v2,2023.2.2,Win32,84.74576271,,,,,,,,,,,,,,,,279.5435,281.6374,281.6376,283.2729,return,0.8145,,99.34895833,0,36,36,24,1,FBP-OG-18.png,0.45,1.2,25,0.5,,,,,,,,,,,,,,,,,,,,,,,,,,,,,,,,,,,,,,,,,,,,,
,,,,,V2_004,20,Female,2024-02-28_14h57.26.185,jersey_experiment_5_v2,2023.2.2,Win32,84.74576271,,,,,,,,,,,,,,,,283.273,285.3671,285.3673,289.9201,return,3.5928,,36.58854167,0,37,37,21,1,FBP-OG-18.png,0.37,1.2,22,0.5,,,,,,,,,,,,,,,,,,,,,,,,,,,,,,,,,,,,,,,,,,,,,
,,,,,V2_004,20,Female,2024-02-28_14h57.26.185,jersey_experiment_5_v2,2023.2.2,Win32,84.74576271,,,,,,,,,,,,,,,,289.9203,291.7672,291.7675,296.5792,return,0.9208,,75.26041667,0,38,38,9,1,FBP-PT-18.png,0.45,1.2,10,0.25,,,,,,,,,,,,,,,,,,,,,,,,,,,,,,,,,,,,,,,,,,,,,
,,,,,V2_004,20,Female,2024-02-28_14h57.26.185,jersey_experiment_5_v2,2023.2.2,Win32,84.74576271,,,,,,,,,,,,,,,,296.5793,298.4264,298.4267,300.8615,return,1.3595,,24.47916667,0,39,39,11,1,FBP-PT-19.png,0.37,1.2,12,0.25,,,,,,,,,,,,,,,,,,,,,,,,,,,,,,,,,,,,,,,,,,,,,
,,,,,V2_004,20,Female,2024-02-28_14h57.26.185,jersey_experiment_5_v2,2023.2.2,Win32,84.74576271,,,,,,,,,,,,,,,,300.8617,302.9559,302.9561,305.2383,return,0.9749,,99.21875,0,40,40,19,1,FBP-OG-17.png,0.45,1.2,20,0.5,,,,,,,,,,,,,,,,,,,,,,,,,,,,,,,,,,,,,,,,,,,,,
,,,,,V2_004,20,Female,2024-02-28_14h57.26.185,jersey_experiment_5_v2,2023.2.2,Win32,84.74576271,,,,,,,,,,,,,,,,305.2385,307.0971,307.0973,309.2855,return,1.517,,99.73958333,0,41,41,14,1,FBP-PT-19.png,0.45,1.2,15,0.25,,,,,,,,,,,,,,,,,,,,,,,,,,,,,,,,,,,,,,,,,,,,,
,,,,,V2_004,20,Female,2024-02-28_14h57.26.185,jersey_experiment_5_v2,2023.2.2,Win32,84.74576271,,,,,,,,,,,,,,,,309.2857,311.3797,311.38,316.5682,return,4.1558,,73.69791667,0,42,42,17,1,FBP-OG-17.png,0.4,1.2,18,0.5,,,,,,,,,,,,,,,,,,,,,,,,,,,,,,,,,,,,,,,,,,,,,
,,,,,V2_004,20,Female,2024-02-28_14h57.26.185,jersey_experiment_5_v2,2023.2.2,Win32,84.74576271,,,,,,,,,,,,,,,,316.5726,318.4152,318.4154,324.686,return,3.785,,74.34895833,0,43,43,10,1,FBP-PT-19.png,0.35,1.2,11,0.25,,,,,,,,,,,,,,,,,,,,,,,,,,,,,,,,,,,,,,,,,,,,,
,,,,,V2_004,20,Female,2024-02-28_14h57.26.185,jersey_experiment_5_v2,2023.2.2,Win32,84.74576271,,,,,,,,,,,,,,,,324.6909,326.7921,326.7923,329.7921,return,0.8519,,99.609375,0,44,44,54,1,FBP-YG-81.png,0.45,1.2,55,0.5,,,,,,,,,,,,,,,,,,,,,,,,,,,,,,,,,,,,,,,,,,,,,
,,,,,V2_004,20,Female,2024-02-28_14h57.26.185,jersey_experiment_5_v2,2023.2.2,Win32,84.74576271,,,,,,,,,,,,,,,,329.7923,331.6394,331.6397,334.0393,return,0.8834,,74.08854167,0,45,45,12,1,FBP-PT-19.png,0.4,1.2,13,0.25,,,,,,,,,,,,,,,,,,,,,,,,,,,,,,,,,,,,,,,,,,,,,
,,,,,V2_004,20,Female,2024-02-28_14h57.26.185,jersey_experiment_5_v2,2023.2.2,Win32,84.74576271,,,,,,,,,,,,,,,,334.0396,336.1362,336.1363,338.8092,return,1.0256,,50,0,46,46,30,1,FBP-RB-17.png,0.35,1.2,31,0.5,,,,,,,,,,,,,,,,,,,,,,,,,,,,,,,,,,,,,,,,,,,,,
,,,,,V2_004,20,Female,2024-02-28_14h57.26.185,jersey_experiment_5_v2,2023.2.2,Win32,84.74576271,,,,,,,,,,,,,,,,338.8094,340.9264,340.9265,343.2193,return,0.7768,,26.43229167,0,47,47,50,1,FBP-YG-81.png,0.35,1.2,51,0.5,,,,,,,,,,,,,,,,,,,,,,,,,,,,,,,,,,,,,,,,,,,,,
,,,,,V2_004,20,Female,2024-02-28_14h57.26.185,jersey_experiment_5_v2,2023.2.2,Win32,84.74576271,,,,,,,,,,,,,,,,343.2195,345.3373,345.3373,347.3844,return,0.8577,,25.13020833,0,48,48,35,1,FBP-RB-18.png,0.35,1.2,36,0.5,,,,,,,,,,,,,,,,,,,,,,,,,,,,,,,,,,,,,,,,,,,,,
,,,,,V2_004,20,Female,2024-02-28_14h57.26.185,jersey_experiment_5_v2,2023.2.2,Win32,84.74576271,,,,,,,,,,,,,,,,347.3844,349.4915,349.4916,351.6046,return,0.9423,,99.47916667,0,49,49,44,1,FBP-RB-19.png,0.45,1.2,45,0.5,,,,,,,,,,,,,,,,,,,,,,,,,,,,,,,,,,,,,,,,,,,,,
,,,,,V2_004,20,Female,2024-02-28_14h57.26.185,jersey_experiment_5_v2,2023.2.2,Win32,84.74576271,,,,,,,,,,,,,,,,351.6048,353.7037,353.7039,355.9259,return,0.9517,,25.91145833,0,50,50,16,1,FBP-OG-17.png,0.37,1.2,17,0.5,,,,,,,,,,,,,,,,,,,,,,,,,,,,,,,,,,,,,,,,,,,,,
,,,,,V2_004,20,Female,2024-02-28_14h57.26.185,jersey_experiment_5_v2,2023.2.2,Win32,84.74576271,,,,,,,,,,,,,,,,355.9261,357.7848,357.7849,360.7109,return,1.422,,25.13020833,0,51,51,2,1,FBP-PT-17.png,0.4,1.2,3,0.25,,,,,,,,,,,,,,,,,,,,,,,,,,,,,,,,,,,,,,,,,,,,,
,,,,,V2_004,20,Female,2024-02-28_14h57.26.185,jersey_experiment_5_v2,2023.2.2,Win32,84.74576271,,,,,,,,,,,,,,,,360.7111,362.805,362.8052,365.7513,return,1.1298,,99.73958333,0,52,52,33,1,FBP-RB-17.png,0.43,1.2,34,0.5,,,,,,,,,,,,,,,,,,,,,,,,,,,,,,,,,,,,,,,,,,,,,
,,,,,V2_004,20,Female,2024-02-28_14h57.26.185,jersey_experiment_5_v2,2023.2.2,Win32,84.74576271,,,,,,,,,,,,,,,,365.7515,367.8683,367.8684,372.8103,return,1.1531,,98.95833333,0,53,53,52,1,FBP-YG-81.png,0.4,1.2,53,0.5,,,,,,,,,,,,,,,,,,,,,,,,,,,,,,,,,,,,,,,,,,,,,
,,,,,V2_004,20,Female,2024-02-28_14h57.26.185,jersey_experiment_5_v2,2023.2.2,Win32,84.74576271,,,,,,,,,,,,,,,,372.8105,374.9231,374.9232,378.2224,return,0.9419,,49.47916667,0,54,54,41,1,FBP-RB-19.png,0.37,1.2,42,0.5,,,,,,,,,,,,,,,,,,,,,,,,,,,,,,,,,,,,,,,,,,,,,
,,,,,V2_004,20,Female,2024-02-28_14h57.26.185,jersey_experiment_5_v2,2023.2.2,Win32,84.74576271,,,,,,,,,,,,,,,,378.2225,380.3264,380.3265,382.0294,return,1.0308,,49.609375,0,55,55,26,1,FBP-OG-19.png,0.37,1.2,27,0.5,,,,,,,,,,,,,,,,,,,,,,,,,,,,,,,,,,,,,,,,,,,,,
,,,,,V2_004,20,Female,2024-02-28_14h57.26.185,jersey_experiment_5_v2,2023.2.2,Win32,84.74576271,,,,,,,,,,,,,,,,382.0297,384.1236,384.1237,386.505,return,1.2941,,74.73958333,0,56,56,53,1,FBP-YG-81.png,0.43,1.2,54,0.5,,,,,,,,,,,,,,,,,,,,,,,,,,,,,,,,,,,,,,,,,,,,,
,,,,,V2_004,20,Female,2024-02-28_14h57.26.185,jersey_experiment_5_v2,2023.2.2,Win32,84.74576271,,,,,,,,,,,,,,,,386.5051,388.5994,388.5996,391.1354,return,0.9109,,99.08854167,0,57,57,29,1,FBP-OG-19.png,0.45,1.2,30,0.5,,,,,,,,,,,,,,,,,,,,,,,,,,,,,,,,,,,,,,,,,,,,,
,,,,,V2_004,20,Female,2024-02-28_14h57.26.185,jersey_experiment_5_v2,2023.2.2,Win32,84.74576271,,,,,,,,,,,,,,,,391.1357,393.2346,393.2347,395.4886,return,1.0639,,74.86979167,0,58,58,27,1,FBP-OG-19.png,0.4,1.2,28,0.5,,,,,,,,,,,,,,,,,,,,,,,,,,,,,,,,,,,,,,,,,,,,,
,,,,,V2_004,20,Female,2024-02-28_14h57.26.185,jersey_experiment_5_v2,2023.2.2,Win32,84.74576271,,,,,,,,,,,,,,,,395.4887,397.3387,397.3389,399.3474,return,0.8362,,99.73958333,0,59,59,13,1,FBP-PT-19.png,0.43,1.2,14,0.25,,,,,,,,,,,,,,,,,,,,,,,,,,,,,,,,,,,,,,,,,,,,,
,,,,,V2_004,20,Female,2024-02-28_14h57.26.185,jersey_experiment_5_v2,2023.2.2,Win32,84.74576271,,,,,,,,,,,,,,,,399.3498,401.457,401.4572,403.1176,return,0.8607,,98.95833333,,,,,,FBP-YG-18.png,0.45,1.2,55,0.5,0,0,0,54,1,,,,,,,,,,,,,,,,,,,,,,,,,,,,,,,,,,,,,,,,
,,,,,V2_004,20,Female,2024-02-28_14h57.26.185,jersey_experiment_5_v2,2023.2.2,Win32,84.74576271,,,,,,,,,,,,,,,,403.118,405.2112,405.2114,407.2219,return,0.8472,,74.08854167,,,,,,FBP-YG-19.png,0.45,1.2,60,0.5,0,1,1,59,1,,,,,,,,,,,,,,,,,,,,,,,,,,,,,,,,,,,,,,,,
,,,,,V2_004,20,Female,2024-02-28_14h57.26.185,jersey_experiment_5_v2,2023.2.2,Win32,84.74576271,,,,,,,,,,,,,,,,407.2221,409.3392,409.3393,411.2456,return,0.8471,,25,,,,,,FBP-RB-91.png,0.37,1.2,42,0.5,0,2,2,41,1,,,,,,,,,,,,,,,,,,,,,,,,,,,,,,,,,,,,,,,,
,,,,,V2_004,20,Female,2024-02-28_14h57.26.185,jersey_experiment_5_v2,2023.2.2,Win32,84.74576271,,,,,,,,,,,,,,,,411.2457,413.353,413.3531,415.6458,return,1.2343,,74.08854167,,,,,,FBP-YG-19.png,0.43,1.2,59,0.5,0,3,3,58,1,,,,,,,,,,,,,,,,,,,,,,,,,,,,,,,,,,,,,,,,
,,,,,V2_004,20,Female,2024-02-28_14h57.26.185,jersey_experiment_5_v2,2023.2.2,Win32,84.74576271,,,,,,,,,,,,,,,,415.646,417.7482,417.7484,420.6474,return,0.9547,,33.85416667,,,,,,FBP-RB-81.png,0.35,1.2,36,0.5,0,4,4,35,1,,,,,,,,,,,,,,,,,,,,,,,,,,,,,,,,,,,,,,,,
,,,,,V2_004,20,Female,2024-02-28_14h57.26.185,jersey_experiment_5_v2,2023.2.2,Win32,84.74576271,,,,,,,,,,,,,,,,420.6475,422.4926,422.4928,424.3285,return,0.8476,,23.95833333,,,,,,FBP-PT-71.png,0.35,1.2,1,0.25,0,5,5,0,1,,,,,,,,,,,,,,,,,,,,,,,,,,,,,,,,,,,,,,,,
,,,,,V2_004,20,Female,2024-02-28_14h57.26.185,jersey_experiment_5_v2,2023.2.2,Win32,84.74576271,,,,,,,,,,,,,,,,424.3287,426.172,426.1721,430.4697,return,0.9753,,25.26041667,,,,,,FBP-PT-71.png,0.37,1.2,2,0.25,0,6,6,1,1,,,,,,,,,,,,,,,,,,,,,,,,,,,,,,,,,,,,,,,,
,,,,,V2_004,20,Female,2024-02-28_14h57.26.185,jersey_experiment_5_v2,2023.2.2,Win32,84.74576271,,,,,,,,,,,,,,,,430.4698,432.3136,432.3138,435.1419,return,0.9883,,49.86979167,,,,,,FBP-PT-71.png,0.4,1.2,3,0.25,0,7,7,2,1,,,,,,,,,,,,,,,,,,,,,,,,,,,,,,,,,,,,,,,,
,,,,,V2_004,20,Female,2024-02-28_14h57.26.185,jersey_experiment_5_v2,2023.2.2,Win32,84.74576271,,,,,,,,,,,,,,,,435.1421,437.2547,437.255,439.0313,return,0.7531,,49.609375,,,,,,FBP-YG-19.png,0.37,1.2,57,0.5,0,8,8,56,1,,,,,,,,,,,,,,,,,,,,,,,,,,,,,,,,,,,,,,,,
,,,,,V2_004,20,Female,2024-02-28_14h57.26.185,jersey_experiment_5_v2,2023.2.2,Win32,84.74576271,,,,,,,,,,,,,,,,439.0315,441.1422,441.1423,442.7896,return,0.8947,,73.95833333,,,,,,FBP-YG-17.png,0.4,1.2,48,0.5,0,9,9,47,1,,,,,,,,,,,,,,,,,,,,,,,,,,,,,,,,,,,,,,,,
,,,,,V2_004,20,Female,2024-02-28_14h57.26.185,jersey_experiment_5_v2,2023.2.2,Win32,84.74576271,,,,,,,,,,,,,,,,442.7898,444.8904,444.8905,447.1423,return,0.8001,,99.08854167,,,,,,FBP-OG-71.png,0.45,1.2,20,0.5,0,10,10,19,1,,,,,,,,,,,,,,,,,,,,,,,,,,,,,,,,,,,,,,,,
,,,,,V2_004,20,Female,2024-02-28_14h57.26.185,jersey_experiment_5_v2,2023.2.2,Win32,84.74576271,,,,,,,,,,,,,,,,447.1425,449.2434,449.2435,451.2671,return,0.7074,,50,,,,,,FBP-OG-81.png,0.37,1.2,22,0.5,0,11,11,21,1,,,,,,,,,,,,,,,,,,,,,,,,,,,,,,,,,,,,,,,,
,,,,,V2_004,20,Female,2024-02-28_14h57.26.185,jersey_experiment_5_v2,2023.2.2,Win32,84.74576271,,,,,,,,,,,,,,,,451.2673,453.3644,453.3646,456.232,return,0.9546,,98.69791667,,,,,,FBP-OG-71.png,0.43,1.2,19,0.5,0,12,12,18,1,,,,,,,,,,,,,,,,,,,,,,,,,,,,,,,,,,,,,,,,
,,,,,V2_004,20,Female,2024-02-28_14h57.26.185,jersey_experiment_5_v2,2023.2.2,Win32,84.74576271,,,,,,,,,,,,,,,,456.2323,458.3293,458.3294,460.738,return,0.7438,,39.19270833,,,,,,FBP-RB-71.png,0.37,1.2,32,0.5,0,13,13,31,1,,,,,,,,,,,,,,,,,,,,,,,,,,,,,,,,,,,,,,,,
,,,,,V2_004,20,Female,2024-02-28_14h57.26.185,jersey_experiment_5_v2,2023.2.2,Win32,84.74576271,,,,,,,,,,,,,,,,460.7381,462.8322,462.8324,464.6439,return,0.7312,,99.34895833,,,,,,FBP-YG-17.png,0.43,1.2,49,0.5,0,14,14,48,1,,,,,,,,,,,,,,,,,,,,,,,,,,,,,,,,,,,,,,,,
,,,,,V2_004,20,Female,2024-02-28_14h57.26.185,jersey_experiment_5_v2,2023.2.2,Win32,84.74576271,,,,,,,,,,,,,,,,464.6441,466.7425,466.7426,468.8323,return,0.7452,,74.08854167,,,,,,FBP-RB-91.png,0.4,1.2,43,0.5,0,15,15,42,1,,,,,,,,,,,,,,,,,,,,,,,,,,,,,,,,,,,,,,,,
,,,,,V2_004,20,Female,2024-02-28_14h57.26.185,jersey_experiment_5_v2,2023.2.2,Win32,84.74576271,,,,,,,,,,,,,,,,468.8326,470.9413,470.9413,473.1385,return,0.837,,49.73958333,,,,,,FBP-YG-19.png,0.4,1.2,58,0.5,0,16,16,57,1,,,,,,,,,,,,,,,,,,,,,,,,,,,,,,,,,,,,,,,,
,,,,,V2_004,20,Female,2024-02-28_14h57.26.185,jersey_experiment_5_v2,2023.2.2,Win32,84.74576271,,,,,,,,,,,,,,,,473.1386,475.2444,475.2446,477.4023,return,0.8606,,98.95833333,,,,,,FBP-OG-91.png,0.45,1.2,30,0.5,0,17,17,29,1,,,,,,,,,,,,,,,,,,,,,,,,,,,,,,,,,,,,,,,,
,,,,,V2_004,20,Female,2024-02-28_14h57.26.185,jersey_experiment_5_v2,2023.2.2,Win32,84.74576271,,,,,,,,,,,,,,,,477.4024,479.4964,479.4965,482.919,return,1.7521,,88.41145833,,,,,,FBP-RB-91.png,0.43,1.2,44,0.5,0,18,18,43,1,,,,,,,,,,,,,,,,,,,,,,,,,,,,,,,,,,,,,,,,
,,,,,V2_004,20,Female,2024-02-28_14h57.26.185,jersey_experiment_5_v2,2023.2.2,Win32,84.74576271,,,,,,,,,,,,,,,,482.9192,485.0265,485.0266,487.0027,return,0.8136,,48.828125,,,,,,FBP-RB-91.png,0.35,1.2,41,0.5,0,19,19,40,1,,,,,,,,,,,,,,,,,,,,,,,,,,,,,,,,,,,,,,,,
,,,,,V2_004,20,Female,2024-02-28_14h57.26.185,jersey_experiment_5_v2,2023.2.2,Win32,84.74576271,,,,,,,,,,,,,,,,487.0028,488.848,488.8481,490.8486,return,0.6932,,99.609375,,,,,,FBP-PT-71.png,0.45,1.2,5,0.25,0,20,20,4,1,,,,,,,,,,,,,,,,,,,,,,,,,,,,,,,,,,,,,,,,
,,,,,V2_004,20,Female,2024-02-28_14h57.26.185,jersey_experiment_5_v2,2023.2.2,Win32,84.74576271,,,,,,,,,,,,,,,,490.8487,492.6969,492.6972,494.6804,return,0.7063,,99.47916667,,,,,,FBP-PT-81.png,0.43,1.2,9,0.25,0,21,21,8,1,,,,,,,,,,,,,,,,,,,,,,,,,,,,,,,,,,,,,,,,
,,,,,V2_004,20,Female,2024-02-28_14h57.26.185,jersey_experiment_5_v2,2023.2.2,Win32,84.74576271,,,,,,,,,,,,,,,,494.6807,496.5322,496.5323,500.6924,return,2.7075,,38.28125,,,,,,FBP-PT-91.png,0.35,1.2,11,0.25,0,22,22,10,1,,,,,,,,,,,,,,,,,,,,,,,,,,,,,,,,,,,,,,,,
,,,,,V2_004,20,Female,2024-02-28_14h57.26.185,jersey_experiment_5_v2,2023.2.2,Win32,84.74576271,,,,,,,,,,,,,,,,500.6927,502.7867,502.7868,509.728,return,0.7821,,49.609375,,,,,,FBP-OG-91.png,0.43,1.2,29,0.5,0,23,23,28,1,,,,,,,,,,,,,,,,,,,,,,,,,,,,,,,,,,,,,,,,
,,,,,V2_004,20,Female,2024-02-28_14h57.26.185,jersey_experiment_5_v2,2023.2.2,Win32,84.74576271,,,,,,,,,,,,,,,,509.7282,511.5916,511.5918,513.6257,return,0.8577,,99.21875,,,,,,FBP-PT-81.png,0.45,1.2,10,0.25,0,24,24,9,1,,,,,,,,,,,,,,,,,,,,,,,,,,,,,,,,,,,,,,,,
,,,,,V2_004,20,Female,2024-02-28_14h57.26.185,jersey_experiment_5_v2,2023.2.2,Win32,84.74576271,,,,,,,,,,,,,,,,513.6259,515.4845,515.4846,517.4222,return,0.912,,98.828125,,,,,,FBP-PT-91.png,0.45,1.2,15,0.25,0,25,25,14,1,,,,,,,,,,,,,,,,,,,,,,,,,,,,,,,,,,,,,,,,
,,,,,V2_004,20,Female,2024-02-28_14h57.26.185,jersey_experiment_5_v2,2023.2.2,Win32,84.74576271,,,,,,,,,,,,,,,,517.4224,519.5212,519.5214,525.9403,return,3.9185,,48.69791667,,,,,,FBP-RB-81.png,0.37,1.2,37,0.5,0,26,26,36,1,,,,,,,,,,,,,,,,,,,,,,,,,,,,,,,,,,,,,,,,
,,,,,V2_004,20,Female,2024-02-28_14h57.26.185,jersey_experiment_5_v2,2023.2.2,Win32,84.74576271,,,,,,,,,,,,,,,,525.9406,527.7874,527.7876,529.7437,return,0.6693,,25.78125,,,,,,FBP-PT-91.png,0.37,1.2,12,0.25,0,27,27,11,1,,,,,,,,,,,,,,,,,,,,,,,,,,,,,,,,,,,,,,,,
,,,,,V2_004,20,Female,2024-02-28_14h57.26.185,jersey_experiment_5_v2,2023.2.2,Win32,84.74576271,,,,,,,,,,,,,,,,529.7439,531.5995,531.5997,533.3759,return,0.7459,,24.73958333,,,,,,FBP-PT-81.png,0.35,1.2,6,0.25,0,28,28,5,1,,,,,,,,,,,,,,,,,,,,,,,,,,,,,,,,,,,,,,,,
,,,,,V2_004,20,Female,2024-02-28_14h57.26.185,jersey_experiment_5_v2,2023.2.2,Win32,84.74576271,,,,,,,,,,,,,,,,533.3761,535.4701,535.4703,537.776,return,1.2398,,25.390625,,,,,,FBP-YG-19.png,0.35,1.2,56,0.5,0,29,29,55,1,,,,,,,,,,,,,,,,,,,,,,,,,,,,,,,,,,,,,,,,
,,,,,V2_004,20,Female,2024-02-28_14h57.26.185,jersey_experiment_5_v2,2023.2.2,Win32,84.74576271,,,,,,,,,,,,,,,,537.7763,539.8704,539.8706,542.7329,return,0.8945,,99.86979167,,,,,,FBP-RB-81.png,0.43,1.2,39,0.5,0,30,30,38,1,,,,,,,,,,,,,,,,,,,,,,,,,,,,,,,,,,,,,,,,
,,,,,V2_004,20,Female,2024-02-28_14h57.26.185,jersey_experiment_5_v2,2023.2.2,Win32,84.74576271,,,,,,,,,,,,,,,,542.7331,544.8504,544.8506,547.2164,return,0.7899,,74.73958333,,,,,,FBP-YG-18.png,0.4,1.2,53,0.5,0,31,31,52,1,,,,,,,,,,,,,,,,,,,,,,,,,,,,,,,,,,,,,,,,
,,,,,V2_004,20,Female,2024-02-28_14h57.26.185,jersey_experiment_5_v2,2023.2.2,Win32,84.74576271,,,,,,,,,,,,,,,,547.2166,549.321,549.3212,551.1933,return,0.766,,99.609375,,,,,,FBP-YG-18.png,0.43,1.2,54,0.5,0,32,32,53,1,,,,,,,,,,,,,,,,,,,,,,,,,,,,,,,,,,,,,,,,
,,,,,V2_004,20,Female,2024-02-28_14h57.26.185,jersey_experiment_5_v2,2023.2.2,Win32,84.74576271,,,,,,,,,,,,,,,,551.1934,553.2975,553.2975,556.9685,return,1.0697,,49.86979167,,,,,,FBP-OG-91.png,0.35,1.2,26,0.5,0,33,33,25,1,,,,,,,,,,,,,,,,,,,,,,,,,,,,,,,,,,,,,,,,
,,,,,V2_004,20,Female,2024-02-28_14h57.26.185,jersey_experiment_5_v2,2023.2.2,Win32,84.74576271,,,,,,,,,,,,,,,,556.9687,559.0708,559.071,569.4628,return,9.0594,,74.34895833,,,,,,FBP-OG-71.png,0.37,1.2,17,0.5,0,34,34,16,1,,,,,,,,,,,,,,,,,,,,,,,,,,,,,,,,,,,,,,,,
,,,,,V2_004,20,Female,2024-02-28_14h57.26.185,jersey_experiment_5_v2,2023.2.2,Win32,84.74576271,,,,,,,,,,,,,,,,569.4671,571.5702,571.5704,576.206,return,1.3651,,25.390625,,,,,,FBP-RB-71.png,0.4,1.2,33,0.5,0,35,35,32,1,,,,,,,,,,,,,,,,,,,,,,,,,,,,,,,,,,,,,,,,
,,,,,V2_004,20,Female,2024-02-28_14h57.26.185,jersey_experiment_5_v2,2023.2.2,Win32,84.74576271,,,,,,,,,,,,,,,,576.2062,578.3101,578.3103,583.2517,return,2.952,,74.21875,,,,,,FBP-OG-71.png,0.4,1.2,18,0.5,0,36,36,17,1,,,,,,,,,,,,,,,,,,,,,,,,,,,,,,,,,,,,,,,,
,,,,,V2_004,20,Female,2024-02-28_14h57.26.185,jersey_experiment_5_v2,2023.2.2,Win32,84.74576271,,,,,,,,,,,,,,,,583.2519,585.3584,585.3586,587.6049,return,1.3049,,25.78125,,,,,,FBP-OG-81.png,0.4,1.2,23,0.5,0,37,37,22,1,,,,,,,,,,,,,,,,,,,,,,,,,,,,,,,,,,,,,,,,
,,,,,V2_004,20,Female,2024-02-28_14h57.26.185,jersey_experiment_5_v2,2023.2.2,Win32,84.74576271,,,,,,,,,,,,,,,,587.6051,589.4531,589.4532,592.1309,return,0.85,,75,,,,,,FBP-PT-81.png,0.4,1.2,8,0.25,0,38,38,7,1,,,,,,,,,,,,,,,,,,,,,,,,,,,,,,,,,,,,,,,,
,,,,,V2_004,20,Female,2024-02-28_14h57.26.185,jersey_experiment_5_v2,2023.2.2,Win32,84.74576271,,,,,,,,,,,,,,,,592.1311,593.9816,593.9817,596.3111,return,1.2235,,49.609375,,,,,,FBP-PT-81.png,0.37,1.2,7,0.25,0,39,39,6,1,,,,,,,,,,,,,,,,,,,,,,,,,,,,,,,,,,,,,,,,
,,,,,V2_004,20,Female,2024-02-28_14h57.26.185,jersey_experiment_5_v2,2023.2.2,Win32,84.74576271,,,,,,,,,,,,,,,,596.3115,598.4288,598.4289,600.9783,return,0.7565,,49.21875,,,,,,FBP-OG-91.png,0.37,1.2,27,0.5,0,40,40,26,1,,,,,,,,,,,,,,,,,,,,,,,,,,,,,,,,,,,,,,,,
,,,,,V2_004,20,Female,2024-02-28_14h57.26.185,jersey_experiment_5_v2,2023.2.2,Win32,84.74576271,,,,,,,,,,,,,,,,600.9785,603.0882,603.0883,605.5197,return,0.6886,,99.47916667,,,,,,FBP-RB-91.png,0.45,1.2,45,0.5,0,41,41,44,1,,,,,,,,,,,,,,,,,,,,,,,,,,,,,,,,,,,,,,,,
,,,,,V2_004,20,Female,2024-02-28_14h57.26.185,jersey_experiment_5_v2,2023.2.2,Win32,84.74576271,,,,,,,,,,,,,,,,605.5199,607.6288,607.6289,609.313,return,0.7537,,75.390625,,,,,,FBP-YG-17.png,0.45,1.2,50,0.5,0,42,42,49,1,,,,,,,,,,,,,,,,,,,,,,,,,,,,,,,,,,,,,,,,
,,,,,V2_004,20,Female,2024-02-28_14h57.26.185,jersey_experiment_5_v2,2023.2.2,Win32,84.74576271,,,,,,,,,,,,,,,,609.3132,611.1717,611.1718,613.1586,return,0.7164,,75.390625,,,,,,FBP-PT-71.png,0.43,1.2,4,0.25,0,43,43,3,1,,,,,,,,,,,,,,,,,,,,,,,,,,,,,,,,,,,,,,,,
,,,,,V2_004,20,Female,2024-02-28_14h57.26.185,jersey_experiment_5_v2,2023.2.2,Win32,84.74576271,,,,,,,,,,,,,,,,613.1587,615.2611,615.2613,617.8178,return,0.5283,,74.86979167,,,,,,FBP-OG-81.png,0.43,1.2,24,0.5,0,44,44,23,1,,,,,,,,,,,,,,,,,,,,,,,,,,,,,,,,,,,,,,,,
,,,,,V2_004,20,Female,2024-02-28_14h57.26.185,jersey_experiment_5_v2,2023.2.2,Win32,84.74576271,,,,,,,,,,,,,,,,617.818,619.6659,619.6661,622.0144,return,0.3708,,99.609375,,,,,,FBP-PT-91.png,0.43,1.2,14,0.25,0,45,45,13,1,,,,,,,,,,,,,,,,,,,,,,,,,,,,,,,,,,,,,,,,
,,,,,V2_004,20,Female,2024-02-28_14h57.26.185,jersey_experiment_5_v2,2023.2.2,Win32,84.74576271,,,,,,,,,,,,,,,,622.0146,624.1204,624.1206,625.8732,return,0.4148,,99.34895833,,,,,,FBP-RB-71.png,0.43,1.2,34,0.5,0,46,46,33,1,,,,,,,,,,,,,,,,,,,,,,,,,,,,,,,,,,,,,,,,
,,,,,V2_004,20,Female,2024-02-28_14h57.26.185,jersey_experiment_5_v2,2023.2.2,Win32,84.74576271,,,,,,,,,,,,,,,,625.8735,627.7236,627.7237,629.7007,return,0.2462,,74.73958333,,,,,,FBP-PT-91.png,0.4,1.2,13,0.25,0,47,47,12,1,,,,,,,,,,,,,,,,,,,,,,,,,,,,,,,,,,,,,,,,
,,,,,V2_004,20,Female,2024-02-28_14h57.26.185,jersey_experiment_5_v2,2023.2.2,Win32,84.74576271,,,,,,,,,,,,,,,,629.7009,631.7944,631.7945,635.1963,return,1.5531,,99.73958333,,,,,,FBP-RB-71.png,0.45,1.2,35,0.5,0,48,48,34,1,,,,,,,,,,,,,,,,,,,,,,,,,,,,,,,,,,,,,,,,
,,,,,V2_004,20,Female,2024-02-28_14h57.26.185,jersey_experiment_5_v2,2023.2.2,Win32,84.74576271,,,,,,,,,,,,,,,,635.1965,637.2974,637.2975,638.7494,return,0.3896,,74.73958333,,,,,,FBP-OG-91.png,0.4,1.2,28,0.5,0,49,49,27,1,,,,,,,,,,,,,,,,,,,,,,,,,,,,,,,,,,,,,,,,
,,,,,V2_004,20,Female,2024-02-28_14h57.26.185,jersey_experiment_5_v2,2023.2.2,Win32,84.74576271,,,,,,,,,,,,,,,,638.7495,640.8537,640.8539,642.5799,return,0.2711,,75.13020833,,,,,,FBP-YG-18.png,0.37,1.2,52,0.5,0,50,50,51,1,,,,,,,,,,,,,,,,,,,,,,,,,,,,,,,,,,,,,,,,
,,,,,V2_004,20,Female,2024-02-28_14h57.26.185,jersey_experiment_5_v2,2023.2.2,Win32,84.74576271,,,,,,,,,,,,,,,,642.58,644.6889,644.6891,646.0067,return,0.4235,,99.08854167,,,,,,FBP-RB-81.png,0.45,1.2,40,0.5,0,51,51,39,1,,,,,,,,,,,,,,,,,,,,,,,,,,,,,,,,,,,,,,,,
,,,,,V2_004,20,Female,2024-02-28_14h57.26.185,jersey_experiment_5_v2,2023.2.2,Win32,84.74576271,,,,,,,,,,,,,,,,646.0069,648.1093,648.1094,649.4555,return,0.2822,,49.73958333,,,,,,FBP-OG-81.png,0.35,1.2,21,0.5,0,52,52,20,1,,,,,,,,,,,,,,,,,,,,,,,,,,,,,,,,,,,,,,,,
,,,,,V2_004,20,Female,2024-02-28_14h57.26.185,jersey_experiment_5_v2,2023.2.2,Win32,84.74576271,,,,,,,,,,,,,,,,649.4557,651.5599,651.56,652.6795,return,0.2486,,50,,,,,,FBP-YG-18.png,0.35,1.2,51,0.5,0,53,53,50,1,,,,,,,,,,,,,,,,,,,,,,,,,,,,,,,,,,,,,,,,
,,,,,V2_004,20,Female,2024-02-28_14h57.26.185,jersey_experiment_5_v2,2023.2.2,Win32,84.74576271,,,,,,,,,,,,,,,,652.6796,654.7921,654.7923,655.8391,return,0.3007,,50.13020833,,,,,,FBP-RB-71.png,0.35,1.2,31,0.5,0,54,54,30,1,,,,,,,,,,,,,,,,,,,,,,,,,,,,,,,,,,,,,,,,
,,,,,V2_004,20,Female,2024-02-28_14h57.26.185,jersey_experiment_5_v2,2023.2.2,Win32,84.74576271,,,,,,,,,,,,,,,,655.8393,657.9366,657.9367,658.9017,return,0.3637,,50.13020833,,,,,,FBP-OG-71.png,0.35,1.2,16,0.5,0,55,55,15,1,,,,,,,,,,,,,,,,,,,,,,,,,,,,,,,,,,,,,,,,
,,,,,V2_004,20,Female,2024-02-28_14h57.26.185,jersey_experiment_5_v2,2023.2.2,Win32,84.74576271,,,,,,,,,,,,,,,,658.9018,661.0086,661.0087,662.4511,return,0.2131,,24.73958333,,,,,,FBP-YG-17.png,0.35,1.2,46,0.5,0,56,56,45,1,,,,,,,,,,,,,,,,,,,,,,,,,,,,,,,,,,,,,,,,
,,,,,V2_004,20,Female,2024-02-28_14h57.26.185,jersey_experiment_5_v2,2023.2.2,Win32,84.74576271,,,,,,,,,,,,,,,,662.4513,664.5619,664.562,666.1925,return,0.451,,74.609375,,,,,,FBP-RB-81.png,0.4,1.2,38,0.5,0,57,57,37,1,,,,,,,,,,,,,,,,,,,,,,,,,,,,,,,,,,,,,,,,
,,,,,V2_004,20,Female,2024-02-28_14h57.26.185,jersey_experiment_5_v2,2023.2.2,Win32,84.74576271,,,,,,,,,,,,,,,,666.1926,668.2984,668.2986,669.2679,return,0.4708,,74.609375,,,,,,FBP-YG-17.png,0.37,1.2,47,0.5,0,58,58,46,1,,,,,,,,,,,,,,,,,,,,,,,,,,,,,,,,,,,,,,,,
,,,,,V2_004,20,Female,2024-02-28_14h57.26.185,jersey_experiment_5_v2,2023.2.2,Win32,84.74576271,,,,,,,,,,,,,,,,669.268,671.3723,671.3725,673.2787,return,0.3403,,99.73958333,,,,,,FBP-OG-81.png,0.45,1.2,25,0.5,0,59,59,24,1,,,,,,,,,,,,,,,,,,,,,,,,,,,,,,,,,,,,,,,,
,,,,,V2_004,20,Female,2024-02-28_14h57.26.185,jersey_experiment_5_v2,2023.2.2,Win32,84.74576271,,,,,,,,,,,,,,,,,,,,,,,,,,,,,,,,,,,,,,,673.279,793.2798,,,,,,,,,,,,,,,,,,,,,,,,,,,,,,,,,,,,,,
,,,,,V2_004,20,Female,2024-02-28_14h57.26.185,jersey_experiment_5_v2,2023.2.2,Win32,84.74576271,,,,,,,,,,,,,,,,,,,,,,,,,,,,,,,,,,,,,,,,,793.2799,797.4562,return,4.1574,,,,,,,,,,,,,,,,,,,,,,,,,,,,,,,,,,
,,,,,V2_004,20,Female,2024-02-28_14h57.26.185,jersey_experiment_5_v2,2023.2.2,Win32,84.74576271,,,,,,,,,,,,,,,,797.4625,799.3196,799.3197,803.2328,return,1.1098,,99.08854167,,,,,,FBP-RB-17.png,0.43,1.2,34,0.25,,,,,,,,,,,,,0,0,0,33,1,,,,,,,,,,,,,,,,,,,,,,,,,,,,
,,,,,V2_004,20,Female,2024-02-28_14h57.26.185,jersey_experiment_5_v2,2023.2.2,Win32,84.74576271,,,,,,,,,,,,,,,,803.2332,805.0799,805.0802,806.7083,return,0.2248,,25,,,,,,FBP-YG-81.png,0.35,1.2,51,0.25,,,,,,,,,,,,,0,1,1,50,1,,,,,,,,,,,,,,,,,,,,,,,,,,,,
,,,,,V2_004,20,Female,2024-02-28_14h57.26.185,jersey_experiment_5_v2,2023.2.2,Win32,84.74576271,,,,,,,,,,,,,,,,806.7084,808.5624,808.5625,810.5306,return,0.3166,,99.73958333,,,,,,FBP-OG-19.png,0.45,1.2,30,0.25,,,,,,,,,,,,,0,2,2,29,1,,,,,,,,,,,,,,,,,,,,,,,,,,,,
,,,,,V2_004,20,Female,2024-02-28_14h57.26.185,jersey_experiment_5_v2,2023.2.2,Win32,84.74576271,,,,,,,,,,,,,,,,810.5307,812.379,812.3791,813.5658,return,0.1988,,74.609375,,,,,,FBP-OG-17.png,0.4,1.2,18,0.25,,,,,,,,,,,,,0,3,3,17,1,,,,,,,,,,,,,,,,,,,,,,,,,,,,
,,,,,V2_004,20,Female,2024-02-28_14h57.26.185,jersey_experiment_5_v2,2023.2.2,Win32,84.74576271,,,,,,,,,,,,,,,,813.5659,815.4245,815.4246,816.5438,return,0.3062,,75.26041667,,,,,,FBP-RB-18.png,0.4,1.2,38,0.25,,,,,,,,,,,,,0,4,4,37,1,,,,,,,,,,,,,,,,,,,,,,,,,,,,
,,,,,V2_004,20,Female,2024-02-28_14h57.26.185,jersey_experiment_5_v2,2023.2.2,Win32,84.74576271,,,,,,,,,,,,,,,,816.5441,818.3979,818.3981,819.4803,return,0.3402,,75.26041667,,,,,,FBP-YG-71.png,0.4,1.2,48,0.25,,,,,,,,,,,,,0,5,5,47,1,,,,,,,,,,,,,,,,,,,,,,,,,,,,
,,,,,V2_004,20,Female,2024-02-28_14h57.26.185,jersey_experiment_5_v2,2023.2.2,Win32,84.74576271,,,,,,,,,,,,,,,,819.4805,821.3392,821.3395,822.5441,return,0.212,,98.828125,,,,,,FBP-OG-17.png,0.45,1.2,20,0.25,,,,,,,,,,,,,0,6,6,19,1,,,,,,,,,,,,,,,,,,,,,,,,,,,,
,,,,,V2_004,20,Female,2024-02-28_14h57.26.185,jersey_experiment_5_v2,2023.2.2,Win32,84.74576271,,,,,,,,,,,,,,,,822.5443,824.6385,824.6388,825.8252,return,0.1886,,99.34895833,,,,,,FBP-PT-17.png,0.43,1.2,4,0.5,,,,,,,,,,,,,0,7,7,3,1,,,,,,,,,,,,,,,,,,,,,,,,,,,,
,,,,,V2_004,20,Female,2024-02-28_14h57.26.185,jersey_experiment_5_v2,2023.2.2,Win32,84.74576271,,,,,,,,,,,,,,,,825.8255,827.6841,827.6842,828.7983,return,0.2193,,99.73958333,,,,,,FBP-RB-19.png,0.43,1.2,44,0.25,,,,,,,,,,,,,0,8,8,43,1,,,,,,,,,,,,,,,,,,,,,,,,,,,,
,,,,,V2_004,20,Female,2024-02-28_14h57.26.185,jersey_experiment_5_v2,2023.2.2,Win32,84.74576271,,,,,,,,,,,,,,,,828.7985,830.6573,830.6575,831.9983,return,0.2663,,50.13020833,,,,,,FBP-RB-19.png,0.4,1.2,43,0.25,,,,,,,,,,,,,0,9,9,42,1,,,,,,,,,,,,,,,,,,,,,,,,,,,,
,,,,,V2_004,20,Female,2024-02-28_14h57.26.185,jersey_experiment_5_v2,2023.2.2,Win32,84.74576271,,,,,,,,,,,,,,,,831.9987,834.098,834.0981,835.3632,return,0.1907,,24.21875,,,,,,FBP-PT-19.png,0.35,1.2,11,0.5,,,,,,,,,,,,,0,10,10,10,1,,,,,,,,,,,,,,,,,,,,,,,,,,,,
,,,,,V2_004,20,Female,2024-02-28_14h57.26.185,jersey_experiment_5_v2,2023.2.2,Win32,84.74576271,,,,,,,,,,,,,,,,835.3635,837.2137,837.2138,838.5281,return,0.441,,24.86979167,,,,,,FBP-RB-17.png,0.35,1.2,31,0.25,,,,,,,,,,,,,0,11,11,30,1,,,,,,,,,,,,,,,,,,,,,,,,,,,,
,,,,,V2_004,20,Female,2024-02-28_14h57.26.185,jersey_experiment_5_v2,2023.2.2,Win32,84.74576271,,,,,,,,,,,,,,,,838.5284,840.6341,840.6341,843.5871,return,0.3068,,99.21875,,,,,,FBP-PT-18.png,0.45,1.2,10,0.5,,,,,,,,,,,,,0,12,12,9,1,,,,,,,,,,,,,,,,,,,,,,,,,,,,
,,,,,V2_004,20,Female,2024-02-28_14h57.26.185,jersey_experiment_5_v2,2023.2.2,Win32,84.74576271,,,,,,,,,,,,,,,,843.5874,845.439,845.4391,847.8107,return,0.9075,,25,,,,,,FBP-OG-17.png,0.35,1.2,16,0.25,,,,,,,,,,,,,0,13,13,15,1,,,,,,,,,,,,,,,,,,,,,,,,,,,,
,,,,,V2_004,20,Female,2024-02-28_14h57.26.185,jersey_experiment_5_v2,2023.2.2,Win32,84.74576271,,,,,,,,,,,,,,,,847.8109,849.6612,849.6613,851.1671,return,0.3871,,74.609375,,,,,,FBP-OG-19.png,0.4,1.2,28,0.25,,,,,,,,,,,,,0,14,14,27,1,,,,,,,,,,,,,,,,,,,,,,,,,,,,
,,,,,V2_004,20,Female,2024-02-28_14h57.26.185,jersey_experiment_5_v2,2023.2.2,Win32,84.74576271,,,,,,,,,,,,,,,,851.1673,853.285,853.2851,854.8382,return,0.4706,,74.609375,,,,,,FBP-PT-19.png,0.37,1.2,12,0.5,,,,,,,,,,,,,0,15,15,11,1,,,,,,,,,,,,,,,,,,,,,,,,,,,,
,,,,,V2_004,20,Female,2024-02-28_14h57.26.185,jersey_experiment_5_v2,2023.2.2,Win32,84.74576271,,,,,,,,,,,,,,,,854.8383,856.9405,856.9407,857.7757,return,0.2765,,74.47916667,,,,,,FBP-PT-18.png,0.37,1.2,7,0.5,,,,,,,,,,,,,0,16,16,6,1,,,,,,,,,,,,,,,,,,,,,,,,,,,,
,,,,,V2_004,20,Female,2024-02-28_14h57.26.185,jersey_experiment_5_v2,2023.2.2,Win32,84.74576271,,,,,,,,,,,,,,,,857.776,859.6277,859.628,865.6991,return,4.6834,,100,,,,,,FBP-RB-17.png,0.45,1.2,35,0.25,,,,,,,,,,,,,0,17,17,34,1,,,,,,,,,,,,,,,,,,,,,,,,,,,,
,,,,,V2_004,20,Female,2024-02-28_14h57.26.185,jersey_experiment_5_v2,2023.2.2,Win32,84.74576271,,,,,,,,,,,,,,,,865.6994,867.5439,867.5441,868.8513,return,0.4599,,75,,,,,,FBP-OG-18.png,0.35,1.2,21,0.25,,,,,,,,,,,,,0,18,18,20,1,,,,,,,,,,,,,,,,,,,,,,,,,,,,
,,,,,V2_004,20,Female,2024-02-28_14h57.26.185,jersey_experiment_5_v2,2023.2.2,Win32,84.74576271,,,,,,,,,,,,,,,,868.8516,870.7057,870.706,871.7328,return,0.2694,,99.73958333,,,,,,FBP-RB-18.png,0.43,1.2,39,0.25,,,,,,,,,,,,,0,19,19,38,1,,,,,,,,,,,,,,,,,,,,,,,,,,,,
,,,,,V2_004,20,Female,2024-02-28_14h57.26.185,jersey_experiment_5_v2,2023.2.2,Win32,84.74576271,,,,,,,,,,,,,,,,871.733,873.8407,873.8409,874.9293,return,0.144,,74.21875,,,,,,FBP-PT-17.png,0.37,1.2,2,0.5,,,,,,,,,,,,,0,20,20,1,1,,,,,,,,,,,,,,,,,,,,,,,,,,,,
,,,,,V2_004,20,Female,2024-02-28_14h57.26.185,jersey_experiment_5_v2,2023.2.2,Win32,84.74576271,,,,,,,,,,,,,,,,874.9296,876.7813,876.7814,878.6271,return,0.2592,,99.34895833,,,,,,FBP-OG-18.png,0.43,1.2,24,0.25,,,,,,,,,,,,,0,21,21,23,1,,,,,,,,,,,,,,,,,,,,,,,,,,,,
,,,,,V2_004,20,Female,2024-02-28_14h57.26.185,jersey_experiment_5_v2,2023.2.2,Win32,84.74576271,,,,,,,,,,,,,,,,878.6273,880.4755,880.4756,881.6473,return,0.1711,,74.21875,,,,,,FBP-YG-91.png,0.45,1.2,60,0.25,,,,,,,,,,,,,0,22,22,59,1,,,,,,,,,,,,,,,,,,,,,,,,,,,,
,,,,,V2_004,20,Female,2024-02-28_14h57.26.185,jersey_experiment_5_v2,2023.2.2,Win32,84.74576271,,,,,,,,,,,,,,,,881.6476,883.511,883.5112,884.6592,return,0.191,,49.86979167,,,,,,FBP-OG-18.png,0.4,1.2,23,0.25,,,,,,,,,,,,,0,23,23,22,1,,,,,,,,,,,,,,,,,,,,,,,,,,,,
,,,,,V2_004,20,Female,2024-02-28_14h57.26.185,jersey_experiment_5_v2,2023.2.2,Win32,84.74576271,,,,,,,,,,,,,,,,884.6594,886.765,886.7652,889.0241,return,1.2281,,75.65104167,,,,,,FBP-PT-17.png,0.45,1.2,5,0.5,,,,,,,,,,,,,0,24,24,4,1,,,,,,,,,,,,,,,,,,,,,,,,,,,,
,,,,,V2_004,20,Female,2024-02-28_14h57.26.185,jersey_experiment_5_v2,2023.2.2,Win32,84.74576271,,,,,,,,,,,,,,,,889.0242,890.8762,890.8763,892.1807,return,0.4708,,99.08854167,,,,,,FBP-YG-81.png,0.43,1.2,54,0.25,,,,,,,,,,,,,0,25,25,53,1,,,,,,,,,,,,,,,,,,,,,,,,,,,,
,,,,,V2_004,20,Female,2024-02-28_14h57.26.185,jersey_experiment_5_v2,2023.2.2,Win32,84.74576271,,,,,,,,,,,,,,,,892.1808,894.2876,894.2877,895.9116,return,0.4839,,75,,,,,,FBP-PT-19.png,0.43,1.2,14,0.5,,,,,,,,,,,,,0,26,26,13,1,,,,,,,,,,,,,,,,,,,,,,,,,,,,
,,,,,V2_004,20,Female,2024-02-28_14h57.26.185,jersey_experiment_5_v2,2023.2.2,Win32,84.74576271,,,,,,,,,,,,,,,,895.9117,897.7538,897.7539,900.2984,return,1.7048,,99.47916667,,,,,,FBP-YG-71.png,0.45,1.2,50,0.25,,,,,,,,,,,,,0,27,27,49,1,,,,,,,,,,,,,,,,,,,,,,,,,,,,
,,,,,V2_004,20,Female,2024-02-28_14h57.26.185,jersey_experiment_5_v2,2023.2.2,Win32,84.74576271,,,,,,,,,,,,,,,,900.2987,902.154,902.1542,904.4011,return,0.9327,,75.26041667,,,,,,FBP-OG-19.png,0.43,1.2,29,0.25,,,,,,,,,,,,,0,28,28,28,1,,,,,,,,,,,,,,,,,,,,,,,,,,,,
,,,,,V2_004,20,Female,2024-02-28_14h57.26.185,jersey_experiment_5_v2,2023.2.2,Win32,84.74576271,,,,,,,,,,,,,,,,904.4013,906.2515,906.2517,908.581,return,0.8342,,26.171875,,,,,,FBP-RB-19.png,0.35,1.2,41,0.25,,,,,,,,,,,,,0,29,29,40,1,,,,,,,,,,,,,,,,,,,,,,,,,,,,
,,,,,V2_004,20,Female,2024-02-28_14h57.26.185,jersey_experiment_5_v2,2023.2.2,Win32,84.74576271,,,,,,,,,,,,,,,,908.5812,910.4398,910.4399,913.2401,return,0.8808,,49.86979167,,,,,,FBP-YG-91.png,0.43,1.2,59,0.25,,,,,,,,,,,,,0,30,30,58,1,,,,,,,,,,,,,,,,,,,,,,,,,,,,
,,,,,V2_004,20,Female,2024-02-28_14h57.26.185,jersey_experiment_5_v2,2023.2.2,Win32,84.74576271,,,,,,,,,,,,,,,,913.2403,915.0838,915.0839,916.2249,return,0.2622,,49.73958333,,,,,,FBP-RB-18.png,0.37,1.2,37,0.25,,,,,,,,,,,,,0,31,31,36,1,,,,,,,,,,,,,,,,,,,,,,,,,,,,
,,,,,V2_004,20,Female,2024-02-28_14h57.26.185,jersey_experiment_5_v2,2023.2.2,Win32,84.74576271,,,,,,,,,,,,,,,,916.2252,918.0769,918.0771,919.0722,return,0.2527,,50,,,,,,FBP-YG-91.png,0.37,1.2,57,0.25,,,,,,,,,,,,,0,32,32,56,1,,,,,,,,,,,,,,,,,,,,,,,,,,,,
,,,,,V2_004,20,Female,2024-02-28_14h57.26.185,jersey_experiment_5_v2,2023.2.2,Win32,84.74576271,,,,,,,,,,,,,,,,919.0724,921.1826,921.1829,922.59,return,0.6301,,49.609375,,,,,,FBP-PT-17.png,0.35,1.2,1,0.5,,,,,,,,,,,,,0,33,33,0,1,,,,,,,,,,,,,,,,,,,,,,,,,,,,
,,,,,V2_004,20,Female,2024-02-28_14h57.26.185,jersey_experiment_5_v2,2023.2.2,Win32,84.74576271,,,,,,,,,,,,,,,,922.5901,924.4531,924.4534,925.9233,return,0.5287,,50.13020833,,,,,,FBP-YG-81.png,0.37,1.2,52,0.25,,,,,,,,,,,,,0,34,34,51,1,,,,,,,,,,,,,,,,,,,,,,,,,,,,
,,,,,V2_004,20,Female,2024-02-28_14h57.26.185,jersey_experiment_5_v2,2023.2.2,Win32,84.74576271,,,,,,,,,,,,,,,,925.9234,928.03,928.0301,930.1314,return,1.2386,,99.21875,,,,,,FBP-PT-18.png,0.4,1.2,8,0.5,,,,,,,,,,,,,0,35,35,7,1,,,,,,,,,,,,,,,,,,,,,,,,,,,,
,,,,,V2_004,20,Female,2024-02-28_14h57.26.185,jersey_experiment_5_v2,2023.2.2,Win32,84.74576271,,,,,,,,,,,,,,,,930.1317,931.9905,931.9906,933.2644,return,0.3637,,75.78125,,,,,,FBP-RB-17.png,0.4,1.2,33,0.25,,,,,,,,,,,,,0,36,36,32,1,,,,,,,,,,,,,,,,,,,,,,,,,,,,
,,,,,V2_004,20,Female,2024-02-28_14h57.26.185,jersey_experiment_5_v2,2023.2.2,Win32,84.74576271,,,,,,,,,,,,,,,,933.2646,935.3587,935.3588,937.5945,return,0.4346,,25.390625,,,,,,FBP-PT-18.png,0.35,1.2,6,0.5,,,,,,,,,,,,,0,37,37,5,1,,,,,,,,,,,,,,,,,,,,,,,,,,,,
,,,,,V2_004,20,Female,2024-02-28_14h57.26.185,jersey_experiment_5_v2,2023.2.2,Win32,84.74576271,,,,,,,,,,,,,,,,937.5947,939.7012,939.7013,941.1,return,0.1991,,74.08854167,,,,,,FBP-PT-17.png,0.4,1.2,3,0.5,,,,,,,,,,,,,0,38,38,2,1,,,,,,,,,,,,,,,,,,,,,,,,,,,,
,,,,,V2_004,20,Female,2024-02-28_14h57.26.185,jersey_experiment_5_v2,2023.2.2,Win32,84.74576271,,,,,,,,,,,,,,,,941.1002,942.9482,942.9484,944.3709,return,0.4107,,48.828125,,,,,,FBP-OG-18.png,0.37,1.2,22,0.25,,,,,,,,,,,,,0,39,39,21,1,,,,,,,,,,,,,,,,,,,,,,,,,,,,
,,,,,V2_004,20,Female,2024-02-28_14h57.26.185,jersey_experiment_5_v2,2023.2.2,Win32,84.74576271,,,,,,,,,,,,,,,,944.371,946.2261,946.2263,949.5236,return,1.2003,,37.63020833,,,,,,FBP-RB-19.png,0.37,1.2,42,0.25,,,,,,,,,,,,,0,40,40,41,1,,,,,,,,,,,,,,,,,,,,,,,,,,,,
,,,,,V2_004,20,Female,2024-02-28_14h57.26.185,jersey_experiment_5_v2,2023.2.2,Win32,84.74576271,,,,,,,,,,,,,,,,949.5237,951.3721,951.3723,953.3591,return,0.3165,,99.08854167,,,,,,FBP-YG-71.png,0.43,1.2,49,0.25,,,,,,,,,,,,,0,41,41,48,1,,,,,,,,,,,,,,,,,,,,,,,,,,,,
,,,,,V2_004,20,Female,2024-02-28_14h57.26.185,jersey_experiment_5_v2,2023.2.2,Win32,84.74576271,,,,,,,,,,,,,,,,953.3593,955.2075,955.2077,956.6432,return,0.2017,,24.86979167,,,,,,FBP-YG-71.png,0.35,1.2,46,0.25,,,,,,,,,,,,,0,42,42,45,1,,,,,,,,,,,,,,,,,,,,,,,,,,,,
,,,,,V2_004,20,Female,2024-02-28_14h57.26.185,jersey_experiment_5_v2,2023.2.2,Win32,84.74576271,,,,,,,,,,,,,,,,956.6434,958.5018,958.502,959.7595,return,0.2695,,74.21875,,,,,,FBP-YG-91.png,0.4,1.2,58,0.25,,,,,,,,,,,,,0,43,43,57,1,,,,,,,,,,,,,,,,,,,,,,,,,,,,
,,,,,V2_004,20,Female,2024-02-28_14h57.26.185,jersey_experiment_5_v2,2023.2.2,Win32,84.74576271,,,,,,,,,,,,,,,,959.7597,961.618,961.6182,962.8654,return,0.1517,,24.73958333,,,,,,FBP-YG-91.png,0.35,1.2,56,0.25,,,,,,,,,,,,,0,44,44,55,1,,,,,,,,,,,,,,,,,,,,,,,,,,,,
,,,,,V2_004,20,Female,2024-02-28_14h57.26.185,jersey_experiment_5_v2,2023.2.2,Win32,84.74576271,,,,,,,,,,,,,,,,962.8655,964.7138,964.7139,966.2855,return,0.1963,,99.08854167,,,,,,FBP-YG-81.png,0.45,1.2,55,0.25,,,,,,,,,,,,,0,45,45,54,1,,,,,,,,,,,,,,,,,,,,,,,,,,,,
,,,,,V2_004,20,Female,2024-02-28_14h57.26.185,jersey_experiment_5_v2,2023.2.2,Win32,84.74576271,,,,,,,,,,,,,,,,966.2857,968.3948,968.3949,969.8387,return,0.1953,,98.56770833,,,,,,FBP-PT-19.png,0.45,1.2,15,0.5,,,,,,,,,,,,,0,46,46,14,1,,,,,,,,,,,,,,,,,,,,,,,,,,,,
,,,,,V2_004,20,Female,2024-02-28_14h57.26.185,jersey_experiment_5_v2,2023.2.2,Win32,84.74576271,,,,,,,,,,,,,,,,969.839,971.7021,971.7022,973.4543,return,0.1285,,24.47916667,,,,,,FBP-RB-18.png,0.35,1.2,36,0.25,,,,,,,,,,,,,0,47,47,35,1,,,,,,,,,,,,,,,,,,,,,,,,,,,,
,,,,,V2_004,20,Female,2024-02-28_14h57.26.185,jersey_experiment_5_v2,2023.2.2,Win32,84.74576271,,,,,,,,,,,,,,,,973.4544,975.3129,975.3131,977.1956,return,0.2358,,98.69791667,,,,,,FBP-OG-18.png,0.45,1.2,25,0.25,,,,,,,,,,,,,0,48,48,24,1,,,,,,,,,,,,,,,,,,,,,,,,,,,,
,,,,,V2_004,20,Female,2024-02-28_14h57.26.185,jersey_experiment_5_v2,2023.2.2,Win32,84.74576271,,,,,,,,,,,,,,,,977.1957,979.3132,979.3133,980.4979,return,0.1448,,99.47916667,,,,,,FBP-PT-18.png,0.43,1.2,9,0.5,,,,,,,,,,,,,0,49,49,8,1,,,,,,,,,,,,,,,,,,,,,,,,,,,,
,,,,,V2_004,20,Female,2024-02-28_14h57.26.185,jersey_experiment_5_v2,2023.2.2,Win32,84.74576271,,,,,,,,,,,,,,,,980.4981,982.3569,982.357,983.5569,return,0.19,,74.609375,,,,,,FBP-OG-17.png,0.43,1.2,19,0.25,,,,,,,,,,,,,0,50,50,18,1,,,,,,,,,,,,,,,,,,,,,,,,,,,,
,,,,,V2_004,20,Female,2024-02-28_14h57.26.185,jersey_experiment_5_v2,2023.2.2,Win32,84.74576271,,,,,,,,,,,,,,,,983.5571,985.4158,985.416,987.8074,return,0.0571,,75,,,,,,FBP-YG-71.png,0.37,1.2,47,0.25,,,,,,,,,,,,,0,51,51,46,1,,,,,,,,,,,,,,,,,,,,,,,,,,,,
,,,,,V2_004,20,Female,2024-02-28_14h57.26.185,jersey_experiment_5_v2,2023.2.2,Win32,84.74576271,,,,,,,,,,,,,,,,987.8076,989.6661,989.6663,991.9621,return,0.6123,,73.828125,,,,,,FBP-YG-81.png,0.4,1.2,53,0.25,,,,,,,,,,,,,0,52,52,52,1,,,,,,,,,,,,,,,,,,,,,,,,,,,,
,,,,,V2_004,20,Female,2024-02-28_14h57.26.185,jersey_experiment_5_v2,2023.2.2,Win32,84.74576271,,,,,,,,,,,,,,,,991.9623,994.0667,994.0667,999.8317,return,0.7168,,60.28645833,,,,,,FBP-PT-19.png,0.4,1.2,13,0.5,,,,,,,,,,,,,0,53,53,12,1,,,,,,,,,,,,,,,,,,,,,,,,,,,,
,,,,,V2_004,20,Female,2024-02-28_14h57.26.185,jersey_experiment_5_v2,2023.2.2,Win32,84.74576271,,,,,,,,,,,,,,,,999.8318,1001.6799,1001.6802,1003.4317,return,0.7873,,25.52083333,,,,,,FBP-OG-19.png,0.35,1.2,26,0.25,,,,,,,,,,,,,0,54,54,25,1,,,,,,,,,,,,,,,,,,,,,,,,,,,,
,,,,,V2_004,20,Female,2024-02-28_14h57.26.185,jersey_experiment_5_v2,2023.2.2,Win32,84.74576271,,,,,,,,,,,,,,,,1003.4319,1005.2871,1005.2873,1007.8556,return,0.683,,48.95833333,,,,,,FBP-OG-19.png,0.37,1.2,27,0.25,,,,,,,,,,,,,0,55,55,26,1,,,,,,,,,,,,,,,,,,,,,,,,,,,,
,,,,,V2_004,20,Female,2024-02-28_14h57.26.185,jersey_experiment_5_v2,2023.2.2,Win32,84.74576271,,,,,,,,,,,,,,,,1007.8557,1009.699,1009.6992,1011.9025,return,0.6354,,99.21875,,,,,,FBP-RB-18.png,0.45,1.2,40,0.25,,,,,,,,,,,,,0,56,56,39,1,,,,,,,,,,,,,,,,,,,,,,,,,,,,
,,,,,V2_004,20,Female,2024-02-28_14h57.26.185,jersey_experiment_5_v2,2023.2.2,Win32,84.74576271,,,,,,,,,,,,,,,,1011.9026,1013.7463,1013.7465,1015.3983,return,0.7063,,50.390625,,,,,,FBP-OG-17.png,0.37,1.2,17,0.25,,,,,,,,,,,,,0,57,57,16,1,,,,,,,,,,,,,,,,,,,,,,,,,,,,
,,,,,V2_004,20,Female,2024-02-28_14h57.26.185,jersey_experiment_5_v2,2023.2.2,Win32,84.74576271,,,,,,,,,,,,,,,,1015.3985,1017.2568,1017.2569,1020.0205,return,1.6709,,99.609375,,,,,,FBP-RB-19.png,0.45,1.2,45,0.25,,,,,,,,,,,,,0,58,58,44,1,,,,,,,,,,,,,,,,,,,,,,,,,,,,
,,,,,V2_004,20,Female,2024-02-28_14h57.26.185,jersey_experiment_5_v2,2023.2.2,Win32,84.74576271,,,,,,,,,,,,,,,,1020.0206,1021.8683,1021.8685,1027.0927,return,3.8357,,25.65104167,,,,,,FBP-RB-17.png,0.37,1.2,32,0.25,,,,,,,,,,,,,0,59,59,31,1,,,,,,,,,,,,,,,,,,,,,,,,,,,,
,,,,,V2_004,20,Female,2024-02-28_14h57.26.185,jersey_experiment_5_v2,2023.2.2,Win32,84.74576271,,,,,,,,,,,,,,,,1027.0946,1028.9516,1028.9518,1031.1972,return,0.9987,,25.13020833,,,,,,FBP-YG-17.png,0.37,1.2,47,0.25,,,,,,,,,,,,,,,,,,0,0,0,46,1,,,,,,,,,,,,,,,,,,,,,,,
,,,,,V2_004,20,Female,2024-02-28_14h57.26.185,jersey_experiment_5_v2,2023.2.2,Win32,84.74576271,,,,,,,,,,,,,,,,1031.1975,1033.0558,1033.0559,1035.5269,return,1.5873,,25,,,,,,FBP-RB-81.png,0.35,1.2,36,0.25,,,,,,,,,,,,,,,,,,0,1,1,35,1,,,,,,,,,,,,,,,,,,,,,,,
,,,,,V2_004,20,Female,2024-02-28_14h57.26.185,jersey_experiment_5_v2,2023.2.2,Win32,84.74576271,,,,,,,,,,,,,,,,1035.527,1037.3825,1037.3828,1040.0683,return,1.7519,,49.609375,,,,,,FBP-OG-71.png,0.4,1.2,18,0.25,,,,,,,,,,,,,,,,,,0,2,2,17,1,,,,,,,,,,,,,,,,,,,,,,,
,,,,,V2_004,20,Female,2024-02-28_14h57.26.185,jersey_experiment_5_v2,2023.2.2,Win32,84.74576271,,,,,,,,,,,,,,,,1040.0684,1041.927,1041.927,1043.9168,return,0.2825,,25.78125,,,,,,FBP-OG-71.png,0.37,1.2,17,0.25,,,,,,,,,,,,,,,,,,0,3,3,16,1,,,,,,,,,,,,,,,,,,,,,,,
,,,,,V2_004,20,Female,2024-02-28_14h57.26.185,jersey_experiment_5_v2,2023.2.2,Win32,84.74576271,,,,,,,,,,,,,,,,1043.9169,1045.7755,1045.7757,1046.9524,return,0.2122,,74.73958333,,,,,,FBP-YG-19.png,0.45,1.2,60,0.25,,,,,,,,,,,,,,,,,,0,4,4,59,1,,,,,,,,,,,,,,,,,,,,,,,
,,,,,V2_004,20,Female,2024-02-28_14h57.26.185,jersey_experiment_5_v2,2023.2.2,Win32,84.74576271,,,,,,,,,,,,,,,,1046.9526,1048.7946,1048.7948,1050.7278,return,0.458,,99.86979167,,,,,,FBP-RB-91.png,0.45,1.2,45,0.25,,,,,,,,,,,,,,,,,,0,5,5,44,1,,,,,,,,,,,,,,,,,,,,,,,
,,,,,V2_004,20,Female,2024-02-28_14h57.26.185,jersey_experiment_5_v2,2023.2.2,Win32,84.74576271,,,,,,,,,,,,,,,,1050.7279,1052.5756,1052.5758,1054.7173,return,0.2487,,98.95833333,,,,,,FBP-OG-91.png,0.43,1.2,29,0.25,,,,,,,,,,,,,,,,,,0,6,6,28,1,,,,,,,,,,,,,,,,,,,,,,,
,,,,,V2_004,20,Female,2024-02-28_14h57.26.185,jersey_experiment_5_v2,2023.2.2,Win32,84.74576271,,,,,,,,,,,,,,,,1054.7176,1056.5758,1056.5759,1058.2938,return,0.2354,,99.21875,,,,,,FBP-YG-18.png,0.43,1.2,54,0.25,,,,,,,,,,,,,,,,,,0,7,7,53,1,,,,,,,,,,,,,,,,,,,,,,,
,,,,,V2_004,20,Female,2024-02-28_14h57.26.185,jersey_experiment_5_v2,2023.2.2,Win32,84.74576271,,,,,,,,,,,,,,,,1058.294,1060.148,1060.1482,1061.9278,return,0.659,,99.08854167,,,,,,FBP-OG-81.png,0.45,1.2,25,0.25,,,,,,,,,,,,,,,,,,0,8,8,24,1,,,,,,,,,,,,,,,,,,,,,,,
,,,,,V2_004,20,Female,2024-02-28_14h57.26.185,jersey_experiment_5_v2,2023.2.2,Win32,84.74576271,,,,,,,,,,,,,,,,1061.928,1063.7762,1063.7763,1065.1883,return,0.2018,,98.56770833,,,,,,FBP-RB-91.png,0.43,1.2,44,0.25,,,,,,,,,,,,,,,,,,0,9,9,43,1,,,,,,,,,,,,,,,,,,,,,,,
,,,,,V2_004,20,Female,2024-02-28_14h57.26.185,jersey_experiment_5_v2,2023.2.2,Win32,84.74576271,,,,,,,,,,,,,,,,1065.1885,1067.3011,1067.3012,1068.1364,return,0.2826,,98.4375,,,,,,FBP-PT-81.png,0.43,1.2,9,0.5,,,,,,,,,,,,,,,,,,0,10,10,8,1,,,,,,,,,,,,,,,,,,,,,,,
,,,,,V2_004,20,Female,2024-02-28_14h57.26.185,jersey_experiment_5_v2,2023.2.2,Win32,84.74576271,,,,,,,,,,,,,,,,1068.1367,1070.2307,1070.231,1071.6461,return,0.3638,,98.17708333,,,,,,FBP-PT-81.png,0.4,1.2,8,0.5,,,,,,,,,,,,,,,,,,0,11,11,7,1,,,,,,,,,,,,,,,,,,,,,,,
,,,,,V2_004,20,Female,2024-02-28_14h57.26.185,jersey_experiment_5_v2,2023.2.2,Win32,84.74576271,,,,,,,,,,,,,,,,1071.6462,1073.4941,1073.4942,1074.9062,return,0.2959,,25,,,,,,FBP-YG-17.png,0.35,1.2,46,0.25,,,,,,,,,,,,,,,,,,0,12,12,45,1,,,,,,,,,,,,,,,,,,,,,,,
,,,,,V2_004,20,Female,2024-02-28_14h57.26.185,jersey_experiment_5_v2,2023.2.2,Win32,84.74576271,,,,,,,,,,,,,,,,1074.9063,1076.7603,1076.7604,1077.9522,return,0.1991,,50.52083333,,,,,,FBP-YG-17.png,0.4,1.2,48,0.25,,,,,,,,,,,,,,,,,,0,13,13,47,1,,,,,,,,,,,,,,,,,,,,,,,
,,,,,V2_004,20,Female,2024-02-28_14h57.26.185,jersey_experiment_5_v2,2023.2.2,Win32,84.74576271,,,,,,,,,,,,,,,,1077.9523,1079.8004,1079.8005,1081.2124,return,0.2121,,74.47916667,,,,,,FBP-RB-71.png,0.43,1.2,34,0.25,,,,,,,,,,,,,,,,,,0,14,14,33,1,,,,,,,,,,,,,,,,,,,,,,,
,,,,,V2_004,20,Female,2024-02-28_14h57.26.185,jersey_experiment_5_v2,2023.2.2,Win32,84.74576271,,,,,,,,,,,,,,,,1081.2126,1083.3296,1083.3297,1084.3186,return,0.2491,,74.47916667,,,,,,FBP-PT-71.png,0.4,1.2,3,0.5,,,,,,,,,,,,,,,,,,0,15,15,2,1,,,,,,,,,,,,,,,,,,,,,,,
,,,,,V2_004,20,Female,2024-02-28_14h57.26.185,jersey_experiment_5_v2,2023.2.2,Win32,84.74576271,,,,,,,,,,,,,,,,1084.3189,1086.4312,1086.4313,1087.3642,return,0.1887,,75.13020833,,,,,,FBP-PT-71.png,0.45,1.2,5,0.5,,,,,,,,,,,,,,,,,,0,16,16,4,1,,,,,,,,,,,,,,,,,,,,,,,
,,,,,V2_004,20,Female,2024-02-28_14h57.26.185,jersey_experiment_5_v2,2023.2.2,Win32,84.74576271,,,,,,,,,,,,,,,,1087.3643,1089.2229,1089.223,1090.4936,return,0.3765,,25.390625,,,,,,FBP-OG-91.png,0.37,1.2,27,0.25,,,,,,,,,,,,,,,,,,0,17,17,26,1,,,,,,,,,,,,,,,,,,,,,,,
,,,,,V2_004,20,Female,2024-02-28_14h57.26.185,jersey_experiment_5_v2,2023.2.2,Win32,84.74576271,,,,,,,,,,,,,,,,1090.4938,1092.3521,1092.3523,1093.5524,return,0.2118,,25.13020833,,,,,,FBP-OG-81.png,0.37,1.2,22,0.25,,,,,,,,,,,,,,,,,,0,18,18,21,1,,,,,,,,,,,,,,,,,,,,,,,
,,,,,V2_004,20,Female,2024-02-28_14h57.26.185,jersey_experiment_5_v2,2023.2.2,Win32,84.74576271,,,,,,,,,,,,,,,,1093.5525,1095.401,1095.4012,1096.8701,return,0.2822,,98.828125,,,,,,FBP-YG-17.png,0.45,1.2,50,0.25,,,,,,,,,,,,,,,,,,0,19,19,49,1,,,,,,,,,,,,,,,,,,,,,,,
,,,,,V2_004,20,Female,2024-02-28_14h57.26.185,jersey_experiment_5_v2,2023.2.2,Win32,84.74576271,,,,,,,,,,,,,,,,1096.8703,1098.7289,1098.729,1100.1308,return,0.2957,,24.86979167,,,,,,FBP-YG-18.png,0.35,1.2,51,0.25,,,,,,,,,,,,,,,,,,0,20,20,50,1,,,,,,,,,,,,,,,,,,,,,,,
,,,,,V2_004,20,Female,2024-02-28_14h57.26.185,jersey_experiment_5_v2,2023.2.2,Win32,84.74576271,,,,,,,,,,,,,,,,1100.131,1101.976,1101.9762,1103.5766,return,0.1417,,25.390625,,,,,,FBP-YG-18.png,0.37,1.2,52,0.25,,,,,,,,,,,,,,,,,,0,21,21,51,1,,,,,,,,,,,,,,,,,,,,,,,
,,,,,V2_004,20,Female,2024-02-28_14h57.26.185,jersey_experiment_5_v2,2023.2.2,Win32,84.74576271,,,,,,,,,,,,,,,,1103.5767,1105.4248,1105.4249,1107.0555,return,0.5933,,24.73958333,,,,,,FBP-RB-71.png,0.37,1.2,32,0.25,,,,,,,,,,,,,,,,,,0,22,22,31,1,,,,,,,,,,,,,,,,,,,,,,,
,,,,,V2_004,20,Female,2024-02-28_14h57.26.185,jersey_experiment_5_v2,2023.2.2,Win32,84.74576271,,,,,,,,,,,,,,,,1107.0557,1108.9072,1108.9074,1110.4791,return,0.2288,,26.30208333,,,,,,FBP-OG-91.png,0.4,1.2,28,0.25,,,,,,,,,,,,,,,,,,0,23,23,27,1,,,,,,,,,,,,,,,,,,,,,,,
,,,,,V2_004,20,Female,2024-02-28_14h57.26.185,jersey_experiment_5_v2,2023.2.2,Win32,84.74576271,,,,,,,,,,,,,,,,1110.4793,1112.3425,1112.3426,1114.1616,return,0.5441,,26.04166667,,,,,,FBP-OG-71.png,0.35,1.2,16,0.25,,,,,,,,,,,,,,,,,,0,24,24,15,1,,,,,,,,,,,,,,,,,,,,,,,
,,,,,V2_004,20,Female,2024-02-28_14h57.26.185,jersey_experiment_5_v2,2023.2.2,Win32,84.74576271,,,,,,,,,,,,,,,,1114.1618,1116.0206,1116.0207,1117.3655,return,0.3639,,49.73958333,,,,,,FBP-YG-18.png,0.4,1.2,53,0.25,,,,,,,,,,,,,,,,,,0,25,25,52,1,,,,,,,,,,,,,,,,,,,,,,,
,,,,,V2_004,20,Female,2024-02-28_14h57.26.185,jersey_experiment_5_v2,2023.2.2,Win32,84.74576271,,,,,,,,,,,,,,,,1117.3656,1119.2088,1119.209,1120.4947,return,0.1415,,74.34895833,,,,,,FBP-YG-19.png,0.4,1.2,58,0.25,,,,,,,,,,,,,,,,,,0,26,26,57,1,,,,,,,,,,,,,,,,,,,,,,,
,,,,,V2_004,20,Female,2024-02-28_14h57.26.185,jersey_experiment_5_v2,2023.2.2,Win32,84.74576271,,,,,,,,,,,,,,,,1120.4948,1122.3536,1122.3537,1123.6609,return,0.1178,,48.56770833,,,,,,FBP-RB-81.png,0.37,1.2,37,0.25,,,,,,,,,,,,,,,,,,0,27,27,36,1,,,,,,,,,,,,,,,,,,,,,,,
,,,,,V2_004,20,Female,2024-02-28_14h57.26.185,jersey_experiment_5_v2,2023.2.2,Win32,84.74576271,,,,,,,,,,,,,,,,1123.6611,1125.7652,1125.7653,1126.7032,return,0.1933,,74.34895833,,,,,,FBP-PT-91.png,0.37,1.2,12,0.5,,,,,,,,,,,,,,,,,,0,28,28,11,1,,,,,,,,,,,,,,,,,,,,,,,
,,,,,V2_004,20,Female,2024-02-28_14h57.26.185,jersey_experiment_5_v2,2023.2.2,Win32,84.74576271,,,,,,,,,,,,,,,,1126.7035,1128.5652,1128.5653,1129.7186,return,0.2694,,98.17708333,,,,,,FBP-RB-71.png,0.45,1.2,35,0.25,,,,,,,,,,,,,,,,,,0,29,29,34,1,,,,,,,,,,,,,,,,,,,,,,,
,,,,,V2_004,20,Female,2024-02-28_14h57.26.185,jersey_experiment_5_v2,2023.2.2,Win32,84.74576271,,,,,,,,,,,,,,,,1129.7187,1131.821,1131.8212,1133.5975,return,0.82,,61.71875,,,,,,FBP-PT-71.png,0.37,1.2,2,0.5,,,,,,,,,,,,,,,,,,0,30,30,1,1,,,,,,,,,,,,,,,,,,,,,,,
,,,,,V2_004,20,Female,2024-02-28_14h57.26.185,jersey_experiment_5_v2,2023.2.2,Win32,84.74576271,,,,,,,,,,,,,,,,1133.5978,1135.4493,1135.4495,1136.5188,return,0.165,,75.78125,,,,,,FBP-OG-71.png,0.43,1.2,19,0.25,,,,,,,,,,,,,,,,,,0,31,31,18,1,,,,,,,,,,,,,,,,,,,,,,,
,,,,,V2_004,20,Female,2024-02-28_14h57.26.185,jersey_experiment_5_v2,2023.2.2,Win32,84.74576271,,,,,,,,,,,,,,,,1136.519,1138.613,1138.6132,1139.7423,return,0.1753,,49.34895833,,,,,,FBP-PT-71.png,0.35,1.2,1,0.5,,,,,,,,,,,,,,,,,,0,32,32,0,1,,,,,,,,,,,,,,,,,,,,,,,
,,,,,V2_004,20,Female,2024-02-28_14h57.26.185,jersey_experiment_5_v2,2023.2.2,Win32,84.74576271,,,,,,,,,,,,,,,,1139.7425,1141.6013,1141.6014,1142.6735,return,0.2121,,99.08854167,,,,,,FBP-OG-71.png,0.45,1.2,20,0.25,,,,,,,,,,,,,,,,,,0,33,33,19,1,,,,,,,,,,,,,,,,,,,,,,,
,,,,,V2_004,20,Female,2024-02-28_14h57.26.185,jersey_experiment_5_v2,2023.2.2,Win32,84.74576271,,,,,,,,,,,,,,,,1142.6737,1144.532,1144.5321,1152.7074,return,7.0931,,75,,,,,,FBP-YG-19.png,0.37,1.2,57,0.25,,,,,,,,,,,,,,,,,,0,34,34,56,1,,,,,,,,,,,,,,,,,,,,,,,
,,,,,V2_004,20,Female,2024-02-28_14h57.26.185,jersey_experiment_5_v2,2023.2.2,Win32,84.74576271,,,,,,,,,,,,,,,,1152.7116,1154.5795,1154.5795,1156.0256,return,0.4579,,25.91145833,,,,,,FBP-YG-19.png,0.35,1.2,56,0.25,,,,,,,,,,,,,,,,,,0,35,35,55,1,,,,,,,,,,,,,,,,,,,,,,,
,,,,,V2_004,20,Female,2024-02-28_14h57.26.185,jersey_experiment_5_v2,2023.2.2,Win32,84.74576271,,,,,,,,,,,,,,,,1156.0256,1158.1431,1158.1432,1159.9986,return,0.772,,47.78645833,,,,,,FBP-PT-81.png,0.35,1.2,6,0.5,,,,,,,,,,,,,,,,,,0,36,36,5,1,,,,,,,,,,,,,,,,,,,,,,,
,,,,,V2_004,20,Female,2024-02-28_14h57.26.185,jersey_experiment_5_v2,2023.2.2,Win32,84.74576271,,,,,,,,,,,,,,,,1159.9988,1161.8503,1161.8504,1163.9085,return,0.7404,,75.390625,,,,,,FBP-OG-81.png,0.43,1.2,24,0.25,,,,,,,,,,,,,,,,,,0,37,37,23,1,,,,,,,,,,,,,,,,,,,,,,,
,,,,,V2_004,20,Female,2024-02-28_14h57.26.185,jersey_experiment_5_v2,2023.2.2,Win32,84.74576271,,,,,,,,,,,,,,,,1163.9087,1165.7634,1165.7636,1167.0978,return,0.7062,,74.86979167,,,,,,FBP-YG-19.png,0.43,1.2,59,0.25,,,,,,,,,,,,,,,,,,0,38,38,58,1,,,,,,,,,,,,,,,,,,,,,,,
,,,,,V2_004,20,Female,2024-02-28_14h57.26.185,jersey_experiment_5_v2,2023.2.2,Win32,84.74576271,,,,,,,,,,,,,,,,1167.098,1168.9432,1168.9433,1170.7926,return,0.7901,,24.86979167,,,,,,FBP-RB-71.png,0.35,1.2,31,0.25,,,,,,,,,,,,,,,,,,0,39,39,30,1,,,,,,,,,,,,,,,,,,,,,,,
,,,,,V2_004,20,Female,2024-02-28_14h57.26.185,jersey_experiment_5_v2,2023.2.2,Win32,84.74576271,,,,,,,,,,,,,,,,1170.7928,1172.8962,1172.8963,1177.4697,return,2.6774,,99.08854167,,,,,,FBP-PT-71.png,0.43,1.2,4,0.5,,,,,,,,,,,,,,,,,,0,40,40,3,1,,,,,,,,,,,,,,,,,,,,,,,
,,,,,V2_004,20,Female,2024-02-28_14h57.26.185,jersey_experiment_5_v2,2023.2.2,Win32,84.74576271,,,,,,,,,,,,,,,,1177.4699,1179.3206,1179.3207,1183.2399,return,0.5076,,84.765625,,,,,,FBP-RB-81.png,0.45,1.2,40,0.25,,,,,,,,,,,,,,,,,,0,41,41,39,1,,,,,,,,,,,,,,,,,,,,,,,
,,,,,V2_004,20,Female,2024-02-28_14h57.26.185,jersey_experiment_5_v2,2023.2.2,Win32,84.74576271,,,,,,,,,,,,,,,,1183.2401,1185.0982,1185.0984,1186.4819,return,0.3802,,73.56770833,,,,,,FBP-RB-91.png,0.4,1.2,43,0.25,,,,,,,,,,,,,,,,,,0,42,42,42,1,,,,,,,,,,,,,,,,,,,,,,,
,,,,,V2_004,20,Female,2024-02-28_14h57.26.185,jersey_experiment_5_v2,2023.2.2,Win32,84.74576271,,,,,,,,,,,,,,,,1186.482,1188.3458,1188.3458,1189.956,return,0.6928,,74.609375,,,,,,FBP-RB-91.png,0.37,1.2,42,0.25,,,,,,,,,,,,,,,,,,0,43,43,41,1,,,,,,,,,,,,,,,,,,,,,,,
,,,,,V2_004,20,Female,2024-02-28_14h57.26.185,jersey_experiment_5_v2,2023.2.2,Win32,84.74576271,,,,,,,,,,,,,,,,1189.956,1191.8045,1191.8046,1192.9917,return,0.1652,,99.47916667,,,,,,FBP-YG-18.png,0.45,1.2,55,0.25,,,,,,,,,,,,,,,,,,0,44,44,54,1,,,,,,,,,,,,,,,,,,,,,,,
,,,,,V2_004,20,Female,2024-02-28_14h57.26.185,jersey_experiment_5_v2,2023.2.2,Win32,84.74576271,,,,,,,,,,,,,,,,1192.9918,1194.8469,1194.847,1196.0634,return,0.3063,,73.828125,,,,,,FBP-RB-71.png,0.4,1.2,33,0.25,,,,,,,,,,,,,,,,,,0,45,45,32,1,,,,,,,,,,,,,,,,,,,,,,,
,,,,,V2_004,20,Female,2024-02-28_14h57.26.185,jersey_experiment_5_v2,2023.2.2,Win32,84.74576271,,,,,,,,,,,,,,,,1196.0636,1197.9221,1197.9222,1199.3574,return,0.2584,,75.52083333,,,,,,FBP-RB-81.png,0.4,1.2,38,0.25,,,,,,,,,,,,,,,,,,0,46,46,37,1,,,,,,,,,,,,,,,,,,,,,,,
,,,,,V2_004,20,Female,2024-02-28_14h57.26.185,jersey_experiment_5_v2,2023.2.2,Win32,84.74576271,,,,,,,,,,,,,,,,1199.3576,1201.4754,1201.4757,1203.2875,return,0.0944,,98.828125,,,,,,FBP-PT-91.png,0.4,1.2,13,0.5,,,,,,,,,,,,,,,,,,0,47,47,12,1,,,,,,,,,,,,,,,,,,,,,,,
,,,,,V2_004,20,Female,2024-02-28_14h57.26.185,jersey_experiment_5_v2,2023.2.2,Win32,84.74576271,,,,,,,,,,,,,,,,1203.2876,1205.3815,1205.3817,1206.4473,return,0.2875,,99.609375,,,,,,FBP-PT-81.png,0.45,1.2,10,0.5,,,,,,,,,,,,,,,,,,0,48,48,9,1,,,,,,,,,,,,,,,,,,,,,,,
,,,,,V2_004,20,Female,2024-02-28_14h57.26.185,jersey_experiment_5_v2,2023.2.2,Win32,84.74576271,,,,,,,,,,,,,,,,1206.4476,1208.2991,1208.2993,1209.3767,return,0.2505,,49.08854167,,,,,,FBP-RB-91.png,0.35,1.2,41,0.25,,,,,,,,,,,,,,,,,,0,49,49,40,1,,,,,,,,,,,,,,,,,,,,,,,
,,,,,V2_004,20,Female,2024-02-28_14h57.26.185,jersey_experiment_5_v2,2023.2.2,Win32,84.74576271,,,,,,,,,,,,,,,,1209.377,1211.4862,1211.4863,1212.3939,return,0.249,,49.73958333,,,,,,FBP-PT-91.png,0.35,1.2,11,0.5,,,,,,,,,,,,,,,,,,0,50,50,10,1,,,,,,,,,,,,,,,,,,,,,,,
,,,,,V2_004,20,Female,2024-02-28_14h57.26.185,jersey_experiment_5_v2,2023.2.2,Win32,84.74576271,,,,,,,,,,,,,,,,1212.3941,1214.2523,1214.2525,1215.51,return,0.1414,,49.34895833,,,,,,FBP-OG-81.png,0.35,1.2,21,0.25,,,,,,,,,,,,,,,,,,0,51,51,20,1,,,,,,,,,,,,,,,,,,,,,,,
,,,,,V2_004,20,Female,2024-02-28_14h57.26.185,jersey_experiment_5_v2,2023.2.2,Win32,84.74576271,,,,,,,,,,,,,,,,1215.5101,1217.3588,1217.359,1218.3337,return,0.152,,73.828125,,,,,,FBP-OG-81.png,0.4,1.2,23,0.25,,,,,,,,,,,,,,,,,,0,52,52,22,1,,,,,,,,,,,,,,,,,,,,,,,
,,,,,V2_004,20,Female,2024-02-28_14h57.26.185,jersey_experiment_5_v2,2023.2.2,Win32,84.74576271,,,,,,,,,,,,,,,,1218.3338,1220.1819,1220.182,1228.0046,return,6.9991,,74.08854167,,,,,,FBP-OG-91.png,0.45,1.2,30,0.25,,,,,,,,,,,,,,,,,,0,53,53,29,1,,,,,,,,,,,,,,,,,,,,,,,
,,,,,V2_004,20,Female,2024-02-28_14h57.26.185,jersey_experiment_5_v2,2023.2.2,Win32,84.74576271,,,,,,,,,,,,,,,,1228.0092,1230.1218,1230.1218,1232.0649,return,0.7896,,74.86979167,,,,,,FBP-PT-91.png,0.43,1.2,14,0.5,,,,,,,,,,,,,,,,,,0,54,54,13,1,,,,,,,,,,,,,,,,,,,,,,,
,,,,,V2_004,20,Female,2024-02-28_14h57.26.185,jersey_experiment_5_v2,2023.2.2,Win32,84.74576271,,,,,,,,,,,,,,,,1232.0652,1233.9105,1233.9106,1235.6987,return,0.1412,,76.04166667,,,,,,FBP-YG-17.png,0.43,1.2,49,0.25,,,,,,,,,,,,,,,,,,0,55,55,48,1,,,,,,,,,,,,,,,,,,,,,,,
,,,,,V2_004,20,Female,2024-02-28_14h57.26.185,jersey_experiment_5_v2,2023.2.2,Win32,84.74576271,,,,,,,,,,,,,,,,1235.6989,1237.5578,1237.5579,1238.4838,return,0.2372,,99.21875,,,,,,FBP-RB-81.png,0.43,1.2,39,0.25,,,,,,,,,,,,,,,,,,0,56,56,38,1,,,,,,,,,,,,,,,,,,,,,,,
,,,,,V2_004,20,Female,2024-02-28_14h57.26.185,jersey_experiment_5_v2,2023.2.2,Win32,84.74576271,,,,,,,,,,,,,,,,1238.484,1240.5928,1240.5929,1242.3662,return,0.1354,,99.609375,,,,,,FBP-PT-91.png,0.45,1.2,15,0.5,,,,,,,,,,,,,,,,,,0,57,57,14,1,,,,,,,,,,,,,,,,,,,,,,,
,,,,,V2_004,20,Female,2024-02-28_14h57.26.185,jersey_experiment_5_v2,2023.2.2,Win32,84.74576271,,,,,,,,,,,,,,,,1242.3665,1244.4651,1244.4653,1245.6839,return,0.2238,,49.609375,,,,,,FBP-PT-81.png,0.37,1.2,7,0.5,,,,,,,,,,,,,,,,,,0,58,58,6,1,,,,,,,,,,,,,,,,,,,,,,,
,,,,,V2_004,20,Female,2024-02-28_14h57.26.185,jersey_experiment_5_v2,2023.2.2,Win32,84.74576271,,,,,,,,,,,,,,,,1245.6842,1247.5476,1247.5478,1248.5698,return,0.2223,,24.47916667,,,,,,FBP-OG-91.png,0.35,1.2,26,0.25,,,,,,,,,,,,,,,,,,0,59,59,25,1,,,,,,,,,,,,,,,,,,,,,,,
,,,,,V2_004,20,Female,2024-02-28_14h57.26.185,jersey_experiment_5_v2,2023.2.2,Win32,84.74576271,,,,,,,,,,,,,,,,,,,,,,,,,,,,,,,,,,,,,,,,,,,,,,,,,,,,,,,,1248.57,1254.7198,return,6.1341,,,,,,,,,,,,,,,,,,,
,,,,,V2_004,20,Female,2024-02-28_14h57.26.185,jersey_experiment_5_v2,2023.2.2,Win32,84.74576271,,,,,,,,,,,,,,,,,,,,,,,,,,,,,,,,,,,,,,,,,,,,,,,,,,,,,,,,,,,,,1254.7199,1260.0964,1,3.8696,return,1.4864,,,,,,,,,,,,
,,,,,V2_004,20,Female,2024-02-28_14h57.26.185,jersey_experiment_5_v2,2023.2.2,Win32,84.74576271,,,,,,,,,,,,,,,,,,,,,,,,,,,,,,,,,,,,,,,,,,,,,,,,,,,,,,,,,,,,,,,,,,,,1260.0966,1325.9745,I recognized that the football players either had pale skin or brown skin no other variation of skin color existed. ,right,54.5104,,,,,,
,,,,,V2_004,20,Female,2024-02-28_14h57.26.185,jersey_experiment_5_v2,2023.2.2,Win32,84.74576271,,,,,,,,,,,,,,,,,,,,,,,,,,,,,,,,,,,,,,,,,,,,,,,,,,,,,,,,,,,,,,,,,,,,,,,,,,1325.9746,1330.5108,return,4.5246,