requirements.started,requirements.stopped,key_resp_3.keys,key_resp_3.rt,key_resp_3.duration,Subject ID,Age,Gender,date,expName,psychopyVersion,OS,frameRate,instructions1.started,instructions1.stopped,key_resp.keys,key_resp.rt,key_resp.duration,example.started,example.stopped,enter_2.keys,enter_2.rt,enter_2.duration,instructions2.started,instructions2.stopped,enter_3.keys,enter_3.rt,enter_3.duration,image.started,image.stopped,slider_2.started,slider_2.stopped,next.keys,next.rt,next.duration,slider.response,trial_block_1.thisRepN,trial_block_1.thisTrialN,trial_block_1.thisN,trial_block_1.thisIndex,trial_block_1.ran,Path,Width,Height,Index,Duration,trial_block_2.thisRepN,trial_block_2.thisTrialN,trial_block_2.thisN,trial_block_2.thisIndex,trial_block_2.ran,rest_break.started,rest_break.stopped,end_break.started,end_break.stopped,key_resp_5.keys,key_resp_5.rt,key_resp_5.duration,trial_block_3.thisRepN,trial_block_3.thisTrialN,trial_block_3.thisN,trial_block_3.thisIndex,trial_block_3.ran,trial_block_4.thisRepN,trial_block_4.thisTrialN,trial_block_4.thisN,trial_block_4.thisIndex,trial_block_4.ran,questions_intro.started,questions_intro.stopped,enter_12.keys,enter_12.rt,enter_12.duration,question2.started,question2.stopped,question_doingbest.response,question_doingbest.rt,enter_15.keys,enter_15.rt,enter_15.duration,pattern.started,pattern.stopped,pattern_2.text,enter_17.keys,enter_17.rt,enter_17.duration,thankyou.started,thankyou.stopped,enter_14.keys,enter_14.rt,enter_14.duration
0.0001,20.5821,return,20.5753,,V2_008,21,Male,2024-03-01_11h27.12.196,jersey_experiment_5_v2,2023.2.2,Win32,84.74576271,,,,,,,,,,,,,,,,,,,,,,,,,,,,,,,,,,,,,,,,,,,,,,,,,,,,,,,,,,,,,,,,,,,,,,,,,,,,,,
,,,,,V2_008,21,Male,2024-03-01_11h27.12.196,jersey_experiment_5_v2,2023.2.2,Win32,84.74576271,20.5823,32.7904,return,12.1918,,,,,,,,,,,,,,,,,,,,,,,,,,,,,,,,,,,,,,,,,,,,,,,,,,,,,,,,,,,,,,,,,,,,,,,,,,
,,,,,V2_008,21,Male,2024-03-01_11h27.12.196,jersey_experiment_5_v2,2023.2.2,Win32,84.74576271,,,,,,32.7905,37.4612,return,4.6345,,,,,,,,,,,,,,,,,,,,,,,,,,,,,,,,,,,,,,,,,,,,,,,,,,,,,,,,,,,,,,,,,,,,,
,,,,,V2_008,21,Male,2024-03-01_11h27.12.196,jersey_experiment_5_v2,2023.2.2,Win32,84.74576271,,,,,,,,,,,37.4614,61.2738,return,23.8011,,,,,,,,,,,,,,,,,,,,,,,,,,,,,,,,,,,,,,,,,,,,,,,,,,,,,,,,,,,,,,,,
,,,,,V2_008,21,Male,2024-03-01_11h27.12.196,jersey_experiment_5_v2,2023.2.2,Win32,84.74576271,,,,,,,,,,,,,,,,61.2806,63.1325,63.1326,74.0978,return,7.1498,,74.73958333,0,0,0,13,1,FBP-PT-19.png,0.43,1.2,14,0.25,,,,,,,,,,,,,,,,,,,,,,,,,,,,,,,,,,,,,,,,,,,,,
,,,,,V2_008,21,Male,2024-03-01_11h27.12.196,jersey_experiment_5_v2,2023.2.2,Win32,84.74576271,,,,,,,,,,,,,,,,74.1021,76.2036,76.2036,79.2741,return,0.9319,,99.47916667,0,1,1,53,1,FBP-YG-81.png,0.43,1.2,54,0.5,,,,,,,,,,,,,,,,,,,,,,,,,,,,,,,,,,,,,,,,,,,,,
,,,,,V2_008,21,Male,2024-03-01_11h27.12.196,jersey_experiment_5_v2,2023.2.2,Win32,84.74576271,,,,,,,,,,,,,,,,79.2743,81.1332,81.1332,85.4627,return,0.6741,,99.08854167,0,2,2,9,1,FBP-PT-18.png,0.45,1.2,10,0.25,,,,,,,,,,,,,,,,,,,,,,,,,,,,,,,,,,,,,,,,,,,,,
,,,,,V2_008,21,Male,2024-03-01_11h27.12.196,jersey_experiment_5_v2,2023.2.2,Win32,84.74576271,,,,,,,,,,,,,,,,85.463,87.5685,87.5685,90.098,return,0.735,,49.73958333,0,3,3,55,1,FBP-YG-91.png,0.35,1.2,56,0.5,,,,,,,,,,,,,,,,,,,,,,,,,,,,,,,,,,,,,,,,,,,,,
,,,,,V2_008,21,Male,2024-03-01_11h27.12.196,jersey_experiment_5_v2,2023.2.2,Win32,84.74576271,,,,,,,,,,,,,,,,90.0982,92.1925,92.1926,94.4864,return,0.8503,,74.21875,0,4,4,56,1,FBP-YG-91.png,0.37,1.2,57,0.5,,,,,,,,,,,,,,,,,,,,,,,,,,,,,,,,,,,,,,,,,,,,,
,,,,,V2_008,21,Male,2024-03-01_11h27.12.196,jersey_experiment_5_v2,2023.2.2,Win32,84.74576271,,,,,,,,,,,,,,,,94.4867,96.5806,96.5806,98.8866,return,0.6721,,99.73958333,0,5,5,43,1,FBP-RB-19.png,0.43,1.2,44,0.5,,,,,,,,,,,,,,,,,,,,,,,,,,,,,,,,,,,,,,,,,,,,,
,,,,,V2_008,21,Male,2024-03-01_11h27.12.196,jersey_experiment_5_v2,2023.2.2,Win32,84.74576271,,,,,,,,,,,,,,,,98.8868,100.7337,100.7337,104.0868,return,0.6255,,49.47916667,0,6,6,11,1,FBP-PT-19.png,0.37,1.2,12,0.25,,,,,,,,,,,,,,,,,,,,,,,,,,,,,,,,,,,,,,,,,,,,,
,,,,,V2_008,21,Male,2024-03-01_11h27.12.196,jersey_experiment_5_v2,2023.2.2,Win32,84.74576271,,,,,,,,,,,,,,,,104.087,106.1811,106.1811,111.3812,return,4.2405,,74.73958333,0,7,7,29,1,FBP-OG-19.png,0.45,1.2,30,0.5,,,,,,,,,,,,,,,,,,,,,,,,,,,,,,,,,,,,,,,,,,,,,
,,,,,V2_008,21,Male,2024-03-01_11h27.12.196,jersey_experiment_5_v2,2023.2.2,Win32,84.74576271,,,,,,,,,,,,,,,,111.3855,113.4871,113.4872,117.099,return,0.3768,,73.95833333,0,8,8,38,1,FBP-RB-18.png,0.43,1.2,39,0.5,,,,,,,,,,,,,,,,,,,,,,,,,,,,,,,,,,,,,,,,,,,,,
,,,,,V2_008,21,Male,2024-03-01_11h27.12.196,jersey_experiment_5_v2,2023.2.2,Win32,84.74576271,,,,,,,,,,,,,,,,117.0992,119.2051,119.2051,120.923,return,0.4375,,74.08854167,0,9,9,22,1,FBP-OG-18.png,0.4,1.2,23,0.5,,,,,,,,,,,,,,,,,,,,,,,,,,,,,,,,,,,,,,,,,,,,,
,,,,,V2_008,21,Male,2024-03-01_11h27.12.196,jersey_experiment_5_v2,2023.2.2,Win32,84.74576271,,,,,,,,,,,,,,,,120.9232,123.017,123.0171,124.358,return,0.2617,,25.390625,0,10,10,20,1,FBP-OG-18.png,0.35,1.2,21,0.5,,,,,,,,,,,,,,,,,,,,,,,,,,,,,,,,,,,,,,,,,,,,,
,,,,,V2_008,21,Male,2024-03-01_11h27.12.196,jersey_experiment_5_v2,2023.2.2,Win32,84.74576271,,,,,,,,,,,,,,,,124.3582,126.4525,126.4525,128.9346,return,0.2729,,99.47916667,0,11,11,24,1,FBP-OG-18.png,0.45,1.2,25,0.5,,,,,,,,,,,,,,,,,,,,,,,,,,,,,,,,,,,,,,,,,,,,,
,,,,,V2_008,21,Male,2024-03-01_11h27.12.196,jersey_experiment_5_v2,2023.2.2,Win32,84.74576271,,,,,,,,,,,,,,,,128.9348,131.029,131.0291,132.4171,return,0.3381,,75.390625,0,12,12,48,1,FBP-YG-71.png,0.43,1.2,49,0.5,,,,,,,,,,,,,,,,,,,,,,,,,,,,,,,,,,,,,,,,,,,,,
,,,,,V2_008,21,Male,2024-03-01_11h27.12.196,jersey_experiment_5_v2,2023.2.2,Win32,84.74576271,,,,,,,,,,,,,,,,132.4174,134.2643,134.2644,136.4526,return,0.4507,,75.390625,0,13,13,3,1,FBP-PT-17.png,0.43,1.2,4,0.25,,,,,,,,,,,,,,,,,,,,,,,,,,,,,,,,,,,,,,,,,,,,,
,,,,,V2_008,21,Male,2024-03-01_11h27.12.196,jersey_experiment_5_v2,2023.2.2,Win32,84.74576271,,,,,,,,,,,,,,,,136.4529,138.5585,138.5586,140.0881,return,0.3078,,50.52083333,0,14,14,57,1,FBP-YG-91.png,0.4,1.2,58,0.5,,,,,,,,,,,,,,,,,,,,,,,,,,,,,,,,,,,,,,,,,,,,,
,,,,,V2_008,21,Male,2024-03-01_11h27.12.196,jersey_experiment_5_v2,2023.2.2,Win32,84.74576271,,,,,,,,,,,,,,,,140.0883,142.1823,142.1823,143.7707,return,0.4367,,26.171875,0,15,15,26,1,FBP-OG-19.png,0.37,1.2,27,0.5,,,,,,,,,,,,,,,,,,,,,,,,,,,,,,,,,,,,,,,,,,,,,
,,,,,V2_008,21,Male,2024-03-01_11h27.12.196,jersey_experiment_5_v2,2023.2.2,Win32,84.74576271,,,,,,,,,,,,,,,,143.7708,145.8647,145.8649,146.8883,return,0.246,,24.47916667,0,16,16,15,1,FBP-OG-17.png,0.35,1.2,16,0.5,,,,,,,,,,,,,,,,,,,,,,,,,,,,,,,,,,,,,,,,,,,,,
,,,,,V2_008,21,Male,2024-03-01_11h27.12.196,jersey_experiment_5_v2,2023.2.2,Win32,84.74576271,,,,,,,,,,,,,,,,146.8885,148.7354,148.7355,150.3943,return,0.3397,,75,0,17,17,12,1,FBP-PT-19.png,0.4,1.2,13,0.25,,,,,,,,,,,,,,,,,,,,,,,,,,,,,,,,,,,,,,,,,,,,,
,,,,,V2_008,21,Male,2024-03-01_11h27.12.196,jersey_experiment_5_v2,2023.2.2,Win32,84.74576271,,,,,,,,,,,,,,,,150.3944,152.2415,152.2416,153.0296,return,0.2496,,75,0,18,18,0,1,FBP-PT-17.png,0.35,1.2,1,0.25,,,,,,,,,,,,,,,,,,,,,,,,,,,,,,,,,,,,,,,,,,,,,
,,,,,V2_008,21,Male,2024-03-01_11h27.12.196,jersey_experiment_5_v2,2023.2.2,Win32,84.74576271,,,,,,,,,,,,,,,,153.0299,155.1238,155.1238,156.7945,return,0.2357,,75,0,19,19,18,1,FBP-OG-17.png,0.43,1.2,19,0.5,,,,,,,,,,,,,,,,,,,,,,,,,,,,,,,,,,,,,,,,,,,,,
,,,,,V2_008,21,Male,2024-03-01_11h27.12.196,jersey_experiment_5_v2,2023.2.2,Win32,84.74576271,,,,,,,,,,,,,,,,156.7947,158.6419,158.6419,159.7359,return,0.2009,,99.21875,0,20,20,14,1,FBP-PT-19.png,0.45,1.2,15,0.25,,,,,,,,,,,,,,,,,,,,,,,,,,,,,,,,,,,,,,,,,,,,,
,,,,,V2_008,21,Male,2024-03-01_11h27.12.196,jersey_experiment_5_v2,2023.2.2,Win32,84.74576271,,,,,,,,,,,,,,,,159.736,161.8302,161.8302,162.8066,return,0.2141,,51.43229167,0,21,21,41,1,FBP-RB-19.png,0.37,1.2,42,0.5,,,,,,,,,,,,,,,,,,,,,,,,,,,,,,,,,,,,,,,,,,,,,
,,,,,V2_008,21,Male,2024-03-01_11h27.12.196,jersey_experiment_5_v2,2023.2.2,Win32,84.74576271,,,,,,,,,,,,,,,,162.8068,164.9009,164.901,166.3008,return,0.2928,,75.26041667,0,22,22,34,1,FBP-RB-17.png,0.45,1.2,35,0.5,,,,,,,,,,,,,,,,,,,,,,,,,,,,,,,,,,,,,,,,,,,,,
,,,,,V2_008,21,Male,2024-03-01_11h27.12.196,jersey_experiment_5_v2,2023.2.2,Win32,84.74576271,,,,,,,,,,,,,,,,166.301,168.3949,168.3949,169.8657,return,0.2965,,50.13020833,0,23,23,50,1,FBP-YG-81.png,0.35,1.2,51,0.5,,,,,,,,,,,,,,,,,,,,,,,,,,,,,,,,,,,,,,,,,,,,,
,,,,,V2_008,21,Male,2024-03-01_11h27.12.196,jersey_experiment_5_v2,2023.2.2,Win32,84.74576271,,,,,,,,,,,,,,,,169.8658,171.7245,171.7246,183.9132,return,9.9535,,91.015625,0,24,24,2,1,FBP-PT-17.png,0.4,1.2,3,0.25,,,,,,,,,,,,,,,,,,,,,,,,,,,,,,,,,,,,,,,,,,,,,
,,,,,V2_008,21,Male,2024-03-01_11h27.12.196,jersey_experiment_5_v2,2023.2.2,Win32,84.74576271,,,,,,,,,,,,,,,,183.9134,186.0075,186.0075,188.1839,return,0.2847,,57.68229167,0,25,25,51,1,FBP-YG-81.png,0.37,1.2,52,0.5,,,,,,,,,,,,,,,,,,,,,,,,,,,,,,,,,,,,,,,,,,,,,
,,,,,V2_008,21,Male,2024-03-01_11h27.12.196,jersey_experiment_5_v2,2023.2.2,Win32,84.74576271,,,,,,,,,,,,,,,,188.184,190.2782,190.2782,193.7724,return,1.3175,,86.19791667,0,26,26,59,1,FBP-YG-91.png,0.45,1.2,60,0.5,,,,,,,,,,,,,,,,,,,,,,,,,,,,,,,,,,,,,,,,,,,,,
,,,,,V2_008,21,Male,2024-03-01_11h27.12.196,jersey_experiment_5_v2,2023.2.2,Win32,84.74576271,,,,,,,,,,,,,,,,193.7727,195.6196,195.6196,200.443,return,0.1881,,83.72395833,0,27,27,7,1,FBP-PT-18.png,0.4,1.2,8,0.25,,,,,,,,,,,,,,,,,,,,,,,,,,,,,,,,,,,,,,,,,,,,,
,,,,,V2_008,21,Male,2024-03-01_11h27.12.196,jersey_experiment_5_v2,2023.2.2,Win32,84.74576271,,,,,,,,,,,,,,,,200.4432,202.5375,202.5375,204.5728,return,1.0582,,83.33333333,0,28,28,19,1,FBP-OG-17.png,0.45,1.2,20,0.5,,,,,,,,,,,,,,,,,,,,,,,,,,,,,,,,,,,,,,,,,,,,,
,,,,,V2_008,21,Male,2024-03-01_11h27.12.196,jersey_experiment_5_v2,2023.2.2,Win32,84.74576271,,,,,,,,,,,,,,,,204.5729,206.667,206.6671,209.0316,return,1.047,,73.046875,0,29,29,23,1,FBP-OG-18.png,0.43,1.2,24,0.5,,,,,,,,,,,,,,,,,,,,,,,,,,,,,,,,,,,,,,,,,,,,,
,,,,,V2_008,21,Male,2024-03-01_11h27.12.196,jersey_experiment_5_v2,2023.2.2,Win32,84.74576271,,,,,,,,,,,,,,,,209.0317,210.8788,210.8788,213.6201,return,1.1586,,41.796875,0,30,30,1,1,FBP-PT-17.png,0.37,1.2,2,0.25,,,,,,,,,,,,,,,,,,,,,,,,,,,,,,,,,,,,,,,,,,,,,
,,,,,V2_008,21,Male,2024-03-01_11h27.12.196,jersey_experiment_5_v2,2023.2.2,Win32,84.74576271,,,,,,,,,,,,,,,,213.6203,215.7143,215.7144,216.7378,return,0.1955,,91.015625,0,31,31,49,1,FBP-YG-71.png,0.45,1.2,50,0.5,,,,,,,,,,,,,,,,,,,,,,,,,,,,,,,,,,,,,,,,,,,,,
,,,,,V2_008,21,Male,2024-03-01_11h27.12.196,jersey_experiment_5_v2,2023.2.2,Win32,84.74576271,,,,,,,,,,,,,,,,216.7382,218.5969,218.597,220.9968,return,0.2522,,36.71875,0,32,32,6,1,FBP-PT-18.png,0.37,1.2,7,0.25,,,,,,,,,,,,,,,,,,,,,,,,,,,,,,,,,,,,,,,,,,,,,
,,,,,V2_008,21,Male,2024-03-01_11h27.12.196,jersey_experiment_5_v2,2023.2.2,Win32,84.74576271,,,,,,,,,,,,,,,,220.997,223.0912,223.0912,225.4676,return,0.2121,,87.5,0,33,33,36,1,FBP-RB-18.png,0.37,1.2,37,0.5,,,,,,,,,,,,,,,,,,,,,,,,,,,,,,,,,,,,,,,,,,,,,
,,,,,V2_008,21,Male,2024-03-01_11h27.12.196,jersey_experiment_5_v2,2023.2.2,Win32,84.74576271,,,,,,,,,,,,,,,,225.4678,227.5619,227.5619,230.6679,return,1.2937,,50,0,34,34,25,1,FBP-OG-19.png,0.35,1.2,26,0.5,,,,,,,,,,,,,,,,,,,,,,,,,,,,,,,,,,,,,,,,,,,,,
,,,,,V2_008,21,Male,2024-03-01_11h27.12.196,jersey_experiment_5_v2,2023.2.2,Win32,84.74576271,,,,,,,,,,,,,,,,230.668,232.762,232.762,236.4915,return,2.0572,,72.52604167,0,35,35,17,1,FBP-OG-17.png,0.4,1.2,18,0.5,,,,,,,,,,,,,,,,,,,,,,,,,,,,,,,,,,,,,,,,,,,,,
,,,,,V2_008,21,Male,2024-03-01_11h27.12.196,jersey_experiment_5_v2,2023.2.2,Win32,84.74576271,,,,,,,,,,,,,,,,236.4917,238.5976,238.5976,241.2563,return,1.143,,63.93229167,0,36,36,45,1,FBP-YG-71.png,0.35,1.2,46,0.5,,,,,,,,,,,,,,,,,,,,,,,,,,,,,,,,,,,,,,,,,,,,,
,,,,,V2_008,21,Male,2024-03-01_11h27.12.196,jersey_experiment_5_v2,2023.2.2,Win32,84.74576271,,,,,,,,,,,,,,,,241.2565,243.3623,243.3623,245.5154,return,0.0949,,61.328125,0,37,37,21,1,FBP-OG-18.png,0.37,1.2,22,0.5,,,,,,,,,,,,,,,,,,,,,,,,,,,,,,,,,,,,,,,,,,,,,
,,,,,V2_008,21,Male,2024-03-01_11h27.12.196,jersey_experiment_5_v2,2023.2.2,Win32,84.74576271,,,,,,,,,,,,,,,,245.5157,247.6098,247.6098,248.6331,return,0.0476,,66.40625,0,38,38,31,1,FBP-RB-17.png,0.37,1.2,32,0.5,,,,,,,,,,,,,,,,,,,,,,,,,,,,,,,,,,,,,,,,,,,,,
,,,,,V2_008,21,Male,2024-03-01_11h27.12.196,jersey_experiment_5_v2,2023.2.2,Win32,84.74576271,,,,,,,,,,,,,,,,248.6333,250.7274,250.7274,251.845,return,0.3464,,73.56770833,0,39,39,42,1,FBP-RB-19.png,0.4,1.2,43,0.5,,,,,,,,,,,,,,,,,,,,,,,,,,,,,,,,,,,,,,,,,,,,,
,,,,,V2_008,21,Male,2024-03-01_11h27.12.196,jersey_experiment_5_v2,2023.2.2,Win32,84.74576271,,,,,,,,,,,,,,,,251.8453,253.6921,253.6921,255.4335,return,0.2357,,74.08854167,0,40,40,5,1,FBP-PT-18.png,0.35,1.2,6,0.25,,,,,,,,,,,,,,,,,,,,,,,,,,,,,,,,,,,,,,,,,,,,,
,,,,,V2_008,21,Male,2024-03-01_11h27.12.196,jersey_experiment_5_v2,2023.2.2,Win32,84.74576271,,,,,,,,,,,,,,,,255.4337,257.2806,257.2807,259.8806,return,0.3545,,92.578125,0,41,41,4,1,FBP-PT-17.png,0.45,1.2,5,0.25,,,,,,,,,,,,,,,,,,,,,,,,,,,,,,,,,,,,,,,,,,,,,
,,,,,V2_008,21,Male,2024-03-01_11h27.12.196,jersey_experiment_5_v2,2023.2.2,Win32,84.74576271,,,,,,,,,,,,,,,,259.8808,261.7279,261.7279,264.3632,return,0.9551,,39.19270833,0,42,42,10,1,FBP-PT-19.png,0.35,1.2,11,0.25,,,,,,,,,,,,,,,,,,,,,,,,,,,,,,,,,,,,,,,,,,,,,
,,,,,V2_008,21,Male,2024-03-01_11h27.12.196,jersey_experiment_5_v2,2023.2.2,Win32,84.74576271,,,,,,,,,,,,,,,,264.3634,266.4573,266.4575,267.3396,return,0.1645,,30.33854167,0,43,43,16,1,FBP-OG-17.png,0.37,1.2,17,0.5,,,,,,,,,,,,,,,,,,,,,,,,,,,,,,,,,,,,,,,,,,,,,
,,,,,V2_008,21,Male,2024-03-01_11h27.12.196,jersey_experiment_5_v2,2023.2.2,Win32,84.74576271,,,,,,,,,,,,,,,,267.3398,269.4338,269.4338,273.1869,return,2.6882,,70.44270833,0,44,44,58,1,FBP-YG-91.png,0.43,1.2,59,0.5,,,,,,,,,,,,,,,,,,,,,,,,,,,,,,,,,,,,,,,,,,,,,
,,,,,V2_008,21,Male,2024-03-01_11h27.12.196,jersey_experiment_5_v2,2023.2.2,Win32,84.74576271,,,,,,,,,,,,,,,,273.1872,275.2929,275.293,276.0342,return,0.1006,,73.4375,0,45,45,27,1,FBP-OG-19.png,0.4,1.2,28,0.5,,,,,,,,,,,,,,,,,,,,,,,,,,,,,,,,,,,,,,,,,,,,,
,,,,,V2_008,21,Male,2024-03-01_11h27.12.196,jersey_experiment_5_v2,2023.2.2,Win32,84.74576271,,,,,,,,,,,,,,,,276.0344,278.1283,278.1284,280.0225,return,0.5786,,53.38541667,0,46,46,40,1,FBP-RB-19.png,0.35,1.2,41,0.5,,,,,,,,,,,,,,,,,,,,,,,,,,,,,,,,,,,,,,,,,,,,,
,,,,,V2_008,21,Male,2024-03-01_11h27.12.196,jersey_experiment_5_v2,2023.2.2,Win32,84.74576271,,,,,,,,,,,,,,,,280.0227,282.1284,282.1284,283.9639,return,0.3666,,80.98958333,0,47,47,33,1,FBP-RB-17.png,0.43,1.2,34,0.5,,,,,,,,,,,,,,,,,,,,,,,,,,,,,,,,,,,,,,,,,,,,,
,,,,,V2_008,21,Male,2024-03-01_11h27.12.196,jersey_experiment_5_v2,2023.2.2,Win32,84.74576271,,,,,,,,,,,,,,,,283.9641,286.0581,286.0581,287.7522,return,0.2493,,38.671875,0,48,48,35,1,FBP-RB-18.png,0.35,1.2,36,0.5,,,,,,,,,,,,,,,,,,,,,,,,,,,,,,,,,,,,,,,,,,,,,
,,,,,V2_008,21,Male,2024-03-01_11h27.12.196,jersey_experiment_5_v2,2023.2.2,Win32,84.74576271,,,,,,,,,,,,,,,,287.7524,289.8465,289.8465,290.7877,return,0.1451,,92.05729167,0,49,49,44,1,FBP-RB-19.png,0.45,1.2,45,0.5,,,,,,,,,,,,,,,,,,,,,,,,,,,,,,,,,,,,,,,,,,,,,
,,,,,V2_008,21,Male,2024-03-01_11h27.12.196,jersey_experiment_5_v2,2023.2.2,Win32,84.74576271,,,,,,,,,,,,,,,,290.7878,292.8934,292.8934,296.8113,return,1.9531,,66.14583333,0,50,50,46,1,FBP-YG-71.png,0.37,1.2,47,0.5,,,,,,,,,,,,,,,,,,,,,,,,,,,,,,,,,,,,,,,,,,,,,
,,,,,V2_008,21,Male,2024-03-01_11h27.12.196,jersey_experiment_5_v2,2023.2.2,Win32,84.74576271,,,,,,,,,,,,,,,,296.8115,298.9056,298.9056,300.8232,return,0.6849,,92.44791667,0,51,51,54,1,FBP-YG-81.png,0.45,1.2,55,0.5,,,,,,,,,,,,,,,,,,,,,,,,,,,,,,,,,,,,,,,,,,,,,
,,,,,V2_008,21,Male,2024-03-01_11h27.12.196,jersey_experiment_5_v2,2023.2.2,Win32,84.74576271,,,,,,,,,,,,,,,,300.8234,302.9175,302.9175,305.5292,return,1.3279,,64.71354167,0,52,52,47,1,FBP-YG-71.png,0.4,1.2,48,0.5,,,,,,,,,,,,,,,,,,,,,,,,,,,,,,,,,,,,,,,,,,,,,
,,,,,V2_008,21,Male,2024-03-01_11h27.12.196,jersey_experiment_5_v2,2023.2.2,Win32,84.74576271,,,,,,,,,,,,,,,,305.5295,307.6235,307.6235,308.3646,return,0.187,,74.34895833,0,53,53,37,1,FBP-RB-18.png,0.4,1.2,38,0.5,,,,,,,,,,,,,,,,,,,,,,,,,,,,,,,,,,,,,,,,,,,,,
,,,,,V2_008,21,Male,2024-03-01_11h27.12.196,jersey_experiment_5_v2,2023.2.2,Win32,84.74576271,,,,,,,,,,,,,,,,308.3649,310.4589,310.4589,311.2236,return,0.2245,,74.34895833,0,54,54,52,1,FBP-YG-81.png,0.4,1.2,53,0.5,,,,,,,,,,,,,,,,,,,,,,,,,,,,,,,,,,,,,,,,,,,,,
,,,,,V2_008,21,Male,2024-03-01_11h27.12.196,jersey_experiment_5_v2,2023.2.2,Win32,84.74576271,,,,,,,,,,,,,,,,311.2237,313.0708,313.0708,314.2355,return,0.2927,,90.234375,0,55,55,8,1,FBP-PT-18.png,0.43,1.2,9,0.25,,,,,,,,,,,,,,,,,,,,,,,,,,,,,,,,,,,,,,,,,,,,,
,,,,,V2_008,21,Male,2024-03-01_11h27.12.196,jersey_experiment_5_v2,2023.2.2,Win32,84.74576271,,,,,,,,,,,,,,,,314.2357,316.3415,316.3415,318.3768,return,0.1764,,34.375,0,56,56,30,1,FBP-RB-17.png,0.35,1.2,31,0.5,,,,,,,,,,,,,,,,,,,,,,,,,,,,,,,,,,,,,,,,,,,,,
,,,,,V2_008,21,Male,2024-03-01_11h27.12.196,jersey_experiment_5_v2,2023.2.2,Win32,84.74576271,,,,,,,,,,,,,,,,318.3771,320.471,320.4711,323.3535,return,1.4588,,86.328125,0,57,57,39,1,FBP-RB-18.png,0.45,1.2,40,0.5,,,,,,,,,,,,,,,,,,,,,,,,,,,,,,,,,,,,,,,,,,,,,
,,,,,V2_008,21,Male,2024-03-01_11h27.12.196,jersey_experiment_5_v2,2023.2.2,Win32,84.74576271,,,,,,,,,,,,,,,,323.3537,325.4477,325.4477,330.1538,return,3.0255,,72.13541667,0,58,58,32,1,FBP-RB-17.png,0.4,1.2,33,0.5,,,,,,,,,,,,,,,,,,,,,,,,,,,,,,,,,,,,,,,,,,,,,
,,,,,V2_008,21,Male,2024-03-01_11h27.12.196,jersey_experiment_5_v2,2023.2.2,Win32,84.74576271,,,,,,,,,,,,,,,,330.154,332.2479,332.2479,333.2127,return,0.2589,,76.30208333,0,59,59,28,1,FBP-OG-19.png,0.43,1.2,29,0.5,,,,,,,,,,,,,,,,,,,,,,,,,,,,,,,,,,,,,,,,,,,,,
,,,,,V2_008,21,Male,2024-03-01_11h27.12.196,jersey_experiment_5_v2,2023.2.2,Win32,84.74576271,,,,,,,,,,,,,,,,333.215,335.0599,335.0599,336.0361,return,0.2061,,72.00520833,,,,,,FBP-PT-81.png,0.4,1.2,8,0.25,0,0,0,7,1,,,,,,,,,,,,,,,,,,,,,,,,,,,,,,,,,,,,,,,,
,,,,,V2_008,21,Male,2024-03-01_11h27.12.196,jersey_experiment_5_v2,2023.2.2,Win32,84.74576271,,,,,,,,,,,,,,,,336.0365,338.1307,338.1307,341.0011,return,2.0148,,34.765625,,,,,,FBP-YG-18.png,0.35,1.2,51,0.5,0,1,1,50,1,,,,,,,,,,,,,,,,,,,,,,,,,,,,,,,,,,,,,,,,
,,,,,V2_008,21,Male,2024-03-01_11h27.12.196,jersey_experiment_5_v2,2023.2.2,Win32,84.74576271,,,,,,,,,,,,,,,,341.0014,343.0955,343.0956,345.0131,return,0.3447,,27.21354167,,,,,,FBP-RB-91.png,0.35,1.2,41,0.5,0,2,2,40,1,,,,,,,,,,,,,,,,,,,,,,,,,,,,,,,,,,,,,,,,
,,,,,V2_008,21,Male,2024-03-01_11h27.12.196,jersey_experiment_5_v2,2023.2.2,Win32,84.74576271,,,,,,,,,,,,,,,,345.0133,347.1191,347.1191,347.7779,return,0.3023,,27.08333333,,,,,,FBP-RB-71.png,0.37,1.2,32,0.5,0,3,3,31,1,,,,,,,,,,,,,,,,,,,,,,,,,,,,,,,,,,,,,,,,
,,,,,V2_008,21,Male,2024-03-01_11h27.12.196,jersey_experiment_5_v2,2023.2.2,Win32,84.74576271,,,,,,,,,,,,,,,,347.7781,349.8721,349.8721,351.7661,return,0.2392,,77.08333333,,,,,,FBP-RB-91.png,0.45,1.2,45,0.5,0,4,4,44,1,,,,,,,,,,,,,,,,,,,,,,,,,,,,,,,,,,,,,,,,
,,,,,V2_008,21,Male,2024-03-01_11h27.12.196,jersey_experiment_5_v2,2023.2.2,Win32,84.74576271,,,,,,,,,,,,,,,,351.7662,353.6135,353.6135,355.0605,return,0.523,,78.38541667,,,,,,FBP-PT-71.png,0.45,1.2,5,0.25,0,5,5,4,1,,,,,,,,,,,,,,,,,,,,,,,,,,,,,,,,,,,,,,,,
,,,,,V2_008,21,Male,2024-03-01_11h27.12.196,jersey_experiment_5_v2,2023.2.2,Win32,84.74576271,,,,,,,,,,,,,,,,355.0607,356.9078,356.9078,361.3666,return,2.626,,77.34375,,,,,,FBP-PT-91.png,0.43,1.2,14,0.25,0,6,6,13,1,,,,,,,,,,,,,,,,,,,,,,,,,,,,,,,,,,,,,,,,
,,,,,V2_008,21,Male,2024-03-01_11h27.12.196,jersey_experiment_5_v2,2023.2.2,Win32,84.74576271,,,,,,,,,,,,,,,,361.3667,363.4608,363.4608,364.8726,return,0.331,,49.73958333,,,,,,FBP-YG-19.png,0.37,1.2,57,0.5,0,7,7,56,1,,,,,,,,,,,,,,,,,,,,,,,,,,,,,,,,,,,,,,,,
,,,,,V2_008,21,Male,2024-03-01_11h27.12.196,jersey_experiment_5_v2,2023.2.2,Win32,84.74576271,,,,,,,,,,,,,,,,364.8728,366.9667,366.9668,368.2256,return,0.6884,,58.59375,,,,,,FBP-RB-91.png,0.4,1.2,43,0.5,0,8,8,42,1,,,,,,,,,,,,,,,,,,,,,,,,,,,,,,,,,,,,,,,,
,,,,,V2_008,21,Male,2024-03-01_11h27.12.196,jersey_experiment_5_v2,2023.2.2,Win32,84.74576271,,,,,,,,,,,,,,,,368.2258,370.3199,370.3199,371.6492,return,0.7381,,62.23958333,,,,,,FBP-YG-18.png,0.43,1.2,54,0.5,0,9,9,53,1,,,,,,,,,,,,,,,,,,,,,,,,,,,,,,,,,,,,,,,,
,,,,,V2_008,21,Male,2024-03-01_11h27.12.196,jersey_experiment_5_v2,2023.2.2,Win32,84.74576271,,,,,,,,,,,,,,,,371.6495,373.4965,373.4965,375.073,return,0.7134,,62.76041667,,,,,,FBP-PT-71.png,0.4,1.2,3,0.25,0,10,10,2,1,,,,,,,,,,,,,,,,,,,,,,,,,,,,,,,,,,,,,,,,
,,,,,V2_008,21,Male,2024-03-01_11h27.12.196,jersey_experiment_5_v2,2023.2.2,Win32,84.74576271,,,,,,,,,,,,,,,,375.0732,377.1671,377.1671,378.5792,return,0.2401,,47.65625,,,,,,FBP-OG-71.png,0.35,1.2,16,0.5,0,11,11,15,1,,,,,,,,,,,,,,,,,,,,,,,,,,,,,,,,,,,,,,,,
,,,,,V2_008,21,Male,2024-03-01_11h27.12.196,jersey_experiment_5_v2,2023.2.2,Win32,84.74576271,,,,,,,,,,,,,,,,378.5793,380.426,380.426,382.5674,return,0.3177,,46.875,,,,,,FBP-PT-91.png,0.37,1.2,12,0.25,0,12,12,11,1,,,,,,,,,,,,,,,,,,,,,,,,,,,,,,,,,,,,,,,,
,,,,,V2_008,21,Male,2024-03-01_11h27.12.196,jersey_experiment_5_v2,2023.2.2,Win32,84.74576271,,,,,,,,,,,,,,,,382.5676,384.6615,384.6615,387.4146,return,1.6034,,48.56770833,,,,,,FBP-YG-17.png,0.35,1.2,46,0.5,0,13,13,45,1,,,,,,,,,,,,,,,,,,,,,,,,,,,,,,,,,,,,,,,,
,,,,,V2_008,21,Male,2024-03-01_11h27.12.196,jersey_experiment_5_v2,2023.2.2,Win32,84.74576271,,,,,,,,,,,,,,,,387.4149,389.5089,389.5089,393.8619,return,2.0278,,79.94791667,,,,,,FBP-YG-17.png,0.45,1.2,50,0.5,0,14,14,49,1,,,,,,,,,,,,,,,,,,,,,,,,,,,,,,,,,,,,,,,,
,,,,,V2_008,21,Male,2024-03-01_11h27.12.196,jersey_experiment_5_v2,2023.2.2,Win32,84.74576271,,,,,,,,,,,,,,,,393.862,395.709,395.709,398.8385,return,1.5446,,66.66666667,,,,,,FBP-PT-81.png,0.37,1.2,7,0.25,0,15,15,6,1,,,,,,,,,,,,,,,,,,,,,,,,,,,,,,,,,,,,,,,,
,,,,,V2_008,21,Male,2024-03-01_11h27.12.196,jersey_experiment_5_v2,2023.2.2,Win32,84.74576271,,,,,,,,,,,,,,,,398.8387,400.933,400.933,402.2269,return,0.3826,,75.52083333,,,,,,FBP-OG-81.png,0.43,1.2,24,0.5,0,16,16,23,1,,,,,,,,,,,,,,,,,,,,,,,,,,,,,,,,,,,,,,,,
,,,,,V2_008,21,Male,2024-03-01_11h27.12.196,jersey_experiment_5_v2,2023.2.2,Win32,84.74576271,,,,,,,,,,,,,,,,402.2271,404.074,404.074,406.2977,return,1.295,,75,,,,,,FBP-PT-91.png,0.35,1.2,11,0.25,0,17,17,10,1,,,,,,,,,,,,,,,,,,,,,,,,,,,,,,,,,,,,,,,,
,,,,,V2_008,21,Male,2024-03-01_11h27.12.196,jersey_experiment_5_v2,2023.2.2,Win32,84.74576271,,,,,,,,,,,,,,,,406.2979,408.4036,408.4036,411.4272,return,0.4421,,68.22916667,,,,,,FBP-OG-81.png,0.37,1.2,22,0.5,0,18,18,21,1,,,,,,,,,,,,,,,,,,,,,,,,,,,,,,,,,,,,,,,,
,,,,,V2_008,21,Male,2024-03-01_11h27.12.196,jersey_experiment_5_v2,2023.2.2,Win32,84.74576271,,,,,,,,,,,,,,,,411.4275,413.533,413.5331,415.4979,return,0.541,,72.52604167,,,,,,FBP-YG-17.png,0.37,1.2,47,0.5,0,19,19,46,1,,,,,,,,,,,,,,,,,,,,,,,,,,,,,,,,,,,,,,,,
,,,,,V2_008,21,Male,2024-03-01_11h27.12.196,jersey_experiment_5_v2,2023.2.2,Win32,84.74576271,,,,,,,,,,,,,,,,415.4982,417.6039,417.6039,420.1216,return,0.565,,82.8125,,,,,,FBP-RB-91.png,0.43,1.2,44,0.5,0,20,20,43,1,,,,,,,,,,,,,,,,,,,,,,,,,,,,,,,,,,,,,,,,
,,,,,V2_008,21,Male,2024-03-01_11h27.12.196,jersey_experiment_5_v2,2023.2.2,Win32,84.74576271,,,,,,,,,,,,,,,,420.1218,421.9806,421.9806,422.6276,return,0.1457,,85.41666667,,,,,,FBP-PT-71.png,0.43,1.2,4,0.25,0,21,21,3,1,,,,,,,,,,,,,,,,,,,,,,,,,,,,,,,,,,,,,,,,
,,,,,V2_008,21,Male,2024-03-01_11h27.12.196,jersey_experiment_5_v2,2023.2.2,Win32,84.74576271,,,,,,,,,,,,,,,,422.6279,424.4747,424.4747,427.9807,return,0.2349,,75.78125,,,,,,FBP-PT-71.png,0.37,1.2,2,0.25,0,22,22,1,1,,,,,,,,,,,,,,,,,,,,,,,,,,,,,,,,,,,,,,,,
,,,,,V2_008,21,Male,2024-03-01_11h27.12.196,jersey_experiment_5_v2,2023.2.2,Win32,84.74576271,,,,,,,,,,,,,,,,427.981,429.8279,429.828,431.0163,return,0.1057,,80.33854167,,,,,,FBP-PT-91.png,0.4,1.2,13,0.25,0,23,23,12,1,,,,,,,,,,,,,,,,,,,,,,,,,,,,,,,,,,,,,,,,
,,,,,V2_008,21,Male,2024-03-01_11h27.12.196,jersey_experiment_5_v2,2023.2.2,Win32,84.74576271,,,,,,,,,,,,,,,,431.0164,433.1222,433.1222,434.6045,return,0.4235,,77.21354167,,,,,,FBP-RB-81.png,0.35,1.2,36,0.5,0,24,24,35,1,,,,,,,,,,,,,,,,,,,,,,,,,,,,,,,,,,,,,,,,
,,,,,V2_008,21,Male,2024-03-01_11h27.12.196,jersey_experiment_5_v2,2023.2.2,Win32,84.74576271,,,,,,,,,,,,,,,,434.6048,436.7104,436.7105,438.9459,return,1.1946,,84.89583333,,,,,,FBP-RB-71.png,0.45,1.2,35,0.5,0,25,25,34,1,,,,,,,,,,,,,,,,,,,,,,,,,,,,,,,,,,,,,,,,
,,,,,V2_008,21,Male,2024-03-01_11h27.12.196,jersey_experiment_5_v2,2023.2.2,Win32,84.74576271,,,,,,,,,,,,,,,,438.9461,441.04,441.04,443.1578,return,0.6026,,83.85416667,,,,,,FBP-YG-17.png,0.43,1.2,49,0.5,0,26,26,48,1,,,,,,,,,,,,,,,,,,,,,,,,,,,,,,,,,,,,,,,,
,,,,,V2_008,21,Male,2024-03-01_11h27.12.196,jersey_experiment_5_v2,2023.2.2,Win32,84.74576271,,,,,,,,,,,,,,,,443.1579,445.0165,445.0166,445.9696,return,0.2418,,90.36458333,,,,,,FBP-PT-81.png,0.45,1.2,10,0.25,0,27,27,9,1,,,,,,,,,,,,,,,,,,,,,,,,,,,,,,,,,,,,,,,,
,,,,,V2_008,21,Male,2024-03-01_11h27.12.196,jersey_experiment_5_v2,2023.2.2,Win32,84.74576271,,,,,,,,,,,,,,,,445.9698,448.064,448.064,449.2521,return,0.1944,,79.16666667,,,,,,FBP-OG-91.png,0.45,1.2,30,0.5,0,28,28,29,1,,,,,,,,,,,,,,,,,,,,,,,,,,,,,,,,,,,,,,,,
,,,,,V2_008,21,Male,2024-03-01_11h27.12.196,jersey_experiment_5_v2,2023.2.2,Win32,84.74576271,,,,,,,,,,,,,,,,449.2522,451.358,451.3582,451.9935,return,0.2591,,79.03645833,,,,,,FBP-YG-18.png,0.37,1.2,52,0.5,0,29,29,51,1,,,,,,,,,,,,,,,,,,,,,,,,,,,,,,,,,,,,,,,,
,,,,,V2_008,21,Male,2024-03-01_11h27.12.196,jersey_experiment_5_v2,2023.2.2,Win32,84.74576271,,,,,,,,,,,,,,,,451.9938,454.0877,454.0877,455.2758,return,0.2121,,88.02083333,,,,,,FBP-OG-71.png,0.45,1.2,20,0.5,0,30,30,19,1,,,,,,,,,,,,,,,,,,,,,,,,,,,,,,,,,,,,,,,,
,,,,,V2_008,21,Male,2024-03-01_11h27.12.196,jersey_experiment_5_v2,2023.2.2,Win32,84.74576271,,,,,,,,,,,,,,,,455.276,457.3819,457.3819,460.2526,return,0.9775,,83.984375,,,,,,FBP-OG-91.png,0.43,1.2,29,0.5,0,31,31,28,1,,,,,,,,,,,,,,,,,,,,,,,,,,,,,,,,,,,,,,,,
,,,,,V2_008,21,Male,2024-03-01_11h27.12.196,jersey_experiment_5_v2,2023.2.2,Win32,84.74576271,,,,,,,,,,,,,,,,460.2528,462.3584,462.3584,463.4526,return,0.259,,86.45833333,,,,,,FBP-RB-81.png,0.45,1.2,40,0.5,0,32,32,39,1,,,,,,,,,,,,,,,,,,,,,,,,,,,,,,,,,,,,,,,,
,,,,,V2_008,21,Male,2024-03-01_11h27.12.196,jersey_experiment_5_v2,2023.2.2,Win32,84.74576271,,,,,,,,,,,,,,,,463.4528,465.5585,465.5585,467.0291,return,0.4164,,59.24479167,,,,,,FBP-OG-81.png,0.35,1.2,21,0.5,0,33,33,20,1,,,,,,,,,,,,,,,,,,,,,,,,,,,,,,,,,,,,,,,,
,,,,,V2_008,21,Male,2024-03-01_11h27.12.196,jersey_experiment_5_v2,2023.2.2,Win32,84.74576271,,,,,,,,,,,,,,,,467.0293,469.1236,469.1236,471.2528,return,0.2872,,74.08854167,,,,,,FBP-YG-17.png,0.4,1.2,48,0.5,0,34,34,47,1,,,,,,,,,,,,,,,,,,,,,,,,,,,,,,,,,,,,,,,,
,,,,,V2_008,21,Male,2024-03-01_11h27.12.196,jersey_experiment_5_v2,2023.2.2,Win32,84.74576271,,,,,,,,,,,,,,,,471.253,473.1002,473.1003,474.1706,return,0.2589,,86.84895833,,,,,,FBP-PT-81.png,0.43,1.2,9,0.25,0,35,35,8,1,,,,,,,,,,,,,,,,,,,,,,,,,,,,,,,,,,,,,,,,
,,,,,V2_008,21,Male,2024-03-01_11h27.12.196,jersey_experiment_5_v2,2023.2.2,Win32,84.74576271,,,,,,,,,,,,,,,,474.171,476.2648,476.2648,477.1237,return,0.324,,89.58333333,,,,,,FBP-RB-81.png,0.43,1.2,39,0.5,0,36,36,38,1,,,,,,,,,,,,,,,,,,,,,,,,,,,,,,,,,,,,,,,,
,,,,,V2_008,21,Male,2024-03-01_11h27.12.196,jersey_experiment_5_v2,2023.2.2,Win32,84.74576271,,,,,,,,,,,,,,,,477.1239,479.2296,479.2296,481.9239,return,0.4983,,89.71354167,,,,,,FBP-RB-71.png,0.4,1.2,33,0.5,0,37,37,32,1,,,,,,,,,,,,,,,,,,,,,,,,,,,,,,,,,,,,,,,,
,,,,,V2_008,21,Male,2024-03-01_11h27.12.196,jersey_experiment_5_v2,2023.2.2,Win32,84.74576271,,,,,,,,,,,,,,,,481.9242,483.7709,483.7709,487.2063,return,0.2152,,76.171875,,,,,,FBP-PT-91.png,0.45,1.2,15,0.25,0,38,38,14,1,,,,,,,,,,,,,,,,,,,,,,,,,,,,,,,,,,,,,,,,
,,,,,V2_008,21,Male,2024-03-01_11h27.12.196,jersey_experiment_5_v2,2023.2.2,Win32,84.74576271,,,,,,,,,,,,,,,,487.2065,489.3006,489.3006,491.7948,return,0.9482,,47.91666667,,,,,,FBP-OG-91.png,0.35,1.2,26,0.5,0,39,39,25,1,,,,,,,,,,,,,,,,,,,,,,,,,,,,,,,,,,,,,,,,
,,,,,V2_008,21,Male,2024-03-01_11h27.12.196,jersey_experiment_5_v2,2023.2.2,Win32,84.74576271,,,,,,,,,,,,,,,,491.795,493.9009,493.901,495.3948,return,0.7465,,75.65104167,,,,,,FBP-YG-19.png,0.45,1.2,60,0.5,0,40,40,59,1,,,,,,,,,,,,,,,,,,,,,,,,,,,,,,,,,,,,,,,,
,,,,,V2_008,21,Male,2024-03-01_11h27.12.196,jersey_experiment_5_v2,2023.2.2,Win32,84.74576271,,,,,,,,,,,,,,,,495.395,497.4891,497.4891,498.7598,return,0.2612,,74.609375,,,,,,FBP-YG-19.png,0.4,1.2,58,0.5,0,41,41,57,1,,,,,,,,,,,,,,,,,,,,,,,,,,,,,,,,,,,,,,,,
,,,,,V2_008,21,Male,2024-03-01_11h27.12.196,jersey_experiment_5_v2,2023.2.2,Win32,84.74576271,,,,,,,,,,,,,,,,498.7599,500.8539,500.854,506.9837,return,4.2839,,72.13541667,,,,,,FBP-OG-71.png,0.43,1.2,19,0.5,0,42,42,18,1,,,,,,,,,,,,,,,,,,,,,,,,,,,,,,,,,,,,,,,,
,,,,,V2_008,21,Male,2024-03-01_11h27.12.196,jersey_experiment_5_v2,2023.2.2,Win32,84.74576271,,,,,,,,,,,,,,,,506.9838,509.0779,509.0779,511.3956,return,0.5709,,74.609375,,,,,,FBP-RB-71.png,0.43,1.2,34,0.5,0,43,43,33,1,,,,,,,,,,,,,,,,,,,,,,,,,,,,,,,,,,,,,,,,
,,,,,V2_008,21,Male,2024-03-01_11h27.12.196,jersey_experiment_5_v2,2023.2.2,Win32,84.74576271,,,,,,,,,,,,,,,,511.3958,513.4896,513.4897,516.8547,return,1.182,,50.390625,,,,,,FBP-RB-91.png,0.37,1.2,42,0.5,0,44,44,41,1,,,,,,,,,,,,,,,,,,,,,,,,,,,,,,,,,,,,,,,,
,,,,,V2_008,21,Male,2024-03-01_11h27.12.196,jersey_experiment_5_v2,2023.2.2,Win32,84.74576271,,,,,,,,,,,,,,,,516.8551,518.9605,518.9605,520.106,return,0.0944,,74.47916667,,,,,,FBP-YG-18.png,0.45,1.2,55,0.5,0,45,45,54,1,,,,,,,,,,,,,,,,,,,,,,,,,,,,,,,,,,,,,,,,
,,,,,V2_008,21,Male,2024-03-01_11h27.12.196,jersey_experiment_5_v2,2023.2.2,Win32,84.74576271,,,,,,,,,,,,,,,,520.1062,522.2105,522.2106,523.6901,return,0.1177,,57.421875,,,,,,FBP-OG-71.png,0.4,1.2,18,0.5,0,46,46,17,1,,,,,,,,,,,,,,,,,,,,,,,,,,,,,,,,,,,,,,,,
,,,,,V2_008,21,Male,2024-03-01_11h27.12.196,jersey_experiment_5_v2,2023.2.2,Win32,84.74576271,,,,,,,,,,,,,,,,523.6903,525.7843,525.7844,528.1021,return,0.6492,,63.93229167,,,,,,FBP-YG-19.png,0.43,1.2,59,0.5,0,47,47,58,1,,,,,,,,,,,,,,,,,,,,,,,,,,,,,,,,,,,,,,,,
,,,,,V2_008,21,Male,2024-03-01_11h27.12.196,jersey_experiment_5_v2,2023.2.2,Win32,84.74576271,,,,,,,,,,,,,,,,528.1021,529.9608,529.9608,530.902,return,0.1314,,52.86458333,,,,,,FBP-PT-81.png,0.35,1.2,6,0.25,0,48,48,5,1,,,,,,,,,,,,,,,,,,,,,,,,,,,,,,,,,,,,,,,,
,,,,,V2_008,21,Male,2024-03-01_11h27.12.196,jersey_experiment_5_v2,2023.2.2,Win32,84.74576271,,,,,,,,,,,,,,,,530.9022,533.008,533.008,533.8904,return,0.2891,,51.04166667,,,,,,FBP-OG-71.png,0.37,1.2,17,0.5,0,49,49,16,1,,,,,,,,,,,,,,,,,,,,,,,,,,,,,,,,,,,,,,,,
,,,,,V2_008,21,Male,2024-03-01_11h27.12.196,jersey_experiment_5_v2,2023.2.2,Win32,84.74576271,,,,,,,,,,,,,,,,533.8906,535.9965,535.9965,536.8129,return,0.178,,57.03125,,,,,,FBP-OG-81.png,0.4,1.2,23,0.5,0,50,50,22,1,,,,,,,,,,,,,,,,,,,,,,,,,,,,,,,,,,,,,,,,
,,,,,V2_008,21,Male,2024-03-01_11h27.12.196,jersey_experiment_5_v2,2023.2.2,Win32,84.74576271,,,,,,,,,,,,,,,,536.8131,538.9142,538.9142,539.879,return,0.6131,,57.8125,,,,,,FBP-RB-81.png,0.4,1.2,38,0.5,0,51,51,37,1,,,,,,,,,,,,,,,,,,,,,,,,,,,,,,,,,,,,,,,,
,,,,,V2_008,21,Male,2024-03-01_11h27.12.196,jersey_experiment_5_v2,2023.2.2,Win32,84.74576271,,,,,,,,,,,,,,,,539.8791,541.9731,541.9731,542.6791,return,0.1788,,59.89583333,,,,,,FBP-OG-91.png,0.4,1.2,28,0.5,0,52,52,27,1,,,,,,,,,,,,,,,,,,,,,,,,,,,,,,,,,,,,,,,,
,,,,,V2_008,21,Male,2024-03-01_11h27.12.196,jersey_experiment_5_v2,2023.2.2,Win32,84.74576271,,,,,,,,,,,,,,,,542.6793,544.7765,544.7765,546.185,return,0.2014,,35.02604167,,,,,,FBP-RB-71.png,0.35,1.2,31,0.5,0,53,53,30,1,,,,,,,,,,,,,,,,,,,,,,,,,,,,,,,,,,,,,,,,
,,,,,V2_008,21,Male,2024-03-01_11h27.12.196,jersey_experiment_5_v2,2023.2.2,Win32,84.74576271,,,,,,,,,,,,,,,,546.1852,548.2793,548.2793,551.397,return,2.0385,,67.1875,,,,,,FBP-OG-81.png,0.45,1.2,25,0.5,0,54,54,24,1,,,,,,,,,,,,,,,,,,,,,,,,,,,,,,,,,,,,,,,,
,,,,,V2_008,21,Male,2024-03-01_11h27.12.196,jersey_experiment_5_v2,2023.2.2,Win32,84.74576271,,,,,,,,,,,,,,,,551.3971,553.5029,553.503,559.1384,return,1.3953,,63.80208333,,,,,,FBP-YG-18.png,0.4,1.2,53,0.5,0,55,55,52,1,,,,,,,,,,,,,,,,,,,,,,,,,,,,,,,,,,,,,,,,
,,,,,V2_008,21,Male,2024-03-01_11h27.12.196,jersey_experiment_5_v2,2023.2.2,Win32,84.74576271,,,,,,,,,,,,,,,,559.1386,561.2373,561.2373,563.5536,return,0.74,,52.60416667,,,,,,FBP-OG-91.png,0.37,1.2,27,0.5,0,56,56,26,1,,,,,,,,,,,,,,,,,,,,,,,,,,,,,,,,,,,,,,,,
,,,,,V2_008,21,Male,2024-03-01_11h27.12.196,jersey_experiment_5_v2,2023.2.2,Win32,84.74576271,,,,,,,,,,,,,,,,563.5538,565.4093,565.4093,569.0362,return,2.2459,,50.65104167,,,,,,FBP-PT-71.png,0.35,1.2,1,0.25,0,57,57,0,1,,,,,,,,,,,,,,,,,,,,,,,,,,,,,,,,,,,,,,,,
,,,,,V2_008,21,Male,2024-03-01_11h27.12.196,jersey_experiment_5_v2,2023.2.2,Win32,84.74576271,,,,,,,,,,,,,,,,569.0363,571.1437,571.1437,572.1977,return,0.1318,,70.3125,,,,,,FBP-RB-81.png,0.37,1.2,37,0.5,0,58,58,36,1,,,,,,,,,,,,,,,,,,,,,,,,,,,,,,,,,,,,,,,,
,,,,,V2_008,21,Male,2024-03-01_11h27.12.196,jersey_experiment_5_v2,2023.2.2,Win32,84.74576271,,,,,,,,,,,,,,,,572.1979,574.3037,574.3038,576.9391,return,0.2356,,48.046875,,,,,,FBP-YG-19.png,0.35,1.2,56,0.5,0,59,59,55,1,,,,,,,,,,,,,,,,,,,,,,,,,,,,,,,,,,,,,,,,
,,,,,V2_008,21,Male,2024-03-01_11h27.12.196,jersey_experiment_5_v2,2023.2.2,Win32,84.74576271,,,,,,,,,,,,,,,,,,,,,,,,,,,,,,,,,,,,,,,576.9395,696.9321,,,,,,,,,,,,,,,,,,,,,,,,,,,,,,,,,,,,,,
,,,,,V2_008,21,Male,2024-03-01_11h27.12.196,jersey_experiment_5_v2,2023.2.2,Win32,84.74576271,,,,,,,,,,,,,,,,,,,,,,,,,,,,,,,,,,,,,,,,,696.9321,698.626,return,1.6782,,,,,,,,,,,,,,,,,,,,,,,,,,,,,,,,,,
,,,,,V2_008,21,Male,2024-03-01_11h27.12.196,jersey_experiment_5_v2,2023.2.2,Win32,84.74576271,,,,,,,,,,,,,,,,698.6322,700.4894,700.4895,701.7133,return,0.2487,,75,,,,,,FBP-YG-91.png,0.43,1.2,59,0.25,,,,,,,,,,,,,0,0,0,58,1,,,,,,,,,,,,,,,,,,,,,,,,,,,,
,,,,,V2_008,21,Male,2024-03-01_11h27.12.196,jersey_experiment_5_v2,2023.2.2,Win32,84.74576271,,,,,,,,,,,,,,,,701.7136,703.8142,703.8143,704.8027,return,0.1363,,70.96354167,,,,,,FBP-PT-17.png,0.4,1.2,3,0.5,,,,,,,,,,,,,0,1,1,2,1,,,,,,,,,,,,,,,,,,,,,,,,,,,,
,,,,,V2_008,21,Male,2024-03-01_11h27.12.196,jersey_experiment_5_v2,2023.2.2,Win32,84.74576271,,,,,,,,,,,,,,,,704.8029,706.6544,706.6544,708.137,return,0.3895,,78.25520833,,,,,,FBP-RB-17.png,0.43,1.2,34,0.25,,,,,,,,,,,,,0,2,2,33,1,,,,,,,,,,,,,,,,,,,,,,,,,,,,
,,,,,V2_008,21,Male,2024-03-01_11h27.12.196,jersey_experiment_5_v2,2023.2.2,Win32,84.74576271,,,,,,,,,,,,,,,,708.1372,709.9794,709.9794,711.1966,return,0.8244,,78.77604167,,,,,,FBP-OG-18.png,0.43,1.2,24,0.25,,,,,,,,,,,,,0,3,3,23,1,,,,,,,,,,,,,,,,,,,,,,,,,,,,
,,,,,V2_008,21,Male,2024-03-01_11h27.12.196,jersey_experiment_5_v2,2023.2.2,Win32,84.74576271,,,,,,,,,,,,,,,,711.1968,713.0545,713.0545,714.1369,return,0.272,,78.515625,,,,,,FBP-YG-71.png,0.43,1.2,49,0.25,,,,,,,,,,,,,0,4,4,48,1,,,,,,,,,,,,,,,,,,,,,,,,,,,,
,,,,,V2_008,21,Male,2024-03-01_11h27.12.196,jersey_experiment_5_v2,2023.2.2,Win32,84.74576271,,,,,,,,,,,,,,,,714.1371,715.9828,715.9828,716.7963,return,0.2015,,75.13020833,,,,,,FBP-RB-17.png,0.37,1.2,32,0.25,,,,,,,,,,,,,0,5,5,31,1,,,,,,,,,,,,,,,,,,,,,,,,,,,,
,,,,,V2_008,21,Male,2024-03-01_11h27.12.196,jersey_experiment_5_v2,2023.2.2,Win32,84.74576271,,,,,,,,,,,,,,,,716.7963,718.9002,718.9003,720.3489,return,0.1413,,49.73958333,,,,,,FBP-PT-18.png,0.35,1.2,6,0.5,,,,,,,,,,,,,0,6,6,5,1,,,,,,,,,,,,,,,,,,,,,,,,,,,,
,,,,,V2_008,21,Male,2024-03-01_11h27.12.196,jersey_experiment_5_v2,2023.2.2,Win32,84.74576271,,,,,,,,,,,,,,,,720.3491,722.4622,722.4622,724.6738,return,0.0784,,83.07291667,,,,,,FBP-PT-19.png,0.45,1.2,15,0.5,,,,,,,,,,,,,0,7,7,14,1,,,,,,,,,,,,,,,,,,,,,,,,,,,,
,,,,,V2_008,21,Male,2024-03-01_11h27.12.196,jersey_experiment_5_v2,2023.2.2,Win32,84.74576271,,,,,,,,,,,,,,,,724.674,726.5241,726.5241,728.5481,return,0.2122,,49.47916667,,,,,,FBP-RB-17.png,0.35,1.2,31,0.25,,,,,,,,,,,,,0,8,8,30,1,,,,,,,,,,,,,,,,,,,,,,,,,,,,
,,,,,V2_008,21,Male,2024-03-01_11h27.12.196,jersey_experiment_5_v2,2023.2.2,Win32,84.74576271,,,,,,,,,,,,,,,,728.5482,730.6553,730.6554,731.2909,return,0.1078,,53.90625,,,,,,FBP-PT-17.png,0.37,1.2,2,0.5,,,,,,,,,,,,,0,9,9,1,1,,,,,,,,,,,,,,,,,,,,,,,,,,,,
,,,,,V2_008,21,Male,2024-03-01_11h27.12.196,jersey_experiment_5_v2,2023.2.2,Win32,84.74576271,,,,,,,,,,,,,,,,731.291,733.133,733.1331,734.7132,return,0.424,,75.26041667,,,,,,FBP-YG-81.png,0.43,1.2,54,0.25,,,,,,,,,,,,,0,10,10,53,1,,,,,,,,,,,,,,,,,,,,,,,,,,,,
,,,,,V2_008,21,Male,2024-03-01_11h27.12.196,jersey_experiment_5_v2,2023.2.2,Win32,84.74576271,,,,,,,,,,,,,,,,734.7134,736.5684,736.5685,737.1213,return,0.0884,,75.26041667,,,,,,FBP-OG-18.png,0.4,1.2,23,0.25,,,,,,,,,,,,,0,11,11,22,1,,,,,,,,,,,,,,,,,,,,,,,,,,,,
,,,,,V2_008,21,Male,2024-03-01_11h27.12.196,jersey_experiment_5_v2,2023.2.2,Win32,84.74576271,,,,,,,,,,,,,,,,737.1214,738.9721,738.9722,740.9857,return,0.3433,,38.15104167,,,,,,FBP-OG-19.png,0.35,1.2,26,0.25,,,,,,,,,,,,,0,12,12,25,1,,,,,,,,,,,,,,,,,,,,,,,,,,,,
,,,,,V2_008,21,Male,2024-03-01_11h27.12.196,jersey_experiment_5_v2,2023.2.2,Win32,84.74576271,,,,,,,,,,,,,,,,740.9859,743.0864,743.0864,746.9019,return,0.1411,,75.13020833,,,,,,FBP-PT-17.png,0.45,1.2,5,0.5,,,,,,,,,,,,,0,13,13,4,1,,,,,,,,,,,,,,,,,,,,,,,,,,,,
,,,,,V2_008,21,Male,2024-03-01_11h27.12.196,jersey_experiment_5_v2,2023.2.2,Win32,84.74576271,,,,,,,,,,,,,,,,746.902,749.009,749.009,750.5021,return,0.2357,,49.73958333,,,,,,FBP-PT-19.png,0.35,1.2,11,0.5,,,,,,,,,,,,,0,14,14,10,1,,,,,,,,,,,,,,,,,,,,,,,,,,,,
,,,,,V2_008,21,Male,2024-03-01_11h27.12.196,jersey_experiment_5_v2,2023.2.2,Win32,84.74576271,,,,,,,,,,,,,,,,750.5022,752.3609,752.3609,753.6516,return,0.2298,,74.86979167,,,,,,FBP-OG-18.png,0.45,1.2,25,0.25,,,,,,,,,,,,,0,15,15,24,1,,,,,,,,,,,,,,,,,,,,,,,,,,,,
,,,,,V2_008,21,Male,2024-03-01_11h27.12.196,jersey_experiment_5_v2,2023.2.2,Win32,84.74576271,,,,,,,,,,,,,,,,753.6517,755.5033,755.5033,759.5104,return,1.3563,,66.27604167,,,,,,FBP-RB-18.png,0.4,1.2,38,0.25,,,,,,,,,,,,,0,16,16,37,1,,,,,,,,,,,,,,,,,,,,,,,,,,,,
,,,,,V2_008,21,Male,2024-03-01_11h27.12.196,jersey_experiment_5_v2,2023.2.2,Win32,84.74576271,,,,,,,,,,,,,,,,759.5107,761.3576,761.3576,762.2096,return,0.1415,,55.46875,,,,,,FBP-OG-18.png,0.35,1.2,21,0.25,,,,,,,,,,,,,0,17,17,20,1,,,,,,,,,,,,,,,,,,,,,,,,,,,,
,,,,,V2_008,21,Male,2024-03-01_11h27.12.196,jersey_experiment_5_v2,2023.2.2,Win32,84.74576271,,,,,,,,,,,,,,,,762.2097,764.0548,764.0548,765.598,return,0.3299,,75.390625,,,,,,FBP-RB-18.png,0.43,1.2,39,0.25,,,,,,,,,,,,,0,18,18,38,1,,,,,,,,,,,,,,,,,,,,,,,,,,,,
,,,,,V2_008,21,Male,2024-03-01_11h27.12.196,jersey_experiment_5_v2,2023.2.2,Win32,84.74576271,,,,,,,,,,,,,,,,765.5981,767.4433,767.4433,768.892,return,0.6354,,81.51041667,,,,,,FBP-YG-91.png,0.45,1.2,60,0.25,,,,,,,,,,,,,0,19,19,59,1,,,,,,,,,,,,,,,,,,,,,,,,,,,,
,,,,,V2_008,21,Male,2024-03-01_11h27.12.196,jersey_experiment_5_v2,2023.2.2,Win32,84.74576271,,,,,,,,,,,,,,,,768.8922,770.7376,770.7376,771.6684,return,0.3425,,58.72395833,,,,,,FBP-YG-81.png,0.37,1.2,52,0.25,,,,,,,,,,,,,0,20,20,51,1,,,,,,,,,,,,,,,,,,,,,,,,,,,,
,,,,,V2_008,21,Male,2024-03-01_11h27.12.196,jersey_experiment_5_v2,2023.2.2,Win32,84.74576271,,,,,,,,,,,,,,,,771.6686,773.5111,773.5111,775.3346,return,0.8029,,55.078125,,,,,,FBP-OG-18.png,0.37,1.2,22,0.25,,,,,,,,,,,,,0,21,21,21,1,,,,,,,,,,,,,,,,,,,,,,,,,,,,
,,,,,V2_008,21,Male,2024-03-01_11h27.12.196,jersey_experiment_5_v2,2023.2.2,Win32,84.74576271,,,,,,,,,,,,,,,,775.3348,777.1817,777.1817,778.8793,return,0.1755,,50.13020833,,,,,,FBP-YG-91.png,0.35,1.2,56,0.25,,,,,,,,,,,,,0,22,22,55,1,,,,,,,,,,,,,,,,,,,,,,,,,,,,
,,,,,V2_008,21,Male,2024-03-01_11h27.12.196,jersey_experiment_5_v2,2023.2.2,Win32,84.74576271,,,,,,,,,,,,,,,,778.8794,780.7276,780.7276,781.7348,return,0.131,,74.73958333,,,,,,FBP-RB-17.png,0.4,1.2,33,0.25,,,,,,,,,,,,,0,23,23,32,1,,,,,,,,,,,,,,,,,,,,,,,,,,,,
,,,,,V2_008,21,Male,2024-03-01_11h27.12.196,jersey_experiment_5_v2,2023.2.2,Win32,84.74576271,,,,,,,,,,,,,,,,781.735,783.5852,783.5852,784.2677,return,0.4003,,74.73958333,,,,,,FBP-RB-19.png,0.45,1.2,45,0.25,,,,,,,,,,,,,0,24,24,44,1,,,,,,,,,,,,,,,,,,,,,,,,,,,,
,,,,,V2_008,21,Male,2024-03-01_11h27.12.196,jersey_experiment_5_v2,2023.2.2,Win32,84.74576271,,,,,,,,,,,,,,,,784.2679,786.1232,786.1232,787.6172,return,0.9729,,76.69270833,,,,,,FBP-OG-17.png,0.45,1.2,20,0.25,,,,,,,,,,,,,0,25,25,19,1,,,,,,,,,,,,,,,,,,,,,,,,,,,,
,,,,,V2_008,21,Male,2024-03-01_11h27.12.196,jersey_experiment_5_v2,2023.2.2,Win32,84.74576271,,,,,,,,,,,,,,,,787.6174,789.4681,789.4681,791.1704,return,0.8408,,87.109375,,,,,,FBP-RB-17.png,0.45,1.2,35,0.25,,,,,,,,,,,,,0,26,26,34,1,,,,,,,,,,,,,,,,,,,,,,,,,,,,
,,,,,V2_008,21,Male,2024-03-01_11h27.12.196,jersey_experiment_5_v2,2023.2.2,Win32,84.74576271,,,,,,,,,,,,,,,,791.1705,793.0207,793.0207,794.3755,return,0.1075,,73.30729167,,,,,,FBP-OG-19.png,0.4,1.2,28,0.25,,,,,,,,,,,,,0,27,27,27,1,,,,,,,,,,,,,,,,,,,,,,,,,,,,
,,,,,V2_008,21,Male,2024-03-01_11h27.12.196,jersey_experiment_5_v2,2023.2.2,Win32,84.74576271,,,,,,,,,,,,,,,,794.3758,796.2211,796.2211,797.4814,return,0.0944,,49.609375,,,,,,FBP-YG-91.png,0.37,1.2,57,0.25,,,,,,,,,,,,,0,28,28,56,1,,,,,,,,,,,,,,,,,,,,,,,,,,,,
,,,,,V2_008,21,Male,2024-03-01_11h27.12.196,jersey_experiment_5_v2,2023.2.2,Win32,84.74576271,,,,,,,,,,,,,,,,797.4816,799.5861,799.5861,801.3876,return,0.8607,,73.56770833,,,,,,FBP-PT-19.png,0.43,1.2,14,0.5,,,,,,,,,,,,,0,29,29,13,1,,,,,,,,,,,,,,,,,,,,,,,,,,,,
,,,,,V2_008,21,Male,2024-03-01_11h27.12.196,jersey_experiment_5_v2,2023.2.2,Win32,84.74576271,,,,,,,,,,,,,,,,801.3877,803.2297,803.2298,804.3626,return,0.1887,,56.38020833,,,,,,FBP-OG-17.png,0.4,1.2,18,0.25,,,,,,,,,,,,,0,30,30,17,1,,,,,,,,,,,,,,,,,,,,,,,,,,,,
,,,,,V2_008,21,Male,2024-03-01_11h27.12.196,jersey_experiment_5_v2,2023.2.2,Win32,84.74576271,,,,,,,,,,,,,,,,804.3628,806.2108,806.2109,807.563,return,0.1882,,49.609375,,,,,,FBP-RB-18.png,0.35,1.2,36,0.25,,,,,,,,,,,,,0,31,31,35,1,,,,,,,,,,,,,,,,,,,,,,,,,,,,
,,,,,V2_008,21,Male,2024-03-01_11h27.12.196,jersey_experiment_5_v2,2023.2.2,Win32,84.74576271,,,,,,,,,,,,,,,,807.5631,809.4112,809.4112,810.4229,return,0.2251,,75.26041667,,,,,,FBP-RB-18.png,0.45,1.2,40,0.25,,,,,,,,,,,,,0,32,32,39,1,,,,,,,,,,,,,,,,,,,,,,,,,,,,
,,,,,V2_008,21,Male,2024-03-01_11h27.12.196,jersey_experiment_5_v2,2023.2.2,Win32,84.74576271,,,,,,,,,,,,,,,,810.4231,812.2652,812.2653,814.7056,return,1.3887,,74.34895833,,,,,,FBP-OG-19.png,0.37,1.2,27,0.25,,,,,,,,,,,,,0,33,33,26,1,,,,,,,,,,,,,,,,,,,,,,,,,,,,
,,,,,V2_008,21,Male,2024-03-01_11h27.12.196,jersey_experiment_5_v2,2023.2.2,Win32,84.74576271,,,,,,,,,,,,,,,,814.7058,816.5479,816.5479,817.6105,return,0.6596,,74.34895833,,,,,,FBP-RB-19.png,0.37,1.2,42,0.25,,,,,,,,,,,,,0,34,34,41,1,,,,,,,,,,,,,,,,,,,,,,,,,,,,
,,,,,V2_008,21,Male,2024-03-01_11h27.12.196,jersey_experiment_5_v2,2023.2.2,Win32,84.74576271,,,,,,,,,,,,,,,,817.6106,819.4538,819.4538,821.701,return,0.4974,,86.84895833,,,,,,FBP-YG-71.png,0.45,1.2,50,0.25,,,,,,,,,,,,,0,35,35,49,1,,,,,,,,,,,,,,,,,,,,,,,,,,,,
,,,,,V2_008,21,Male,2024-03-01_11h27.12.196,jersey_experiment_5_v2,2023.2.2,Win32,84.74576271,,,,,,,,,,,,,,,,821.7012,823.5526,823.5527,825.6236,return,0.918,,82.16145833,,,,,,FBP-OG-19.png,0.43,1.2,29,0.25,,,,,,,,,,,,,0,36,36,28,1,,,,,,,,,,,,,,,,,,,,,,,,,,,,
,,,,,V2_008,21,Male,2024-03-01_11h27.12.196,jersey_experiment_5_v2,2023.2.2,Win32,84.74576271,,,,,,,,,,,,,,,,825.6237,827.7175,827.7175,832.1484,return,3.523,,87.23958333,,,,,,FBP-PT-18.png,0.45,1.2,10,0.5,,,,,,,,,,,,,0,37,37,9,1,,,,,,,,,,,,,,,,,,,,,,,,,,,,
,,,,,V2_008,21,Male,2024-03-01_11h27.12.196,jersey_experiment_5_v2,2023.2.2,Win32,84.74576271,,,,,,,,,,,,,,,,832.1486,834.0002,834.0002,835.8781,return,0.4847,,74.47916667,,,,,,FBP-YG-91.png,0.4,1.2,58,0.25,,,,,,,,,,,,,0,38,38,57,1,,,,,,,,,,,,,,,,,,,,,,,,,,,,
,,,,,V2_008,21,Male,2024-03-01_11h27.12.196,jersey_experiment_5_v2,2023.2.2,Win32,84.74576271,,,,,,,,,,,,,,,,835.8782,837.7283,837.7283,840.9525,return,0.9044,,66.14583333,,,,,,FBP-RB-18.png,0.37,1.2,37,0.25,,,,,,,,,,,,,0,39,39,36,1,,,,,,,,,,,,,,,,,,,,,,,,,,,,
,,,,,V2_008,21,Male,2024-03-01_11h27.12.196,jersey_experiment_5_v2,2023.2.2,Win32,84.74576271,,,,,,,,,,,,,,,,840.9526,842.8109,842.8109,843.5722,return,0.2165,,52.08333333,,,,,,FBP-YG-81.png,0.35,1.2,51,0.25,,,,,,,,,,,,,0,40,40,50,1,,,,,,,,,,,,,,,,,,,,,,,,,,,,
,,,,,V2_008,21,Male,2024-03-01_11h27.12.196,jersey_experiment_5_v2,2023.2.2,Win32,84.74576271,,,,,,,,,,,,,,,,843.5724,845.6666,845.6666,846.6312,return,0.201,,75.26041667,,,,,,FBP-PT-17.png,0.43,1.2,4,0.5,,,,,,,,,,,,,0,41,41,3,1,,,,,,,,,,,,,,,,,,,,,,,,,,,,
,,,,,V2_008,21,Male,2024-03-01_11h27.12.196,jersey_experiment_5_v2,2023.2.2,Win32,84.74576271,,,,,,,,,,,,,,,,846.6314,848.7253,848.7253,849.1306,return,0.2251,,75.26041667,,,,,,FBP-PT-18.png,0.4,1.2,8,0.5,,,,,,,,,,,,,0,42,42,7,1,,,,,,,,,,,,,,,,,,,,,,,,,,,,
,,,,,V2_008,21,Male,2024-03-01_11h27.12.196,jersey_experiment_5_v2,2023.2.2,Win32,84.74576271,,,,,,,,,,,,,,,,849.1307,851.235,851.235,851.8361,return,0.131,,76.82291667,,,,,,FBP-PT-17.png,0.35,1.2,1,0.5,,,,,,,,,,,,,0,43,43,0,1,,,,,,,,,,,,,,,,,,,,,,,,,,,,
,,,,,V2_008,21,Male,2024-03-01_11h27.12.196,jersey_experiment_5_v2,2023.2.2,Win32,84.74576271,,,,,,,,,,,,,,,,851.8362,853.6786,853.6786,854.5188,return,0.1313,,72.00520833,,,,,,FBP-YG-71.png,0.37,1.2,47,0.25,,,,,,,,,,,,,0,44,44,46,1,,,,,,,,,,,,,,,,,,,,,,,,,,,,
,,,,,V2_008,21,Male,2024-03-01_11h27.12.196,jersey_experiment_5_v2,2023.2.2,Win32,84.74576271,,,,,,,,,,,,,,,,854.5189,856.3641,856.3641,856.6904,return,0.0188,,73.046875,,,,,,FBP-RB-19.png,0.35,1.2,41,0.25,,,,,,,,,,,,,0,45,45,40,1,,,,,,,,,,,,,,,,,,,,,,,,,,,,
,,,,,V2_008,21,Male,2024-03-01_11h27.12.196,jersey_experiment_5_v2,2023.2.2,Win32,84.74576271,,,,,,,,,,,,,,,,856.6908,858.7964,858.7965,859.3141,return,0.125,,74.34895833,,,,,,FBP-PT-18.png,0.43,1.2,9,0.5,,,,,,,,,,,,,0,46,46,8,1,,,,,,,,,,,,,,,,,,,,,,,,,,,,
,,,,,V2_008,21,Male,2024-03-01_11h27.12.196,jersey_experiment_5_v2,2023.2.2,Win32,84.74576271,,,,,,,,,,,,,,,,859.3143,861.1643,861.1643,862.1426,return,0.0709,,49.86979167,,,,,,FBP-OG-17.png,0.35,1.2,16,0.25,,,,,,,,,,,,,0,47,47,15,1,,,,,,,,,,,,,,,,,,,,,,,,,,,,
,,,,,V2_008,21,Male,2024-03-01_11h27.12.196,jersey_experiment_5_v2,2023.2.2,Win32,84.74576271,,,,,,,,,,,,,,,,862.1427,863.9879,863.9879,865.3378,return,0.2226,,75.26041667,,,,,,FBP-OG-17.png,0.43,1.2,19,0.25,,,,,,,,,,,,,0,48,48,18,1,,,,,,,,,,,,,,,,,,,,,,,,,,,,
,,,,,V2_008,21,Male,2024-03-01_11h27.12.196,jersey_experiment_5_v2,2023.2.2,Win32,84.74576271,,,,,,,,,,,,,,,,865.3378,867.1967,867.1967,869.138,return,1.1255,,78.515625,,,,,,FBP-YG-81.png,0.45,1.2,55,0.25,,,,,,,,,,,,,0,49,49,54,1,,,,,,,,,,,,,,,,,,,,,,,,,,,,
,,,,,V2_008,21,Male,2024-03-01_11h27.12.196,jersey_experiment_5_v2,2023.2.2,Win32,84.74576271,,,,,,,,,,,,,,,,869.1383,871.2358,871.2359,872.7263,return,0.0605,,60.67708333,,,,,,FBP-PT-18.png,0.37,1.2,7,0.5,,,,,,,,,,,,,0,50,50,6,1,,,,,,,,,,,,,,,,,,,,,,,,,,,,
,,,,,V2_008,21,Male,2024-03-01_11h27.12.196,jersey_experiment_5_v2,2023.2.2,Win32,84.74576271,,,,,,,,,,,,,,,,872.7265,874.5853,874.5853,875.884,return,0.1645,,74.34895833,,,,,,FBP-RB-19.png,0.4,1.2,43,0.25,,,,,,,,,,,,,0,51,51,42,1,,,,,,,,,,,,,,,,,,,,,,,,,,,,
,,,,,V2_008,21,Male,2024-03-01_11h27.12.196,jersey_experiment_5_v2,2023.2.2,Win32,84.74576271,,,,,,,,,,,,,,,,875.8841,877.7266,877.7266,878.1854,return,0.293,,74.21875,,,,,,FBP-OG-19.png,0.45,1.2,30,0.25,,,,,,,,,,,,,0,52,52,29,1,,,,,,,,,,,,,,,,,,,,,,,,,,,,
,,,,,V2_008,21,Male,2024-03-01_11h27.12.196,jersey_experiment_5_v2,2023.2.2,Win32,84.74576271,,,,,,,,,,,,,,,,878.1855,880.0441,880.0442,881.0443,return,0.1923,,75.390625,,,,,,FBP-YG-81.png,0.4,1.2,53,0.25,,,,,,,,,,,,,0,53,53,52,1,,,,,,,,,,,,,,,,,,,,,,,,,,,,
,,,,,V2_008,21,Male,2024-03-01_11h27.12.196,jersey_experiment_5_v2,2023.2.2,Win32,84.74576271,,,,,,,,,,,,,,,,881.0445,882.9031,882.9031,884.9856,return,0.4001,,51.69270833,,,,,,FBP-YG-71.png,0.35,1.2,46,0.25,,,,,,,,,,,,,0,54,54,45,1,,,,,,,,,,,,,,,,,,,,,,,,,,,,
,,,,,V2_008,21,Male,2024-03-01_11h27.12.196,jersey_experiment_5_v2,2023.2.2,Win32,84.74576271,,,,,,,,,,,,,,,,884.9858,886.8444,886.8445,889.2681,return,0.1465,,73.95833333,,,,,,FBP-YG-71.png,0.4,1.2,48,0.25,,,,,,,,,,,,,0,55,55,47,1,,,,,,,,,,,,,,,,,,,,,,,,,,,,
,,,,,V2_008,21,Male,2024-03-01_11h27.12.196,jersey_experiment_5_v2,2023.2.2,Win32,84.74576271,,,,,,,,,,,,,,,,889.2683,891.1269,891.1269,891.7544,return,0.2457,,73.95833333,,,,,,FBP-RB-19.png,0.43,1.2,44,0.25,,,,,,,,,,,,,0,56,56,43,1,,,,,,,,,,,,,,,,,,,,,,,,,,,,
,,,,,V2_008,21,Male,2024-03-01_11h27.12.196,jersey_experiment_5_v2,2023.2.2,Win32,84.74576271,,,,,,,,,,,,,,,,891.7547,893.5976,893.5977,895.5742,return,0.215,,54.6875,,,,,,FBP-OG-17.png,0.37,1.2,17,0.25,,,,,,,,,,,,,0,57,57,16,1,,,,,,,,,,,,,,,,,,,,,,,,,,,,
,,,,,V2_008,21,Male,2024-03-01_11h27.12.196,jersey_experiment_5_v2,2023.2.2,Win32,84.74576271,,,,,,,,,,,,,,,,895.5744,897.6731,897.6732,899.7154,return,0.7221,,71.74479167,,,,,,FBP-PT-19.png,0.4,1.2,13,0.5,,,,,,,,,,,,,0,58,58,12,1,,,,,,,,,,,,,,,,,,,,,,,,,,,,
,,,,,V2_008,21,Male,2024-03-01_11h27.12.196,jersey_experiment_5_v2,2023.2.2,Win32,84.74576271,,,,,,,,,,,,,,,,899.7156,901.8098,901.8098,902.9509,return,0.1551,,61.58854167,,,,,,FBP-PT-19.png,0.37,1.2,12,0.5,,,,,,,,,,,,,0,59,59,11,1,,,,,,,,,,,,,,,,,,,,,,,,,,,,
,,,,,V2_008,21,Male,2024-03-01_11h27.12.196,jersey_experiment_5_v2,2023.2.2,Win32,84.74576271,,,,,,,,,,,,,,,,902.9532,905.0483,905.0484,906.3561,return,0.2487,,50.26041667,,,,,,FBP-PT-81.png,0.35,1.2,6,0.5,,,,,,,,,,,,,,,,,,0,0,0,5,1,,,,,,,,,,,,,,,,,,,,,,,
,,,,,V2_008,21,Male,2024-03-01_11h27.12.196,jersey_experiment_5_v2,2023.2.2,Win32,84.74576271,,,,,,,,,,,,,,,,906.3565,908.1983,908.1984,909.363,return,0.2423,,40.625,,,,,,FBP-YG-18.png,0.35,1.2,51,0.25,,,,,,,,,,,,,,,,,,0,1,1,50,1,,,,,,,,,,,,,,,,,,,,,,,
,,,,,V2_008,21,Male,2024-03-01_11h27.12.196,jersey_experiment_5_v2,2023.2.2,Win32,84.74576271,,,,,,,,,,,,,,,,909.3631,911.2218,911.2219,912.5514,return,0.1888,,67.96875,,,,,,FBP-YG-17.png,0.4,1.2,48,0.25,,,,,,,,,,,,,,,,,,0,2,2,47,1,,,,,,,,,,,,,,,,,,,,,,,
,,,,,V2_008,21,Male,2024-03-01_11h27.12.196,jersey_experiment_5_v2,2023.2.2,Win32,84.74576271,,,,,,,,,,,,,,,,912.5516,914.4103,914.4103,916.1867,return,0.3064,,73.56770833,,,,,,FBP-OG-91.png,0.43,1.2,29,0.25,,,,,,,,,,,,,,,,,,0,3,3,28,1,,,,,,,,,,,,,,,,,,,,,,,
,,,,,V2_008,21,Male,2024-03-01_11h27.12.196,jersey_experiment_5_v2,2023.2.2,Win32,84.74576271,,,,,,,,,,,,,,,,916.1869,918.037,918.0371,918.9163,return,0.2872,,64.32291667,,,,,,FBP-OG-71.png,0.35,1.2,16,0.25,,,,,,,,,,,,,,,,,,0,4,4,15,1,,,,,,,,,,,,,,,,,,,,,,,
,,,,,V2_008,21,Male,2024-03-01_11h27.12.196,jersey_experiment_5_v2,2023.2.2,Win32,84.74576271,,,,,,,,,,,,,,,,918.9165,921.0105,921.0105,922.081,return,0.6791,,65.10416667,,,,,,FBP-PT-91.png,0.37,1.2,12,0.5,,,,,,,,,,,,,,,,,,0,5,5,11,1,,,,,,,,,,,,,,,,,,,,,,,
,,,,,V2_008,21,Male,2024-03-01_11h27.12.196,jersey_experiment_5_v2,2023.2.2,Win32,84.74576271,,,,,,,,,,,,,,,,922.0812,924.179,924.179,925.2695,return,0.1086,,74.609375,,,,,,FBP-PT-81.png,0.43,1.2,9,0.5,,,,,,,,,,,,,,,,,,0,6,6,8,1,,,,,,,,,,,,,,,,,,,,,,,
,,,,,V2_008,21,Male,2024-03-01_11h27.12.196,jersey_experiment_5_v2,2023.2.2,Win32,84.74576271,,,,,,,,,,,,,,,,925.2696,927.1167,927.1167,928.3401,return,0.2158,,80.20833333,,,,,,FBP-RB-91.png,0.45,1.2,45,0.25,,,,,,,,,,,,,,,,,,0,7,7,44,1,,,,,,,,,,,,,,,,,,,,,,,
,,,,,V2_008,21,Male,2024-03-01_11h27.12.196,jersey_experiment_5_v2,2023.2.2,Win32,84.74576271,,,,,,,,,,,,,,,,928.3403,930.199,930.1991,930.8226,return,0.1439,,80.59895833,,,,,,FBP-YG-19.png,0.45,1.2,60,0.25,,,,,,,,,,,,,,,,,,0,8,8,59,1,,,,,,,,,,,,,,,,,,,,,,,
,,,,,V2_008,21,Male,2024-03-01_11h27.12.196,jersey_experiment_5_v2,2023.2.2,Win32,84.74576271,,,,,,,,,,,,,,,,930.8227,932.6699,932.6699,933.6814,return,0.1374,,75.390625,,,,,,FBP-OG-81.png,0.45,1.2,25,0.25,,,,,,,,,,,,,,,,,,0,9,9,24,1,,,,,,,,,,,,,,,,,,,,,,,
,,,,,V2_008,21,Male,2024-03-01_11h27.12.196,jersey_experiment_5_v2,2023.2.2,Win32,84.74576271,,,,,,,,,,,,,,,,933.6816,935.7757,935.7758,936.2026,return,0.2223,,75.390625,,,,,,FBP-PT-91.png,0.4,1.2,13,0.5,,,,,,,,,,,,,,,,,,0,10,10,12,1,,,,,,,,,,,,,,,,,,,,,,,
,,,,,V2_008,21,Male,2024-03-01_11h27.12.196,jersey_experiment_5_v2,2023.2.2,Win32,84.74576271,,,,,,,,,,,,,,,,936.2028,938.0513,938.0513,940.334,return,1.2845,,33.85416667,,,,,,FBP-RB-81.png,0.35,1.2,36,0.25,,,,,,,,,,,,,,,,,,0,11,11,35,1,,,,,,,,,,,,,,,,,,,,,,,
,,,,,V2_008,21,Male,2024-03-01_11h27.12.196,jersey_experiment_5_v2,2023.2.2,Win32,84.74576271,,,,,,,,,,,,,,,,940.3342,942.1792,942.1792,944.0515,return,0.824,,70.57291667,,,,,,FBP-OG-71.png,0.43,1.2,19,0.25,,,,,,,,,,,,,,,,,,0,12,12,18,1,,,,,,,,,,,,,,,,,,,,,,,
,,,,,V2_008,21,Male,2024-03-01_11h27.12.196,jersey_experiment_5_v2,2023.2.2,Win32,84.74576271,,,,,,,,,,,,,,,,944.0517,945.91,945.9101,947.4469,return,0.4485,,70.96354167,,,,,,FBP-RB-81.png,0.4,1.2,38,0.25,,,,,,,,,,,,,,,,,,0,13,13,37,1,,,,,,,,,,,,,,,,,,,,,,,
,,,,,V2_008,21,Male,2024-03-01_11h27.12.196,jersey_experiment_5_v2,2023.2.2,Win32,84.74576271,,,,,,,,,,,,,,,,947.447,949.2938,949.2938,952.3762,return,1.2953,,68.61979167,,,,,,FBP-RB-71.png,0.35,1.2,31,0.25,,,,,,,,,,,,,,,,,,0,14,14,30,1,,,,,,,,,,,,,,,,,,,,,,,
,,,,,V2_008,21,Male,2024-03-01_11h27.12.196,jersey_experiment_5_v2,2023.2.2,Win32,84.74576271,,,,,,,,,,,,,,,,952.3764,954.2267,954.2267,955.639,return,0.2928,,75.52083333,,,,,,FBP-YG-18.png,0.45,1.2,55,0.25,,,,,,,,,,,,,,,,,,0,15,15,54,1,,,,,,,,,,,,,,,,,,,,,,,
,,,,,V2_008,21,Male,2024-03-01_11h27.12.196,jersey_experiment_5_v2,2023.2.2,Win32,84.74576271,,,,,,,,,,,,,,,,955.6392,957.7412,957.7412,959.259,return,0.3067,,76.30208333,,,,,,FBP-PT-91.png,0.45,1.2,15,0.5,,,,,,,,,,,,,,,,,,0,16,16,14,1,,,,,,,,,,,,,,,,,,,,,,,
,,,,,V2_008,21,Male,2024-03-01_11h27.12.196,jersey_experiment_5_v2,2023.2.2,Win32,84.74576271,,,,,,,,,,,,,,,,959.2592,961.1179,961.1179,967.8004,return,5.1433,,56.38020833,,,,,,FBP-OG-91.png,0.45,1.2,30,0.25,,,,,,,,,,,,,,,,,,0,17,17,29,1,,,,,,,,,,,,,,,,,,,,,,,
,,,,,V2_008,21,Male,2024-03-01_11h27.12.196,jersey_experiment_5_v2,2023.2.2,Win32,84.74576271,,,,,,,,,,,,,,,,967.8005,969.6523,969.6523,971.3181,return,0.5914,,74.21875,,,,,,FBP-YG-17.png,0.43,1.2,49,0.25,,,,,,,,,,,,,,,,,,0,18,18,48,1,,,,,,,,,,,,,,,,,,,,,,,
,,,,,V2_008,21,Male,2024-03-01_11h27.12.196,jersey_experiment_5_v2,2023.2.2,Win32,84.74576271,,,,,,,,,,,,,,,,971.3183,973.1685,973.1685,975.582,return,0.5648,,48.69791667,,,,,,FBP-OG-91.png,0.37,1.2,27,0.25,,,,,,,,,,,,,,,,,,0,19,19,26,1,,,,,,,,,,,,,,,,,,,,,,,
,,,,,V2_008,21,Male,2024-03-01_11h27.12.196,jersey_experiment_5_v2,2023.2.2,Win32,84.74576271,,,,,,,,,,,,,,,,975.5821,977.4276,977.4276,980.194,return,1.6945,,70.44270833,,,,,,FBP-OG-71.png,0.45,1.2,20,0.25,,,,,,,,,,,,,,,,,,0,20,20,19,1,,,,,,,,,,,,,,,,,,,,,,,
,,,,,V2_008,21,Male,2024-03-01_11h27.12.196,jersey_experiment_5_v2,2023.2.2,Win32,84.74576271,,,,,,,,,,,,,,,,980.1941,982.0479,982.0479,983.2634,return,0.8241,,71.35416667,,,,,,FBP-YG-18.png,0.4,1.2,53,0.25,,,,,,,,,,,,,,,,,,0,21,21,52,1,,,,,,,,,,,,,,,,,,,,,,,
,,,,,V2_008,21,Male,2024-03-01_11h27.12.196,jersey_experiment_5_v2,2023.2.2,Win32,84.74576271,,,,,,,,,,,,,,,,983.2635,985.1115,985.1115,986.0869,return,0.2356,,76.43229167,,,,,,FBP-YG-18.png,0.43,1.2,54,0.25,,,,,,,,,,,,,,,,,,0,22,22,53,1,,,,,,,,,,,,,,,,,,,,,,,
,,,,,V2_008,21,Male,2024-03-01_11h27.12.196,jersey_experiment_5_v2,2023.2.2,Win32,84.74576271,,,,,,,,,,,,,,,,986.0871,987.9459,987.9459,990.04,return,0.6821,,55.33854167,,,,,,FBP-RB-91.png,0.37,1.2,42,0.25,,,,,,,,,,,,,,,,,,0,23,23,41,1,,,,,,,,,,,,,,,,,,,,,,,
,,,,,V2_008,21,Male,2024-03-01_11h27.12.196,jersey_experiment_5_v2,2023.2.2,Win32,84.74576271,,,,,,,,,,,,,,,,990.0401,991.8954,991.8954,993.0414,return,0.2011,,49.609375,,,,,,FBP-YG-18.png,0.37,1.2,52,0.25,,,,,,,,,,,,,,,,,,0,24,24,51,1,,,,,,,,,,,,,,,,,,,,,,,
,,,,,V2_008,21,Male,2024-03-01_11h27.12.196,jersey_experiment_5_v2,2023.2.2,Win32,84.74576271,,,,,,,,,,,,,,,,993.0416,995.146,995.146,996.5817,return,0.6225,,75,,,,,,FBP-PT-91.png,0.43,1.2,14,0.5,,,,,,,,,,,,,,,,,,0,25,25,13,1,,,,,,,,,,,,,,,,,,,,,,,
,,,,,V2_008,21,Male,2024-03-01_11h27.12.196,jersey_experiment_5_v2,2023.2.2,Win32,84.74576271,,,,,,,,,,,,,,,,996.5818,998.4368,998.4368,1001.5595,return,1.2241,,73.828125,,,,,,FBP-YG-17.png,0.37,1.2,47,0.25,,,,,,,,,,,,,,,,,,0,26,26,46,1,,,,,,,,,,,,,,,,,,,,,,,
,,,,,V2_008,21,Male,2024-03-01_11h27.12.196,jersey_experiment_5_v2,2023.2.2,Win32,84.74576271,,,,,,,,,,,,,,,,1001.5596,1003.6607,1003.6607,1005.2875,return,0.716,,71.22395833,,,,,,FBP-PT-71.png,0.45,1.2,5,0.5,,,,,,,,,,,,,,,,,,0,27,27,4,1,,,,,,,,,,,,,,,,,,,,,,,
,,,,,V2_008,21,Male,2024-03-01_11h27.12.196,jersey_experiment_5_v2,2023.2.2,Win32,84.74576271,,,,,,,,,,,,,,,,1005.2876,1007.1469,1007.147,1009.9432,return,1.9199,,50.13020833,,,,,,FBP-YG-19.png,0.35,1.2,56,0.25,,,,,,,,,,,,,,,,,,0,28,28,55,1,,,,,,,,,,,,,,,,,,,,,,,
,,,,,V2_008,21,Male,2024-03-01_11h27.12.196,jersey_experiment_5_v2,2023.2.2,Win32,84.74576271,,,,,,,,,,,,,,,,1009.9434,1011.795,1011.795,1013.3551,return,0.3192,,73.95833333,,,,,,FBP-YG-19.png,0.43,1.2,59,0.25,,,,,,,,,,,,,,,,,,0,29,29,58,1,,,,,,,,,,,,,,,,,,,,,,,
,,,,,V2_008,21,Male,2024-03-01_11h27.12.196,jersey_experiment_5_v2,2023.2.2,Win32,84.74576271,,,,,,,,,,,,,,,,1013.3553,1015.4491,1015.4492,1016.8879,return,0.3058,,71.74479167,,,,,,FBP-PT-81.png,0.4,1.2,8,0.5,,,,,,,,,,,,,,,,,,0,30,30,7,1,,,,,,,,,,,,,,,,,,,,,,,
,,,,,V2_008,21,Male,2024-03-01_11h27.12.196,jersey_experiment_5_v2,2023.2.2,Win32,84.74576271,,,,,,,,,,,,,,,,1016.8881,1019.0023,1019.0024,1020.2259,return,0.477,,73.4375,,,,,,FBP-PT-81.png,0.45,1.2,10,0.5,,,,,,,,,,,,,,,,,,0,31,31,9,1,,,,,,,,,,,,,,,,,,,,,,,
,,,,,V2_008,21,Male,2024-03-01_11h27.12.196,jersey_experiment_5_v2,2023.2.2,Win32,84.74576271,,,,,,,,,,,,,,,,1020.226,1022.0847,1022.0847,1025.4614,return,1.9808,,72.78645833,,,,,,FBP-OG-81.png,0.37,1.2,22,0.25,,,,,,,,,,,,,,,,,,0,32,32,21,1,,,,,,,,,,,,,,,,,,,,,,,
,,,,,V2_008,21,Male,2024-03-01_11h27.12.196,jersey_experiment_5_v2,2023.2.2,Win32,84.74576271,,,,,,,,,,,,,,,,1025.4616,1027.3249,1027.325,1029.1909,return,0.5554,,73.828125,,,,,,FBP-YG-19.png,0.4,1.2,58,0.25,,,,,,,,,,,,,,,,,,0,33,33,57,1,,,,,,,,,,,,,,,,,,,,,,,
,,,,,V2_008,21,Male,2024-03-01_11h27.12.196,jersey_experiment_5_v2,2023.2.2,Win32,84.74576271,,,,,,,,,,,,,,,,1029.1911,1031.0497,1031.0498,1034.7606,return,2.5313,,83.07291667,,,,,,FBP-RB-91.png,0.43,1.2,44,0.25,,,,,,,,,,,,,,,,,,0,34,34,43,1,,,,,,,,,,,,,,,,,,,,,,,
,,,,,V2_008,21,Male,2024-03-01_11h27.12.196,jersey_experiment_5_v2,2023.2.2,Win32,84.74576271,,,,,,,,,,,,,,,,1034.7607,1036.6061,1036.6061,1039.4148,return,1.1795,,69.01041667,,,,,,FBP-OG-91.png,0.4,1.2,28,0.25,,,,,,,,,,,,,,,,,,0,35,35,27,1,,,,,,,,,,,,,,,,,,,,,,,
,,,,,V2_008,21,Male,2024-03-01_11h27.12.196,jersey_experiment_5_v2,2023.2.2,Win32,84.74576271,,,,,,,,,,,,,,,,1039.415,1041.2736,1041.2737,1042.0385,return,0.2036,,69.01041667,,,,,,FBP-OG-81.png,0.4,1.2,23,0.25,,,,,,,,,,,,,,,,,,0,36,36,22,1,,,,,,,,,,,,,,,,,,,,,,,
,,,,,V2_008,21,Male,2024-03-01_11h27.12.196,jersey_experiment_5_v2,2023.2.2,Win32,84.74576271,,,,,,,,,,,,,,,,1042.0387,1044.1446,1044.1446,1045.2033,return,0.2177,,70.05208333,,,,,,FBP-PT-81.png,0.37,1.2,7,0.5,,,,,,,,,,,,,,,,,,0,37,37,6,1,,,,,,,,,,,,,,,,,,,,,,,
,,,,,V2_008,21,Male,2024-03-01_11h27.12.196,jersey_experiment_5_v2,2023.2.2,Win32,84.74576271,,,,,,,,,,,,,,,,1045.2034,1047.2974,1047.2975,1047.8151,return,0.1773,,70.05208333,,,,,,FBP-PT-71.png,0.37,1.2,2,0.5,,,,,,,,,,,,,,,,,,0,38,38,1,1,,,,,,,,,,,,,,,,,,,,,,,
,,,,,V2_008,21,Male,2024-03-01_11h27.12.196,jersey_experiment_5_v2,2023.2.2,Win32,84.74576271,,,,,,,,,,,,,,,,1047.8153,1049.6739,1049.674,1050.3845,return,0.2248,,71.35416667,,,,,,FBP-RB-71.png,0.37,1.2,32,0.25,,,,,,,,,,,,,,,,,,0,39,39,31,1,,,,,,,,,,,,,,,,,,,,,,,
,,,,,V2_008,21,Male,2024-03-01_11h27.12.196,jersey_experiment_5_v2,2023.2.2,Win32,84.74576271,,,,,,,,,,,,,,,,1050.3847,1052.2303,1052.2303,1053.3565,return,0.884,,72.52604167,,,,,,FBP-RB-71.png,0.45,1.2,35,0.25,,,,,,,,,,,,,,,,,,0,40,40,34,1,,,,,,,,,,,,,,,,,,,,,,,
,,,,,V2_008,21,Male,2024-03-01_11h27.12.196,jersey_experiment_5_v2,2023.2.2,Win32,84.74576271,,,,,,,,,,,,,,,,1053.3566,1055.2154,1055.2155,1056.2743,return,0.1706,,75.65104167,,,,,,FBP-YG-17.png,0.45,1.2,50,0.25,,,,,,,,,,,,,,,,,,0,41,41,49,1,,,,,,,,,,,,,,,,,,,,,,,
,,,,,V2_008,21,Male,2024-03-01_11h27.12.196,jersey_experiment_5_v2,2023.2.2,Win32,84.74576271,,,,,,,,,,,,,,,,1056.2744,1058.1331,1058.1331,1059.1851,return,0.2588,,75.65104167,,,,,,FBP-RB-81.png,0.45,1.2,40,0.25,,,,,,,,,,,,,,,,,,0,42,42,39,1,,,,,,,,,,,,,,,,,,,,,,,
,,,,,V2_008,21,Male,2024-03-01_11h27.12.196,jersey_experiment_5_v2,2023.2.2,Win32,84.74576271,,,,,,,,,,,,,,,,1059.1852,1061.0274,1061.0274,1061.6425,return,0.2221,,74.609375,,,,,,FBP-RB-71.png,0.43,1.2,34,0.25,,,,,,,,,,,,,,,,,,0,43,43,33,1,,,,,,,,,,,,,,,,,,,,,,,
,,,,,V2_008,21,Male,2024-03-01_11h27.12.196,jersey_experiment_5_v2,2023.2.2,Win32,84.74576271,,,,,,,,,,,,,,,,1061.6427,1063.4907,1063.4908,1065.0628,return,0.4497,,72.65625,,,,,,FBP-OG-71.png,0.4,1.2,18,0.25,,,,,,,,,,,,,,,,,,0,44,44,17,1,,,,,,,,,,,,,,,,,,,,,,,
,,,,,V2_008,21,Male,2024-03-01_11h27.12.196,jersey_experiment_5_v2,2023.2.2,Win32,84.74576271,,,,,,,,,,,,,,,,1065.063,1067.1687,1067.1687,1067.8276,return,0.0282,,73.17708333,,,,,,FBP-PT-71.png,0.4,1.2,3,0.5,,,,,,,,,,,,,,,,,,0,45,45,2,1,,,,,,,,,,,,,,,,,,,,,,,
,,,,,V2_008,21,Male,2024-03-01_11h27.12.196,jersey_experiment_5_v2,2023.2.2,Win32,84.74576271,,,,,,,,,,,,,,,,1067.8278,1069.6747,1069.6747,1070.2629,return,0.1672,,74.47916667,,,,,,FBP-RB-91.png,0.4,1.2,43,0.25,,,,,,,,,,,,,,,,,,0,46,46,42,1,,,,,,,,,,,,,,,,,,,,,,,
,,,,,V2_008,21,Male,2024-03-01_11h27.12.196,jersey_experiment_5_v2,2023.2.2,Win32,84.74576271,,,,,,,,,,,,,,,,1070.2632,1072.1264,1072.1264,1072.7021,return,0.2592,,74.47916667,,,,,,FBP-YG-17.png,0.35,1.2,46,0.25,,,,,,,,,,,,,,,,,,0,47,47,45,1,,,,,,,,,,,,,,,,,,,,,,,
,,,,,V2_008,21,Male,2024-03-01_11h27.12.196,jersey_experiment_5_v2,2023.2.2,Win32,84.74576271,,,,,,,,,,,,,,,,1072.7022,1074.5503,1074.5504,1075.2431,return,0.2224,,74.47916667,,,,,,FBP-RB-81.png,0.43,1.2,39,0.25,,,,,,,,,,,,,,,,,,0,48,48,38,1,,,,,,,,,,,,,,,,,,,,,,,
,,,,,V2_008,21,Male,2024-03-01_11h27.12.196,jersey_experiment_5_v2,2023.2.2,Win32,84.74576271,,,,,,,,,,,,,,,,1075.2433,1077.3499,1077.3499,1078.1339,return,0.2609,,74.47916667,,,,,,FBP-PT-71.png,0.43,1.2,4,0.5,,,,,,,,,,,,,,,,,,0,49,49,3,1,,,,,,,,,,,,,,,,,,,,,,,
,,,,,V2_008,21,Male,2024-03-01_11h27.12.196,jersey_experiment_5_v2,2023.2.2,Win32,84.74576271,,,,,,,,,,,,,,,,1078.1341,1079.9928,1079.9928,1080.9811,return,0.2148,,74.47916667,,,,,,FBP-RB-91.png,0.35,1.2,41,0.25,,,,,,,,,,,,,,,,,,0,50,50,40,1,,,,,,,,,,,,,,,,,,,,,,,
,,,,,V2_008,21,Male,2024-03-01_11h27.12.196,jersey_experiment_5_v2,2023.2.2,Win32,84.74576271,,,,,,,,,,,,,,,,1080.9813,1083.0753,1083.0753,1084.9693,return,1.3645,,72.265625,,,,,,FBP-PT-91.png,0.35,1.2,11,0.5,,,,,,,,,,,,,,,,,,0,51,51,10,1,,,,,,,,,,,,,,,,,,,,,,,
,,,,,V2_008,21,Male,2024-03-01_11h27.12.196,jersey_experiment_5_v2,2023.2.2,Win32,84.74576271,,,,,,,,,,,,,,,,1084.9695,1086.8283,1086.8283,1089.2989,return,0.299,,75,,,,,,FBP-OG-91.png,0.35,1.2,26,0.25,,,,,,,,,,,,,,,,,,0,52,52,25,1,,,,,,,,,,,,,,,,,,,,,,,
,,,,,V2_008,21,Male,2024-03-01_11h27.12.196,jersey_experiment_5_v2,2023.2.2,Win32,84.74576271,,,,,,,,,,,,,,,,1089.2991,1091.1497,1091.1497,1092.4519,return,0.4629,,77.21354167,,,,,,FBP-OG-81.png,0.43,1.2,24,0.25,,,,,,,,,,,,,,,,,,0,53,53,23,1,,,,,,,,,,,,,,,,,,,,,,,
,,,,,V2_008,21,Male,2024-03-01_11h27.12.196,jersey_experiment_5_v2,2023.2.2,Win32,84.74576271,,,,,,,,,,,,,,,,1092.4521,1094.2992,1094.2993,1095.8639,return,0.271,,74.73958333,,,,,,FBP-OG-81.png,0.35,1.2,21,0.25,,,,,,,,,,,,,,,,,,0,54,54,20,1,,,,,,,,,,,,,,,,,,,,,,,
,,,,,V2_008,21,Male,2024-03-01_11h27.12.196,jersey_experiment_5_v2,2023.2.2,Win32,84.74576271,,,,,,,,,,,,,,,,1095.8641,1097.7111,1097.7111,1103.0759,return,2.427,,72.13541667,,,,,,FBP-YG-19.png,0.37,1.2,57,0.25,,,,,,,,,,,,,,,,,,0,55,55,56,1,,,,,,,,,,,,,,,,,,,,,,,
,,,,,V2_008,21,Male,2024-03-01_11h27.12.196,jersey_experiment_5_v2,2023.2.2,Win32,84.74576271,,,,,,,,,,,,,,,,1103.0761,1104.9276,1104.9277,1106.3397,return,0.1412,,57.16145833,,,,,,FBP-OG-71.png,0.37,1.2,17,0.25,,,,,,,,,,,,,,,,,,0,56,56,16,1,,,,,,,,,,,,,,,,,,,,,,,
,,,,,V2_008,21,Male,2024-03-01_11h27.12.196,jersey_experiment_5_v2,2023.2.2,Win32,84.74576271,,,,,,,,,,,,,,,,1106.3399,1108.1853,1108.1853,1109.2811,return,0.2357,,74.609375,,,,,,FBP-RB-71.png,0.4,1.2,33,0.25,,,,,,,,,,,,,,,,,,0,57,57,32,1,,,,,,,,,,,,,,,,,,,,,,,
,,,,,V2_008,21,Male,2024-03-01_11h27.12.196,jersey_experiment_5_v2,2023.2.2,Win32,84.74576271,,,,,,,,,,,,,,,,1109.2812,1111.1233,1111.1234,1112.4998,return,0.3925,,75.390625,,,,,,FBP-RB-81.png,0.37,1.2,37,0.25,,,,,,,,,,,,,,,,,,0,58,58,36,1,,,,,,,,,,,,,,,,,,,,,,,
,,,,,V2_008,21,Male,2024-03-01_11h27.12.196,jersey_experiment_5_v2,2023.2.2,Win32,84.74576271,,,,,,,,,,,,,,,,1112.4999,1114.6058,1114.6058,1119.0648,return,2.7639,,69.40104167,,,,,,FBP-PT-71.png,0.35,1.2,1,0.5,,,,,,,,,,,,,,,,,,0,59,59,0,1,,,,,,,,,,,,,,,,,,,,,,,
,,,,,V2_008,21,Male,2024-03-01_11h27.12.196,jersey_experiment_5_v2,2023.2.2,Win32,84.74576271,,,,,,,,,,,,,,,,,,,,,,,,,,,,,,,,,,,,,,,,,,,,,,,,,,,,,,,,1119.0651,1124.4888,return,5.4013,,,,,,,,,,,,,,,,,,,
,,,,,V2_008,21,Male,2024-03-01_11h27.12.196,jersey_experiment_5_v2,2023.2.2,Win32,84.74576271,,,,,,,,,,,,,,,,,,,,,,,,,,,,,,,,,,,,,,,,,,,,,,,,,,,,,,,,,,,,,1124.4889,1130.3884,1,3.2837,return,2.589,,,,,,,,,,,,
,,,,,V2_008,21,Male,2024-03-01_11h27.12.196,jersey_experiment_5_v2,2023.2.2,Win32,84.74576271,,,,,,,,,,,,,,,,,,,,,,,,,,,,,,,,,,,,,,,,,,,,,,,,,,,,,,,,,,,,,,,,,,,,1130.3924,1234.7494,I have no idea what the study was about. I thought I recognized a pattern where the same individual was presented with different colored shirts or skin tone.,right,93.2869,,,,,,
,,,,,V2_008,21,Male,2024-03-01_11h27.12.196,jersey_experiment_5_v2,2023.2.2,Win32,84.74576271,,,,,,,,,,,,,,,,,,,,,,,,,,,,,,,,,,,,,,,,,,,,,,,,,,,,,,,,,,,,,,,,,,,,,,,,,,1234.7494,1239.5871,return,4.8303,