requirements.started,requirements.stopped,key_resp_3.keys,key_resp_3.rt,key_resp_3.duration,Subject ID,Age,Gender,date,expName,psychopyVersion,OS,frameRate,instructions1.started,instructions1.stopped,key_resp.keys,key_resp.rt,key_resp.duration,example.started,example.stopped,enter_2.keys,enter_2.rt,enter_2.duration,instructions2.started,instructions2.stopped,enter_3.keys,enter_3.rt,enter_3.duration,image.started,image.stopped,slider_2.started,slider_2.stopped,next.keys,next.rt,next.duration,slider.response,trial_block_1.thisRepN,trial_block_1.thisTrialN,trial_block_1.thisN,trial_block_1.thisIndex,trial_block_1.ran,Path,Width,Height,Index,Duration,trial_block_2.thisRepN,trial_block_2.thisTrialN,trial_block_2.thisN,trial_block_2.thisIndex,trial_block_2.ran,rest_break.started,rest_break.stopped,end_break.started,end_break.stopped,key_resp_5.keys,key_resp_5.rt,key_resp_5.duration,trial_block_3.thisRepN,trial_block_3.thisTrialN,trial_block_3.thisN,trial_block_3.thisIndex,trial_block_3.ran,trial_block_4.thisRepN,trial_block_4.thisTrialN,trial_block_4.thisN,trial_block_4.thisIndex,trial_block_4.ran,questions_intro.started,questions_intro.stopped,enter_12.keys,enter_12.rt,enter_12.duration,question2.started,question2.stopped,question_doingbest.response,question_doingbest.rt,enter_15.keys,enter_15.rt,enter_15.duration,pattern.started,pattern.stopped,pattern_2.text,enter_17.keys,enter_17.rt,enter_17.duration,thankyou.started,thankyou.stopped,enter_14.keys,enter_14.rt,enter_14.duration
0.0001,10.8442,return,10.8344,,V2_009,18,Female,2024-03-01_12h35.04.051,jersey_experiment_5_v2,2023.2.2,Win32,85.47008547,,,,,,,,,,,,,,,,,,,,,,,,,,,,,,,,,,,,,,,,,,,,,,,,,,,,,,,,,,,,,,,,,,,,,,,,,,,,,,
,,,,,V2_009,18,Female,2024-03-01_12h35.04.051,jersey_experiment_5_v2,2023.2.2,Win32,85.47008547,10.8444,28.6496,return,17.7888,,,,,,,,,,,,,,,,,,,,,,,,,,,,,,,,,,,,,,,,,,,,,,,,,,,,,,,,,,,,,,,,,,,,,,,,,,
,,,,,V2_009,18,Female,2024-03-01_12h35.04.051,jersey_experiment_5_v2,2023.2.2,Win32,85.47008547,,,,,,28.6497,34.9039,return,6.2185,,,,,,,,,,,,,,,,,,,,,,,,,,,,,,,,,,,,,,,,,,,,,,,,,,,,,,,,,,,,,,,,,,,,,
,,,,,V2_009,18,Female,2024-03-01_12h35.04.051,jersey_experiment_5_v2,2023.2.2,Win32,85.47008547,,,,,,,,,,,34.904,61.6578,return,26.7429,,,,,,,,,,,,,,,,,,,,,,,,,,,,,,,,,,,,,,,,,,,,,,,,,,,,,,,,,,,,,,,,
,,,,,V2_009,18,Female,2024-03-01_12h35.04.051,jersey_experiment_5_v2,2023.2.2,Win32,85.47008547,,,,,,,,,,,,,,,,61.6645,63.5164,63.5164,95.4705,return,4.6594,,29.94791667,0,0,0,3,1,FBP-PT-17.png,0.43,1.2,4,0.25,,,,,,,,,,,,,,,,,,,,,,,,,,,,,,,,,,,,,,,,,,,,,
,,,,,V2_009,18,Female,2024-03-01_12h35.04.051,jersey_experiment_5_v2,2023.2.2,Win32,85.47008547,,,,,,,,,,,,,,,,95.475,97.5765,97.5765,103.5297,return,2.0496,,24.73958333,0,1,1,42,1,FBP-RB-19.png,0.4,1.2,43,0.5,,,,,,,,,,,,,,,,,,,,,,,,,,,,,,,,,,,,,,,,,,,,,
,,,,,V2_009,18,Female,2024-03-01_12h35.04.051,jersey_experiment_5_v2,2023.2.2,Win32,85.47008547,,,,,,,,,,,,,,,,103.5299,105.6239,105.624,110.9182,return,2.2873,,75,0,2,2,34,1,FBP-RB-17.png,0.45,1.2,35,0.5,,,,,,,,,,,,,,,,,,,,,,,,,,,,,,,,,,,,,,,,,,,,,
,,,,,V2_009,18,Female,2024-03-01_12h35.04.051,jersey_experiment_5_v2,2023.2.2,Win32,85.47008547,,,,,,,,,,,,,,,,110.9183,113.0124,113.0124,121.0362,return,5.5538,,75.390625,0,3,3,44,1,FBP-RB-19.png,0.45,1.2,45,0.5,,,,,,,,,,,,,,,,,,,,,,,,,,,,,,,,,,,,,,,,,,,,,
,,,,,V2_009,18,Female,2024-03-01_12h35.04.051,jersey_experiment_5_v2,2023.2.2,Win32,85.47008547,,,,,,,,,,,,,,,,121.0407,123.142,123.1421,128.8953,return,1.7551,,9.505208333,0,4,4,15,1,FBP-OG-17.png,0.35,1.2,16,0.5,,,,,,,,,,,,,,,,,,,,,,,,,,,,,,,,,,,,,,,,,,,,,
,,,,,V2_009,18,Female,2024-03-01_12h35.04.051,jersey_experiment_5_v2,2023.2.2,Win32,85.47008547,,,,,,,,,,,,,,,,128.8955,131.0012,131.0012,139.7899,return,2.5876,,4.557291667,0,5,5,20,1,FBP-OG-18.png,0.35,1.2,21,0.5,,,,,,,,,,,,,,,,,,,,,,,,,,,,,,,,,,,,,,,,,,,,,
,,,,,V2_009,18,Female,2024-03-01_12h35.04.051,jersey_experiment_5_v2,2023.2.2,Win32,85.47008547,,,,,,,,,,,,,,,,139.7941,141.6487,141.6487,150.2138,return,5.5491,,75.13020833,0,6,6,12,1,FBP-PT-19.png,0.4,1.2,13,0.25,,,,,,,,,,,,,,,,,,,,,,,,,,,,,,,,,,,,,,,,,,,,,
,,,,,V2_009,18,Female,2024-03-01_12h35.04.051,jersey_experiment_5_v2,2023.2.2,Win32,85.47008547,,,,,,,,,,,,,,,,150.218,152.3314,152.3315,157.4964,return,3.0273,,24.86979167,0,7,7,40,1,FBP-RB-19.png,0.35,1.2,41,0.5,,,,,,,,,,,,,,,,,,,,,,,,,,,,,,,,,,,,,,,,,,,,,
,,,,,V2_009,18,Female,2024-03-01_12h35.04.051,jersey_experiment_5_v2,2023.2.2,Win32,85.47008547,,,,,,,,,,,,,,,,157.5006,159.6139,159.6139,171.038,return,1.413,,87.5,0,8,8,39,1,FBP-RB-18.png,0.45,1.2,40,0.5,,,,,,,,,,,,,,,,,,,,,,,,,,,,,,,,,,,,,,,,,,,,,
,,,,,V2_009,18,Female,2024-03-01_12h35.04.051,jersey_experiment_5_v2,2023.2.2,Win32,85.47008547,,,,,,,,,,,,,,,,171.0382,173.144,173.144,178.2383,return,2.8381,,25,0,9,9,56,1,FBP-YG-91.png,0.37,1.2,57,0.5,,,,,,,,,,,,,,,,,,,,,,,,,,,,,,,,,,,,,,,,,,,,,
,,,,,V2_009,18,Female,2024-03-01_12h35.04.051,jersey_experiment_5_v2,2023.2.2,Win32,85.47008547,,,,,,,,,,,,,,,,178.2386,180.3324,180.3325,190.0858,return,1.1708,,61.58854167,0,10,10,23,1,FBP-OG-18.png,0.43,1.2,24,0.5,,,,,,,,,,,,,,,,,,,,,,,,,,,,,,,,,,,,,,,,,,,,,
,,,,,V2_009,18,Female,2024-03-01_12h35.04.051,jersey_experiment_5_v2,2023.2.2,Win32,85.47008547,,,,,,,,,,,,,,,,190.086,192.1799,192.18,196.8389,return,2.0871,,24.86979167,0,11,11,55,1,FBP-YG-91.png,0.35,1.2,56,0.5,,,,,,,,,,,,,,,,,,,,,,,,,,,,,,,,,,,,,,,,,,,,,
,,,,,V2_009,18,Female,2024-03-01_12h35.04.051,jersey_experiment_5_v2,2023.2.2,Win32,85.47008547,,,,,,,,,,,,,,,,196.8391,198.9331,198.9332,201.7332,return,1.9472,,25,0,12,12,51,1,FBP-YG-81.png,0.37,1.2,52,0.5,,,,,,,,,,,,,,,,,,,,,,,,,,,,,,,,,,,,,,,,,,,,,
,,,,,V2_009,18,Female,2024-03-01_12h35.04.051,jersey_experiment_5_v2,2023.2.2,Win32,85.47008547,,,,,,,,,,,,,,,,201.7334,203.8274,203.8275,209.3217,return,0.989,,75,0,13,13,17,1,FBP-OG-17.png,0.4,1.2,18,0.5,,,,,,,,,,,,,,,,,,,,,,,,,,,,,,,,,,,,,,,,,,,,,
,,,,,V2_009,18,Female,2024-03-01_12h35.04.051,jersey_experiment_5_v2,2023.2.2,Win32,85.47008547,,,,,,,,,,,,,,,,209.322,211.4159,211.416,214.875,return,1.2713,,36.84895833,0,14,14,26,1,FBP-OG-19.png,0.37,1.2,27,0.5,,,,,,,,,,,,,,,,,,,,,,,,,,,,,,,,,,,,,,,,,,,,,
,,,,,V2_009,18,Female,2024-03-01_12h35.04.051,jersey_experiment_5_v2,2023.2.2,Win32,85.47008547,,,,,,,,,,,,,,,,214.8752,216.9809,216.9809,222.181,return,1.2893,,82.29166667,0,15,15,38,1,FBP-RB-18.png,0.43,1.2,39,0.5,,,,,,,,,,,,,,,,,,,,,,,,,,,,,,,,,,,,,,,,,,,,,
,,,,,V2_009,18,Female,2024-03-01_12h35.04.051,jersey_experiment_5_v2,2023.2.2,Win32,85.47008547,,,,,,,,,,,,,,,,222.1811,224.2752,224.2753,227.0989,return,1.179,,24.86979167,0,16,16,50,1,FBP-YG-81.png,0.35,1.2,51,0.5,,,,,,,,,,,,,,,,,,,,,,,,,,,,,,,,,,,,,,,,,,,,,
,,,,,V2_009,18,Female,2024-03-01_12h35.04.051,jersey_experiment_5_v2,2023.2.2,Win32,85.47008547,,,,,,,,,,,,,,,,227.0991,229.1931,229.1931,235.2639,return,1.0695,,87.76041667,0,17,17,49,1,FBP-YG-71.png,0.45,1.2,50,0.5,,,,,,,,,,,,,,,,,,,,,,,,,,,,,,,,,,,,,,,,,,,,,
,,,,,V2_009,18,Female,2024-03-01_12h35.04.051,jersey_experiment_5_v2,2023.2.2,Win32,85.47008547,,,,,,,,,,,,,,,,235.264,237.3581,237.3581,241.5583,return,1.266,,75,0,18,18,27,1,FBP-OG-19.png,0.4,1.2,28,0.5,,,,,,,,,,,,,,,,,,,,,,,,,,,,,,,,,,,,,,,,,,,,,
,,,,,V2_009,18,Female,2024-03-01_12h35.04.051,jersey_experiment_5_v2,2023.2.2,Win32,85.47008547,,,,,,,,,,,,,,,,241.5586,243.4054,243.4054,246.9349,return,1.1825,,36.71875,0,19,19,1,1,FBP-PT-17.png,0.37,1.2,2,0.25,,,,,,,,,,,,,,,,,,,,,,,,,,,,,,,,,,,,,,,,,,,,,
,,,,,V2_009,18,Female,2024-03-01_12h35.04.051,jersey_experiment_5_v2,2023.2.2,Win32,85.47008547,,,,,,,,,,,,,,,,246.9352,249.0409,249.041,252.041,return,2.2029,,36.71875,0,20,20,25,1,FBP-OG-19.png,0.35,1.2,26,0.5,,,,,,,,,,,,,,,,,,,,,,,,,,,,,,,,,,,,,,,,,,,,,
,,,,,V2_009,18,Female,2024-03-01_12h35.04.051,jersey_experiment_5_v2,2023.2.2,Win32,85.47008547,,,,,,,,,,,,,,,,252.0412,254.1351,254.1352,263.112,return,7.4057,,37.109375,0,21,21,41,1,FBP-RB-19.png,0.37,1.2,42,0.5,,,,,,,,,,,,,,,,,,,,,,,,,,,,,,,,,,,,,,,,,,,,,
,,,,,V2_009,18,Female,2024-03-01_12h35.04.051,jersey_experiment_5_v2,2023.2.2,Win32,85.47008547,,,,,,,,,,,,,,,,263.1168,265.2179,265.2179,272.1004,return,3.2443,,36.84895833,0,22,22,35,1,FBP-RB-18.png,0.35,1.2,36,0.5,,,,,,,,,,,,,,,,,,,,,,,,,,,,,,,,,,,,,,,,,,,,,
,,,,,V2_009,18,Female,2024-03-01_12h35.04.051,jersey_experiment_5_v2,2023.2.2,Win32,85.47008547,,,,,,,,,,,,,,,,272.1007,274.2064,274.2066,280.9597,return,1.1638,,91.53645833,0,23,23,48,1,FBP-YG-71.png,0.43,1.2,49,0.5,,,,,,,,,,,,,,,,,,,,,,,,,,,,,,,,,,,,,,,,,,,,,
,,,,,V2_009,18,Female,2024-03-01_12h35.04.051,jersey_experiment_5_v2,2023.2.2,Win32,85.47008547,,,,,,,,,,,,,,,,280.9599,283.0538,283.0539,286.5599,return,2.1412,,92.31770833,0,24,24,19,1,FBP-OG-17.png,0.45,1.2,20,0.5,,,,,,,,,,,,,,,,,,,,,,,,,,,,,,,,,,,,,,,,,,,,,
,,,,,V2_009,18,Female,2024-03-01_12h35.04.051,jersey_experiment_5_v2,2023.2.2,Win32,85.47008547,,,,,,,,,,,,,,,,286.5601,288.6541,288.6541,299.6545,return,9.6294,,12.23958333,0,25,25,30,1,FBP-RB-17.png,0.35,1.2,31,0.5,,,,,,,,,,,,,,,,,,,,,,,,,,,,,,,,,,,,,,,,,,,,,
,,,,,V2_009,18,Female,2024-03-01_12h35.04.051,jersey_experiment_5_v2,2023.2.2,Win32,85.47008547,,,,,,,,,,,,,,,,299.6548,301.7488,301.7488,306.843,return,1.2355,,24.86979167,0,26,26,21,1,FBP-OG-18.png,0.37,1.2,22,0.5,,,,,,,,,,,,,,,,,,,,,,,,,,,,,,,,,,,,,,,,,,,,,
,,,,,V2_009,18,Female,2024-03-01_12h35.04.051,jersey_experiment_5_v2,2023.2.2,Win32,85.47008547,,,,,,,,,,,,,,,,306.8432,308.9371,308.9372,311.4784,return,0.8645,,75,0,27,27,53,1,FBP-YG-81.png,0.43,1.2,54,0.5,,,,,,,,,,,,,,,,,,,,,,,,,,,,,,,,,,,,,,,,,,,,,
,,,,,V2_009,18,Female,2024-03-01_12h35.04.051,jersey_experiment_5_v2,2023.2.2,Win32,85.47008547,,,,,,,,,,,,,,,,311.4787,313.3257,313.3257,318.5023,return,2.1472,,86.45833333,0,28,28,9,1,FBP-PT-18.png,0.45,1.2,10,0.25,,,,,,,,,,,,,,,,,,,,,,,,,,,,,,,,,,,,,,,,,,,,,
,,,,,V2_009,18,Female,2024-03-01_12h35.04.051,jersey_experiment_5_v2,2023.2.2,Win32,85.47008547,,,,,,,,,,,,,,,,318.5025,320.6082,320.6083,325.1261,return,3.147,,74.86979167,0,29,29,22,1,FBP-OG-18.png,0.4,1.2,23,0.5,,,,,,,,,,,,,,,,,,,,,,,,,,,,,,,,,,,,,,,,,,,,,
,,,,,V2_009,18,Female,2024-03-01_12h35.04.051,jersey_experiment_5_v2,2023.2.2,Win32,85.47008547,,,,,,,,,,,,,,,,325.1261,327.2202,327.2202,342.9267,return,13.8497,,69.27083333,0,30,30,47,1,FBP-YG-71.png,0.4,1.2,48,0.5,,,,,,,,,,,,,,,,,,,,,,,,,,,,,,,,,,,,,,,,,,,,,
,,,,,V2_009,18,Female,2024-03-01_12h35.04.051,jersey_experiment_5_v2,2023.2.2,Win32,85.47008547,,,,,,,,,,,,,,,,342.9269,345.0208,345.0209,347.9269,return,1.4886,,74.73958333,0,31,31,58,1,FBP-YG-91.png,0.43,1.2,59,0.5,,,,,,,,,,,,,,,,,,,,,,,,,,,,,,,,,,,,,,,,,,,,,
,,,,,V2_009,18,Female,2024-03-01_12h35.04.051,jersey_experiment_5_v2,2023.2.2,Win32,85.47008547,,,,,,,,,,,,,,,,347.9271,349.7858,349.7858,353.7272,return,1.6131,,49.86979167,0,32,32,6,1,FBP-PT-18.png,0.37,1.2,7,0.25,,,,,,,,,,,,,,,,,,,,,,,,,,,,,,,,,,,,,,,,,,,,,
,,,,,V2_009,18,Female,2024-03-01_12h35.04.051,jersey_experiment_5_v2,2023.2.2,Win32,85.47008547,,,,,,,,,,,,,,,,353.7273,355.5742,355.5742,364.4098,return,2.0958,,61.84895833,0,33,33,7,1,FBP-PT-18.png,0.4,1.2,8,0.25,,,,,,,,,,,,,,,,,,,,,,,,,,,,,,,,,,,,,,,,,,,,,
,,,,,V2_009,18,Female,2024-03-01_12h35.04.051,jersey_experiment_5_v2,2023.2.2,Win32,85.47008547,,,,,,,,,,,,,,,,364.4101,366.504,366.5041,382.987,return,2.7894,,37.109375,0,34,34,36,1,FBP-RB-18.png,0.37,1.2,37,0.5,,,,,,,,,,,,,,,,,,,,,,,,,,,,,,,,,,,,,,,,,,,,,
,,,,,V2_009,18,Female,2024-03-01_12h35.04.051,jersey_experiment_5_v2,2023.2.2,Win32,85.47008547,,,,,,,,,,,,,,,,382.9873,384.8459,384.8459,388.4108,return,1.1437,,75,0,35,35,2,1,FBP-PT-17.png,0.4,1.2,3,0.25,,,,,,,,,,,,,,,,,,,,,,,,,,,,,,,,,,,,,,,,,,,,,
,,,,,V2_009,18,Female,2024-03-01_12h35.04.051,jersey_experiment_5_v2,2023.2.2,Win32,85.47008547,,,,,,,,,,,,,,,,388.4111,390.5166,390.5167,392.9522,return,0.9679,,75,0,36,36,37,1,FBP-RB-18.png,0.4,1.2,38,0.5,,,,,,,,,,,,,,,,,,,,,,,,,,,,,,,,,,,,,,,,,,,,,
,,,,,V2_009,18,Female,2024-03-01_12h35.04.051,jersey_experiment_5_v2,2023.2.2,Win32,85.47008547,,,,,,,,,,,,,,,,392.9523,395.0463,395.0463,400.3405,return,3.3383,,81.51041667,0,37,37,18,1,FBP-OG-17.png,0.43,1.2,19,0.5,,,,,,,,,,,,,,,,,,,,,,,,,,,,,,,,,,,,,,,,,,,,,
,,,,,V2_009,18,Female,2024-03-01_12h35.04.051,jersey_experiment_5_v2,2023.2.2,Win32,85.47008547,,,,,,,,,,,,,,,,400.3407,402.1995,402.1995,405.3172,return,1.4198,,87.890625,0,38,38,14,1,FBP-PT-19.png,0.45,1.2,15,0.25,,,,,,,,,,,,,,,,,,,,,,,,,,,,,,,,,,,,,,,,,,,,,
,,,,,V2_009,18,Female,2024-03-01_12h35.04.051,jersey_experiment_5_v2,2023.2.2,Win32,85.47008547,,,,,,,,,,,,,,,,405.3175,407.1644,407.1644,410.7291,return,1.2982,,50,0,39,39,11,1,FBP-PT-19.png,0.37,1.2,12,0.25,,,,,,,,,,,,,,,,,,,,,,,,,,,,,,,,,,,,,,,,,,,,,
,,,,,V2_009,18,Female,2024-03-01_12h35.04.051,jersey_experiment_5_v2,2023.2.2,Win32,85.47008547,,,,,,,,,,,,,,,,410.7295,412.8233,412.8233,420.5647,return,1.044,,61.97916667,0,40,40,32,1,FBP-RB-17.png,0.4,1.2,33,0.5,,,,,,,,,,,,,,,,,,,,,,,,,,,,,,,,,,,,,,,,,,,,,
,,,,,V2_009,18,Female,2024-03-01_12h35.04.051,jersey_experiment_5_v2,2023.2.2,Win32,85.47008547,,,,,,,,,,,,,,,,420.565,422.6591,422.6591,443.3187,return,16.9347,,94.01041667,0,41,41,24,1,FBP-OG-18.png,0.45,1.2,25,0.5,,,,,,,,,,,,,,,,,,,,,,,,,,,,,,,,,,,,,,,,,,,,,
,,,,,V2_009,18,Female,2024-03-01_12h35.04.051,jersey_experiment_5_v2,2023.2.2,Win32,85.47008547,,,,,,,,,,,,,,,,443.3188,445.1775,445.1775,447.8129,return,1.2788,,93.61979167,0,42,42,4,1,FBP-PT-17.png,0.45,1.2,5,0.25,,,,,,,,,,,,,,,,,,,,,,,,,,,,,,,,,,,,,,,,,,,,,
,,,,,V2_009,18,Female,2024-03-01_12h35.04.051,jersey_experiment_5_v2,2023.2.2,Win32,85.47008547,,,,,,,,,,,,,,,,447.813,449.9071,449.9071,457.625,return,1.3791,,25,0,43,43,16,1,FBP-OG-17.png,0.37,1.2,17,0.5,,,,,,,,,,,,,,,,,,,,,,,,,,,,,,,,,,,,,,,,,,,,,
,,,,,V2_009,18,Female,2024-03-01_12h35.04.051,jersey_experiment_5_v2,2023.2.2,Win32,85.47008547,,,,,,,,,,,,,,,,457.6252,459.7192,459.7192,465.5782,return,1.9559,,25,0,44,44,46,1,FBP-YG-71.png,0.37,1.2,47,0.5,,,,,,,,,,,,,,,,,,,,,,,,,,,,,,,,,,,,,,,,,,,,,
,,,,,V2_009,18,Female,2024-03-01_12h35.04.051,jersey_experiment_5_v2,2023.2.2,Win32,85.47008547,,,,,,,,,,,,,,,,465.5785,467.4254,467.4255,475.2726,return,1.5202,,89.58333333,0,45,45,8,1,FBP-PT-18.png,0.43,1.2,9,0.25,,,,,,,,,,,,,,,,,,,,,,,,,,,,,,,,,,,,,,,,,,,,,
,,,,,V2_009,18,Female,2024-03-01_12h35.04.051,jersey_experiment_5_v2,2023.2.2,Win32,85.47008547,,,,,,,,,,,,,,,,475.2727,477.3669,477.3669,500.0619,return,12.2497,,38.02083333,0,46,46,57,1,FBP-YG-91.png,0.4,1.2,58,0.5,,,,,,,,,,,,,,,,,,,,,,,,,,,,,,,,,,,,,,,,,,,,,
,,,,,V2_009,18,Female,2024-03-01_12h35.04.051,jersey_experiment_5_v2,2023.2.2,Win32,85.47008547,,,,,,,,,,,,,,,,500.0622,502.1678,502.1678,507.5091,return,1.0432,,88.80208333,0,47,47,54,1,FBP-YG-81.png,0.45,1.2,55,0.5,,,,,,,,,,,,,,,,,,,,,,,,,,,,,,,,,,,,,,,,,,,,,
,,,,,V2_009,18,Female,2024-03-01_12h35.04.051,jersey_experiment_5_v2,2023.2.2,Win32,85.47008547,,,,,,,,,,,,,,,,507.5094,509.3564,509.3564,515.3567,return,3.0577,,7.03125,0,48,48,5,1,FBP-PT-18.png,0.35,1.2,6,0.25,,,,,,,,,,,,,,,,,,,,,,,,,,,,,,,,,,,,,,,,,,,,,
,,,,,V2_009,18,Female,2024-03-01_12h35.04.051,jersey_experiment_5_v2,2023.2.2,Win32,85.47008547,,,,,,,,,,,,,,,,515.3568,517.2037,517.2037,529.6395,return,0.9459,,1.171875,0,49,49,10,1,FBP-PT-19.png,0.35,1.2,11,0.25,,,,,,,,,,,,,,,,,,,,,,,,,,,,,,,,,,,,,,,,,,,,,
,,,,,V2_009,18,Female,2024-03-01_12h35.04.051,jersey_experiment_5_v2,2023.2.2,Win32,85.47008547,,,,,,,,,,,,,,,,529.6397,531.7337,531.7337,535.1456,return,1.4038,,75.13020833,0,50,50,28,1,FBP-OG-19.png,0.43,1.2,29,0.5,,,,,,,,,,,,,,,,,,,,,,,,,,,,,,,,,,,,,,,,,,,,,
,,,,,V2_009,18,Female,2024-03-01_12h35.04.051,jersey_experiment_5_v2,2023.2.2,Win32,85.47008547,,,,,,,,,,,,,,,,535.1458,537.2397,537.2398,539.9928,return,1.5691,,83.59375,0,51,51,29,1,FBP-OG-19.png,0.45,1.2,30,0.5,,,,,,,,,,,,,,,,,,,,,,,,,,,,,,,,,,,,,,,,,,,,,
,,,,,V2_009,18,Female,2024-03-01_12h35.04.051,jersey_experiment_5_v2,2023.2.2,Win32,85.47008547,,,,,,,,,,,,,,,,539.9931,542.087,542.087,545.1577,return,1.0431,,74.86979167,0,52,52,43,1,FBP-RB-19.png,0.43,1.2,44,0.5,,,,,,,,,,,,,,,,,,,,,,,,,,,,,,,,,,,,,,,,,,,,,
,,,,,V2_009,18,Female,2024-03-01_12h35.04.051,jersey_experiment_5_v2,2023.2.2,Win32,85.47008547,,,,,,,,,,,,,,,,545.1579,547.2638,547.2639,554.158,return,3.2855,,15.625,0,53,53,45,1,FBP-YG-71.png,0.35,1.2,46,0.5,,,,,,,,,,,,,,,,,,,,,,,,,,,,,,,,,,,,,,,,,,,,,
,,,,,V2_009,18,Female,2024-03-01_12h35.04.051,jersey_experiment_5_v2,2023.2.2,Win32,85.47008547,,,,,,,,,,,,,,,,554.1582,556.264,556.264,562.8407,return,1.2962,,75.13020833,0,54,54,59,1,FBP-YG-91.png,0.45,1.2,60,0.5,,,,,,,,,,,,,,,,,,,,,,,,,,,,,,,,,,,,,,,,,,,,,
,,,,,V2_009,18,Female,2024-03-01_12h35.04.051,jersey_experiment_5_v2,2023.2.2,Win32,85.47008547,,,,,,,,,,,,,,,,562.8409,564.9465,564.9466,567.335,return,1.43,,75.78125,0,55,55,33,1,FBP-RB-17.png,0.43,1.2,34,0.5,,,,,,,,,,,,,,,,,,,,,,,,,,,,,,,,,,,,,,,,,,,,,
,,,,,V2_009,18,Female,2024-03-01_12h35.04.051,jersey_experiment_5_v2,2023.2.2,Win32,85.47008547,,,,,,,,,,,,,,,,567.3352,569.1821,569.1821,575.9117,return,3.1691,,9.895833333,0,56,56,0,1,FBP-PT-17.png,0.35,1.2,1,0.25,,,,,,,,,,,,,,,,,,,,,,,,,,,,,,,,,,,,,,,,,,,,,
,,,,,V2_009,18,Female,2024-03-01_12h35.04.051,jersey_experiment_5_v2,2023.2.2,Win32,85.47008547,,,,,,,,,,,,,,,,575.9119,578.0059,578.0059,581.8178,return,1.5331,,50,0,57,57,52,1,FBP-YG-81.png,0.4,1.2,53,0.5,,,,,,,,,,,,,,,,,,,,,,,,,,,,,,,,,,,,,,,,,,,,,
,,,,,V2_009,18,Female,2024-03-01_12h35.04.051,jersey_experiment_5_v2,2023.2.2,Win32,85.47008547,,,,,,,,,,,,,,,,581.818,583.9238,583.9239,592.583,return,1.2184,,25.65104167,0,58,58,31,1,FBP-RB-17.png,0.37,1.2,32,0.5,,,,,,,,,,,,,,,,,,,,,,,,,,,,,,,,,,,,,,,,,,,,,
,,,,,V2_009,18,Female,2024-03-01_12h35.04.051,jersey_experiment_5_v2,2023.2.2,Win32,85.47008547,,,,,,,,,,,,,,,,592.5833,594.43,594.4301,598.6654,return,1.2143,,75.13020833,0,59,59,13,1,FBP-PT-19.png,0.43,1.2,14,0.25,,,,,,,,,,,,,,,,,,,,,,,,,,,,,,,,,,,,,,,,,,,,,
,,,,,V2_009,18,Female,2024-03-01_12h35.04.051,jersey_experiment_5_v2,2023.2.2,Win32,85.47008547,,,,,,,,,,,,,,,,598.6676,600.7597,600.7597,603.5952,return,0.9088,,25,,,,,,FBP-YG-18.png,0.37,1.2,52,0.5,0,0,0,51,1,,,,,,,,,,,,,,,,,,,,,,,,,,,,,,,,,,,,,,,,
,,,,,V2_009,18,Female,2024-03-01_12h35.04.051,jersey_experiment_5_v2,2023.2.2,Win32,85.47008547,,,,,,,,,,,,,,,,603.5954,605.7009,605.701,608.7483,return,0.8941,,56.25,,,,,,FBP-OG-91.png,0.4,1.2,28,0.5,0,1,1,27,1,,,,,,,,,,,,,,,,,,,,,,,,,,,,,,,,,,,,,,,,
,,,,,V2_009,18,Female,2024-03-01_12h35.04.051,jersey_experiment_5_v2,2023.2.2,Win32,85.47008547,,,,,,,,,,,,,,,,608.7485,610.8426,610.8427,612.666,return,0.6718,,75,,,,,,FBP-OG-81.png,0.43,1.2,24,0.5,0,2,2,23,1,,,,,,,,,,,,,,,,,,,,,,,,,,,,,,,,,,,,,,,,
,,,,,V2_009,18,Female,2024-03-01_12h35.04.051,jersey_experiment_5_v2,2023.2.2,Win32,85.47008547,,,,,,,,,,,,,,,,612.6663,614.7602,614.7602,617.078,return,1.7702,,75,,,,,,FBP-RB-71.png,0.43,1.2,34,0.5,0,3,3,33,1,,,,,,,,,,,,,,,,,,,,,,,,,,,,,,,,,,,,,,,,
,,,,,V2_009,18,Female,2024-03-01_12h35.04.051,jersey_experiment_5_v2,2023.2.2,Win32,85.47008547,,,,,,,,,,,,,,,,617.0782,619.1722,619.1722,626.9253,return,5.1158,,42.1875,,,,,,FBP-RB-81.png,0.4,1.2,38,0.5,0,4,4,37,1,,,,,,,,,,,,,,,,,,,,,,,,,,,,,,,,,,,,,,,,
,,,,,V2_009,18,Female,2024-03-01_12h35.04.051,jersey_experiment_5_v2,2023.2.2,Win32,85.47008547,,,,,,,,,,,,,,,,626.9256,628.7726,628.7726,631.4315,return,0.8048,,25,,,,,,FBP-PT-91.png,0.37,1.2,12,0.25,0,5,5,11,1,,,,,,,,,,,,,,,,,,,,,,,,,,,,,,,,,,,,,,,,
,,,,,V2_009,18,Female,2024-03-01_12h35.04.051,jersey_experiment_5_v2,2023.2.2,Win32,85.47008547,,,,,,,,,,,,,,,,631.4317,633.2785,633.2785,636.2787,return,1.0536,,20.44270833,,,,,,FBP-PT-71.png,0.35,1.2,1,0.25,0,6,6,0,1,,,,,,,,,,,,,,,,,,,,,,,,,,,,,,,,,,,,,,,,
,,,,,V2_009,18,Female,2024-03-01_12h35.04.051,jersey_experiment_5_v2,2023.2.2,Win32,85.47008547,,,,,,,,,,,,,,,,636.2789,638.3846,638.3846,648.491,return,4.0142,,14.84375,,,,,,FBP-OG-81.png,0.35,1.2,21,0.5,0,7,7,20,1,,,,,,,,,,,,,,,,,,,,,,,,,,,,,,,,,,,,,,,,
,,,,,V2_009,18,Female,2024-03-01_12h35.04.051,jersey_experiment_5_v2,2023.2.2,Win32,85.47008547,,,,,,,,,,,,,,,,648.4912,650.3498,650.3499,654.9382,return,1.2017,,11.97916667,,,,,,FBP-PT-91.png,0.35,1.2,11,0.25,0,8,8,10,1,,,,,,,,,,,,,,,,,,,,,,,,,,,,,,,,,,,,,,,,
,,,,,V2_009,18,Female,2024-03-01_12h35.04.051,jersey_experiment_5_v2,2023.2.2,Win32,85.47008547,,,,,,,,,,,,,,,,654.9384,656.7853,656.7853,660.9736,return,1.4355,,86.84895833,,,,,,FBP-PT-81.png,0.45,1.2,10,0.25,0,9,9,9,1,,,,,,,,,,,,,,,,,,,,,,,,,,,,,,,,,,,,,,,,
,,,,,V2_009,18,Female,2024-03-01_12h35.04.051,jersey_experiment_5_v2,2023.2.2,Win32,85.47008547,,,,,,,,,,,,,,,,660.9738,662.8209,662.8209,665.974,return,1.2899,,87.36979167,,,,,,FBP-PT-71.png,0.45,1.2,5,0.25,0,10,10,4,1,,,,,,,,,,,,,,,,,,,,,,,,,,,,,,,,,,,,,,,,
,,,,,V2_009,18,Female,2024-03-01_12h35.04.051,jersey_experiment_5_v2,2023.2.2,Win32,85.47008547,,,,,,,,,,,,,,,,665.9742,668.0681,668.0681,674.7154,return,2.5056,,57.94270833,,,,,,FBP-YG-17.png,0.4,1.2,48,0.5,0,11,11,47,1,,,,,,,,,,,,,,,,,,,,,,,,,,,,,,,,,,,,,,,,
,,,,,V2_009,18,Female,2024-03-01_12h35.04.051,jersey_experiment_5_v2,2023.2.2,Win32,85.47008547,,,,,,,,,,,,,,,,674.7202,676.5743,676.5743,679.7979,return,1.1945,,74.73958333,,,,,,FBP-PT-71.png,0.43,1.2,4,0.25,0,12,12,3,1,,,,,,,,,,,,,,,,,,,,,,,,,,,,,,,,,,,,,,,,
,,,,,V2_009,18,Female,2024-03-01_12h35.04.051,jersey_experiment_5_v2,2023.2.2,Win32,85.47008547,,,,,,,,,,,,,,,,679.7981,681.6567,681.6567,684.5982,return,1.3486,,74.86979167,,,,,,FBP-PT-81.png,0.4,1.2,8,0.25,0,13,13,7,1,,,,,,,,,,,,,,,,,,,,,,,,,,,,,,,,,,,,,,,,
,,,,,V2_009,18,Female,2024-03-01_12h35.04.051,jersey_experiment_5_v2,2023.2.2,Win32,85.47008547,,,,,,,,,,,,,,,,684.5983,686.6922,686.6923,690.363,return,0.9196,,25,,,,,,FBP-OG-71.png,0.37,1.2,17,0.5,0,14,14,16,1,,,,,,,,,,,,,,,,,,,,,,,,,,,,,,,,,,,,,,,,
,,,,,V2_009,18,Female,2024-03-01_12h35.04.051,jersey_experiment_5_v2,2023.2.2,Win32,85.47008547,,,,,,,,,,,,,,,,690.3632,692.469,692.469,695.3513,return,0.853,,75,,,,,,FBP-RB-81.png,0.43,1.2,39,0.5,0,15,15,38,1,,,,,,,,,,,,,,,,,,,,,,,,,,,,,,,,,,,,,,,,
,,,,,V2_009,18,Female,2024-03-01_12h35.04.051,jersey_experiment_5_v2,2023.2.2,Win32,85.47008547,,,,,,,,,,,,,,,,695.3515,697.1984,697.1984,701.4694,return,0.8091,,44.53125,,,,,,FBP-PT-91.png,0.4,1.2,13,0.25,0,16,16,12,1,,,,,,,,,,,,,,,,,,,,,,,,,,,,,,,,,,,,,,,,
,,,,,V2_009,18,Female,2024-03-01_12h35.04.051,jersey_experiment_5_v2,2023.2.2,Win32,85.47008547,,,,,,,,,,,,,,,,701.4696,703.5635,703.5635,706.7519,return,0.7301,,75,,,,,,FBP-YG-18.png,0.45,1.2,55,0.5,0,17,17,54,1,,,,,,,,,,,,,,,,,,,,,,,,,,,,,,,,,,,,,,,,
,,,,,V2_009,18,Female,2024-03-01_12h35.04.051,jersey_experiment_5_v2,2023.2.2,Win32,85.47008547,,,,,,,,,,,,,,,,706.7521,708.6107,708.6108,712.6345,return,1.1205,,75,,,,,,FBP-PT-81.png,0.43,1.2,9,0.25,0,18,18,8,1,,,,,,,,,,,,,,,,,,,,,,,,,,,,,,,,,,,,,,,,
,,,,,V2_009,18,Female,2024-03-01_12h35.04.051,jersey_experiment_5_v2,2023.2.2,Win32,85.47008547,,,,,,,,,,,,,,,,712.6346,714.7285,714.7286,724.1996,return,4.1707,,64.0625,,,,,,FBP-RB-71.png,0.4,1.2,33,0.5,0,19,19,32,1,,,,,,,,,,,,,,,,,,,,,,,,,,,,,,,,,,,,,,,,
,,,,,V2_009,18,Female,2024-03-01_12h35.04.051,jersey_experiment_5_v2,2023.2.2,Win32,85.47008547,,,,,,,,,,,,,,,,724.1998,726.2937,726.2937,730.8233,return,2.1824,,15.36458333,,,,,,FBP-RB-81.png,0.35,1.2,36,0.5,0,20,20,35,1,,,,,,,,,,,,,,,,,,,,,,,,,,,,,,,,,,,,,,,,
,,,,,V2_009,18,Female,2024-03-01_12h35.04.051,jersey_experiment_5_v2,2023.2.2,Win32,85.47008547,,,,,,,,,,,,,,,,730.8236,732.9292,732.9292,736.953,return,1.4028,,50,,,,,,FBP-OG-81.png,0.4,1.2,23,0.5,0,21,21,22,1,,,,,,,,,,,,,,,,,,,,,,,,,,,,,,,,,,,,,,,,
,,,,,V2_009,18,Female,2024-03-01_12h35.04.051,jersey_experiment_5_v2,2023.2.2,Win32,85.47008547,,,,,,,,,,,,,,,,736.9532,738.8002,738.8002,745.1651,return,4.387,,80.078125,,,,,,FBP-PT-91.png,0.45,1.2,15,0.25,0,22,22,14,1,,,,,,,,,,,,,,,,,,,,,,,,,,,,,,,,,,,,,,,,
,,,,,V2_009,18,Female,2024-03-01_12h35.04.051,jersey_experiment_5_v2,2023.2.2,Win32,85.47008547,,,,,,,,,,,,,,,,745.1652,747.271,747.271,749.9181,return,1.1062,,80.078125,,,,,,FBP-OG-71.png,0.45,1.2,20,0.5,0,23,23,19,1,,,,,,,,,,,,,,,,,,,,,,,,,,,,,,,,,,,,,,,,
,,,,,V2_009,18,Female,2024-03-01_12h35.04.051,jersey_experiment_5_v2,2023.2.2,Win32,85.47008547,,,,,,,,,,,,,,,,749.9183,752.0241,752.0242,757.8361,return,4.72,,80.078125,,,,,,FBP-OG-71.png,0.43,1.2,19,0.5,0,24,24,18,1,,,,,,,,,,,,,,,,,,,,,,,,,,,,,,,,,,,,,,,,
,,,,,V2_009,18,Female,2024-03-01_12h35.04.051,jersey_experiment_5_v2,2023.2.2,Win32,85.47008547,,,,,,,,,,,,,,,,757.8405,759.942,759.942,771.3542,return,8.6723,,11.97916667,,,,,,FBP-RB-71.png,0.37,1.2,32,0.5,0,25,25,31,1,,,,,,,,,,,,,,,,,,,,,,,,,,,,,,,,,,,,,,,,
,,,,,V2_009,18,Female,2024-03-01_12h35.04.051,jersey_experiment_5_v2,2023.2.2,Win32,85.47008547,,,,,,,,,,,,,,,,771.3587,773.4719,773.472,777.9192,return,1.6237,,52.99479167,,,,,,FBP-YG-18.png,0.4,1.2,53,0.5,0,26,26,52,1,,,,,,,,,,,,,,,,,,,,,,,,,,,,,,,,,,,,,,,,
,,,,,V2_009,18,Female,2024-03-01_12h35.04.051,jersey_experiment_5_v2,2023.2.2,Win32,85.47008547,,,,,,,,,,,,,,,,777.9193,780.0133,780.0133,782.99,return,0.8134,,74.86979167,,,,,,FBP-RB-81.png,0.45,1.2,40,0.5,0,27,27,39,1,,,,,,,,,,,,,,,,,,,,,,,,,,,,,,,,,,,,,,,,
,,,,,V2_009,18,Female,2024-03-01_12h35.04.051,jersey_experiment_5_v2,2023.2.2,Win32,85.47008547,,,,,,,,,,,,,,,,782.9902,785.0841,785.0842,786.8725,return,0.6624,,74.86979167,,,,,,FBP-YG-18.png,0.43,1.2,54,0.5,0,28,28,53,1,,,,,,,,,,,,,,,,,,,,,,,,,,,,,,,,,,,,,,,,
,,,,,V2_009,18,Female,2024-03-01_12h35.04.051,jersey_experiment_5_v2,2023.2.2,Win32,85.47008547,,,,,,,,,,,,,,,,786.8728,788.9667,788.9667,790.967,return,0.7712,,74.86979167,,,,,,FBP-RB-71.png,0.45,1.2,35,0.5,0,29,29,34,1,,,,,,,,,,,,,,,,,,,,,,,,,,,,,,,,,,,,,,,,
,,,,,V2_009,18,Female,2024-03-01_12h35.04.051,jersey_experiment_5_v2,2023.2.2,Win32,85.47008547,,,,,,,,,,,,,,,,790.9672,793.0612,793.0612,797.2729,return,1.0849,,11.58854167,,,,,,FBP-RB-91.png,0.35,1.2,41,0.5,0,30,30,40,1,,,,,,,,,,,,,,,,,,,,,,,,,,,,,,,,,,,,,,,,
,,,,,V2_009,18,Female,2024-03-01_12h35.04.051,jersey_experiment_5_v2,2023.2.2,Win32,85.47008547,,,,,,,,,,,,,,,,797.2731,799.3671,799.3671,804.0262,return,2.1425,,77.99479167,,,,,,FBP-YG-17.png,0.45,1.2,50,0.5,0,31,31,49,1,,,,,,,,,,,,,,,,,,,,,,,,,,,,,,,,,,,,,,,,
,,,,,V2_009,18,Female,2024-03-01_12h35.04.051,jersey_experiment_5_v2,2023.2.2,Win32,85.47008547,,,,,,,,,,,,,,,,804.0265,806.132,806.1321,814.6853,return,5.9305,,21.09375,,,,,,FBP-YG-17.png,0.37,1.2,47,0.5,0,32,32,46,1,,,,,,,,,,,,,,,,,,,,,,,,,,,,,,,,,,,,,,,,
,,,,,V2_009,18,Female,2024-03-01_12h35.04.051,jersey_experiment_5_v2,2023.2.2,Win32,85.47008547,,,,,,,,,,,,,,,,814.6854,816.7794,816.7795,819.9678,return,1.5769,,16.14583333,,,,,,FBP-YG-18.png,0.35,1.2,51,0.5,0,33,33,50,1,,,,,,,,,,,,,,,,,,,,,,,,,,,,,,,,,,,,,,,,
,,,,,V2_009,18,Female,2024-03-01_12h35.04.051,jersey_experiment_5_v2,2023.2.2,Win32,85.47008547,,,,,,,,,,,,,,,,819.968,822.0619,822.0619,825.9444,return,1.2753,,69.27083333,,,,,,FBP-RB-91.png,0.43,1.2,44,0.5,0,34,34,43,1,,,,,,,,,,,,,,,,,,,,,,,,,,,,,,,,,,,,,,,,
,,,,,V2_009,18,Female,2024-03-01_12h35.04.051,jersey_experiment_5_v2,2023.2.2,Win32,85.47008547,,,,,,,,,,,,,,,,825.9446,827.7916,827.7916,837.5448,return,0.7203,,50,,,,,,FBP-PT-71.png,0.4,1.2,3,0.25,0,35,35,2,1,,,,,,,,,,,,,,,,,,,,,,,,,,,,,,,,,,,,,,,,
,,,,,V2_009,18,Female,2024-03-01_12h35.04.051,jersey_experiment_5_v2,2023.2.2,Win32,85.47008547,,,,,,,,,,,,,,,,837.5451,839.6391,839.6391,842.7804,return,1.1668,,24.86979167,,,,,,FBP-OG-71.png,0.35,1.2,16,0.5,0,36,36,15,1,,,,,,,,,,,,,,,,,,,,,,,,,,,,,,,,,,,,,,,,
,,,,,V2_009,18,Female,2024-03-01_12h35.04.051,jersey_experiment_5_v2,2023.2.2,Win32,85.47008547,,,,,,,,,,,,,,,,842.7806,844.8747,844.8748,846.9804,return,0.654,,74.86979167,,,,,,FBP-OG-81.png,0.45,1.2,25,0.5,0,37,37,24,1,,,,,,,,,,,,,,,,,,,,,,,,,,,,,,,,,,,,,,,,
,,,,,V2_009,18,Female,2024-03-01_12h35.04.051,jersey_experiment_5_v2,2023.2.2,Win32,85.47008547,,,,,,,,,,,,,,,,846.9806,848.8277,848.8277,850.1806,return,0.832,,74.86979167,,,,,,FBP-PT-91.png,0.43,1.2,14,0.25,0,38,38,13,1,,,,,,,,,,,,,,,,,,,,,,,,,,,,,,,,,,,,,,,,
,,,,,V2_009,18,Female,2024-03-01_12h35.04.051,jersey_experiment_5_v2,2023.2.2,Win32,85.47008547,,,,,,,,,,,,,,,,850.1808,852.2866,852.2867,857.1927,return,3.144,,63.93229167,,,,,,FBP-OG-71.png,0.4,1.2,18,0.5,0,39,39,17,1,,,,,,,,,,,,,,,,,,,,,,,,,,,,,,,,,,,,,,,,
,,,,,V2_009,18,Female,2024-03-01_12h35.04.051,jersey_experiment_5_v2,2023.2.2,Win32,85.47008547,,,,,,,,,,,,,,,,857.193,859.0398,859.0399,867.8637,return,3.2973,,47.13541667,,,,,,FBP-PT-71.png,0.37,1.2,2,0.25,0,40,40,1,1,,,,,,,,,,,,,,,,,,,,,,,,,,,,,,,,,,,,,,,,
,,,,,V2_009,18,Female,2024-03-01_12h35.04.051,jersey_experiment_5_v2,2023.2.2,Win32,85.47008547,,,,,,,,,,,,,,,,867.8638,869.958,869.958,876.3463,return,0.991,,50,,,,,,FBP-RB-91.png,0.4,1.2,43,0.5,0,41,41,42,1,,,,,,,,,,,,,,,,,,,,,,,,,,,,,,,,,,,,,,,,
,,,,,V2_009,18,Female,2024-03-01_12h35.04.051,jersey_experiment_5_v2,2023.2.2,Win32,85.47008547,,,,,,,,,,,,,,,,876.3464,878.4405,878.4405,880.3817,return,0.8607,,50,,,,,,FBP-OG-81.png,0.37,1.2,22,0.5,0,42,42,21,1,,,,,,,,,,,,,,,,,,,,,,,,,,,,,,,,,,,,,,,,
,,,,,V2_009,18,Female,2024-03-01_12h35.04.051,jersey_experiment_5_v2,2023.2.2,Win32,85.47008547,,,,,,,,,,,,,,,,880.382,882.476,882.476,892.3117,return,8.5699,,79.42708333,,,,,,FBP-OG-91.png,0.45,1.2,30,0.5,0,43,43,29,1,,,,,,,,,,,,,,,,,,,,,,,,,,,,,,,,,,,,,,,,
,,,,,V2_009,18,Female,2024-03-01_12h35.04.051,jersey_experiment_5_v2,2023.2.2,Win32,85.47008547,,,,,,,,,,,,,,,,892.316,894.1705,894.1705,901.6413,return,6.0146,,12.76041667,,,,,,FBP-PT-81.png,0.35,1.2,6,0.25,0,44,44,5,1,,,,,,,,,,,,,,,,,,,,,,,,,,,,,,,,,,,,,,,,
,,,,,V2_009,18,Female,2024-03-01_12h35.04.051,jersey_experiment_5_v2,2023.2.2,Win32,85.47008547,,,,,,,,,,,,,,,,901.6457,903.759,903.759,906.571,return,1.4022,,74.86979167,,,,,,FBP-YG-17.png,0.43,1.2,49,0.5,0,45,45,48,1,,,,,,,,,,,,,,,,,,,,,,,,,,,,,,,,,,,,,,,,
,,,,,V2_009,18,Female,2024-03-01_12h35.04.051,jersey_experiment_5_v2,2023.2.2,Win32,85.47008547,,,,,,,,,,,,,,,,906.5712,908.6652,908.6653,915.8184,return,5.3322,,5.989583333,,,,,,FBP-YG-19.png,0.35,1.2,56,0.5,0,46,46,55,1,,,,,,,,,,,,,,,,,,,,,,,,,,,,,,,,,,,,,,,,
,,,,,V2_009,18,Female,2024-03-01_12h35.04.051,jersey_experiment_5_v2,2023.2.2,Win32,85.47008547,,,,,,,,,,,,,,,,915.8186,917.9242,917.9244,920.6186,return,1.0263,,75,,,,,,FBP-OG-91.png,0.43,1.2,29,0.5,0,47,47,28,1,,,,,,,,,,,,,,,,,,,,,,,,,,,,,,,,,,,,,,,,
,,,,,V2_009,18,Female,2024-03-01_12h35.04.051,jersey_experiment_5_v2,2023.2.2,Win32,85.47008547,,,,,,,,,,,,,,,,920.6188,922.7244,922.7245,928.7131,return,4.6987,,87.5,,,,,,FBP-YG-19.png,0.45,1.2,60,0.5,0,48,48,59,1,,,,,,,,,,,,,,,,,,,,,,,,,,,,,,,,,,,,,,,,
,,,,,V2_009,18,Female,2024-03-01_12h35.04.051,jersey_experiment_5_v2,2023.2.2,Win32,85.47008547,,,,,,,,,,,,,,,,928.7172,930.8307,930.8307,938.4075,return,5.2754,,15.36458333,,,,,,FBP-RB-91.png,0.37,1.2,42,0.5,0,49,49,41,1,,,,,,,,,,,,,,,,,,,,,,,,,,,,,,,,,,,,,,,,
,,,,,V2_009,18,Female,2024-03-01_12h35.04.051,jersey_experiment_5_v2,2023.2.2,Win32,85.47008547,,,,,,,,,,,,,,,,938.4117,940.5252,940.5253,945.7724,return,2.7299,,47.13541667,,,,,,FBP-YG-19.png,0.4,1.2,58,0.5,0,50,50,57,1,,,,,,,,,,,,,,,,,,,,,,,,,,,,,,,,,,,,,,,,
,,,,,V2_009,18,Female,2024-03-01_12h35.04.051,jersey_experiment_5_v2,2023.2.2,Win32,85.47008547,,,,,,,,,,,,,,,,945.7726,947.8784,947.8784,951.055,return,0.9883,,46.74479167,,,,,,FBP-OG-91.png,0.37,1.2,27,0.5,0,51,51,26,1,,,,,,,,,,,,,,,,,,,,,,,,,,,,,,,,,,,,,,,,
,,,,,V2_009,18,Female,2024-03-01_12h35.04.051,jersey_experiment_5_v2,2023.2.2,Win32,85.47008547,,,,,,,,,,,,,,,,951.0552,953.1491,953.1491,955.7845,return,0.8382,,74.86979167,,,,,,FBP-YG-19.png,0.43,1.2,59,0.5,0,52,52,58,1,,,,,,,,,,,,,,,,,,,,,,,,,,,,,,,,,,,,,,,,
,,,,,V2_009,18,Female,2024-03-01_12h35.04.051,jersey_experiment_5_v2,2023.2.2,Win32,85.47008547,,,,,,,,,,,,,,,,955.7847,957.8905,957.8905,963.126,return,2.0408,,37.109375,,,,,,FBP-OG-91.png,0.35,1.2,26,0.5,0,53,53,25,1,,,,,,,,,,,,,,,,,,,,,,,,,,,,,,,,,,,,,,,,
,,,,,V2_009,18,Female,2024-03-01_12h35.04.051,jersey_experiment_5_v2,2023.2.2,Win32,85.47008547,,,,,,,,,,,,,,,,963.1262,964.9731,964.9731,972.9852,return,1.6982,,33.46354167,,,,,,FBP-PT-81.png,0.37,1.2,7,0.25,0,54,54,6,1,,,,,,,,,,,,,,,,,,,,,,,,,,,,,,,,,,,,,,,,
,,,,,V2_009,18,Female,2024-03-01_12h35.04.051,jersey_experiment_5_v2,2023.2.2,Win32,85.47008547,,,,,,,,,,,,,,,,972.9854,975.0793,975.0794,979.7973,return,1.1835,,28.515625,,,,,,FBP-YG-19.png,0.37,1.2,57,0.5,0,55,55,56,1,,,,,,,,,,,,,,,,,,,,,,,,,,,,,,,,,,,,,,,,
,,,,,V2_009,18,Female,2024-03-01_12h35.04.051,jersey_experiment_5_v2,2023.2.2,Win32,85.47008547,,,,,,,,,,,,,,,,979.7975,981.8914,981.8914,986.4093,return,2.9198,,28.515625,,,,,,FBP-RB-81.png,0.37,1.2,37,0.5,0,56,56,36,1,,,,,,,,,,,,,,,,,,,,,,,,,,,,,,,,,,,,,,,,
,,,,,V2_009,18,Female,2024-03-01_12h35.04.051,jersey_experiment_5_v2,2023.2.2,Win32,85.47008547,,,,,,,,,,,,,,,,986.4095,988.5035,988.5036,991.574,return,0.6655,,21.35416667,,,,,,FBP-RB-71.png,0.35,1.2,31,0.5,0,57,57,30,1,,,,,,,,,,,,,,,,,,,,,,,,,,,,,,,,,,,,,,,,
,,,,,V2_009,18,Female,2024-03-01_12h35.04.051,jersey_experiment_5_v2,2023.2.2,Win32,85.47008547,,,,,,,,,,,,,,,,991.5742,993.6683,993.6683,996.4448,return,1.3991,,20.96354167,,,,,,FBP-YG-17.png,0.35,1.2,46,0.5,0,58,58,45,1,,,,,,,,,,,,,,,,,,,,,,,,,,,,,,,,,,,,,,,,
,,,,,V2_009,18,Female,2024-03-01_12h35.04.051,jersey_experiment_5_v2,2023.2.2,Win32,85.47008547,,,,,,,,,,,,,,,,996.445,998.539,998.539,1002.6216,return,2.6263,,74.86979167,,,,,,FBP-RB-91.png,0.45,1.2,45,0.5,0,59,59,44,1,,,,,,,,,,,,,,,,,,,,,,,,,,,,,,,,,,,,,,,,
,,,,,V2_009,18,Female,2024-03-01_12h35.04.051,jersey_experiment_5_v2,2023.2.2,Win32,85.47008547,,,,,,,,,,,,,,,,,,,,,,,,,,,,,,,,,,,,,,,1002.6264,1122.6265,,,,,,,,,,,,,,,,,,,,,,,,,,,,,,,,,,,,,,
,,,,,V2_009,18,Female,2024-03-01_12h35.04.051,jersey_experiment_5_v2,2023.2.2,Win32,85.47008547,,,,,,,,,,,,,,,,,,,,,,,,,,,,,,,,,,,,,,,,,1122.6265,1128.4853,return,5.8547,,,,,,,,,,,,,,,,,,,,,,,,,,,,,,,,,,
,,,,,V2_009,18,Female,2024-03-01_12h35.04.051,jersey_experiment_5_v2,2023.2.2,Win32,85.47008547,,,,,,,,,,,,,,,,1128.4917,1130.344,1130.344,1137.4383,return,1.2236,,82.29166667,,,,,,FBP-YG-91.png,0.45,1.2,60,0.25,,,,,,,,,,,,,0,0,0,59,1,,,,,,,,,,,,,,,,,,,,,,,,,,,,
,,,,,V2_009,18,Female,2024-03-01_12h35.04.051,jersey_experiment_5_v2,2023.2.2,Win32,85.47008547,,,,,,,,,,,,,,,,1137.4385,1139.2855,1139.2855,1142.1913,return,1.1154,,24.86979167,,,,,,FBP-OG-19.png,0.37,1.2,27,0.25,,,,,,,,,,,,,0,1,1,26,1,,,,,,,,,,,,,,,,,,,,,,,,,,,,
,,,,,V2_009,18,Female,2024-03-01_12h35.04.051,jersey_experiment_5_v2,2023.2.2,Win32,85.47008547,,,,,,,,,,,,,,,,1142.1916,1144.0502,1144.0503,1152.4623,return,7.1901,,14.58333333,,,,,,FBP-YG-91.png,0.37,1.2,57,0.25,,,,,,,,,,,,,0,2,2,56,1,,,,,,,,,,,,,,,,,,,,,,,,,,,,
,,,,,V2_009,18,Female,2024-03-01_12h35.04.051,jersey_experiment_5_v2,2023.2.2,Win32,85.47008547,,,,,,,,,,,,,,,,1152.4625,1154.3094,1154.3094,1158.4626,return,1.9435,,12.63020833,,,,,,FBP-YG-81.png,0.35,1.2,51,0.25,,,,,,,,,,,,,0,3,3,50,1,,,,,,,,,,,,,,,,,,,,,,,,,,,,
,,,,,V2_009,18,Female,2024-03-01_12h35.04.051,jersey_experiment_5_v2,2023.2.2,Win32,85.47008547,,,,,,,,,,,,,,,,1158.4629,1160.557,1160.557,1162.9803,return,0.9484,,75.13020833,,,,,,FBP-PT-17.png,0.4,1.2,3,0.5,,,,,,,,,,,,,0,4,4,2,1,,,,,,,,,,,,,,,,,,,,,,,,,,,,
,,,,,V2_009,18,Female,2024-03-01_12h35.04.051,jersey_experiment_5_v2,2023.2.2,Win32,85.47008547,,,,,,,,,,,,,,,,1162.9805,1164.8275,1164.8275,1167.4159,return,1.6757,,84.11458333,,,,,,FBP-OG-18.png,0.43,1.2,24,0.25,,,,,,,,,,,,,0,5,5,23,1,,,,,,,,,,,,,,,,,,,,,,,,,,,,
,,,,,V2_009,18,Female,2024-03-01_12h35.04.051,jersey_experiment_5_v2,2023.2.2,Win32,85.47008547,,,,,,,,,,,,,,,,1167.416,1169.263,1169.263,1171.6748,return,0.8023,,24.73958333,,,,,,FBP-OG-17.png,0.35,1.2,16,0.25,,,,,,,,,,,,,0,6,6,15,1,,,,,,,,,,,,,,,,,,,,,,,,,,,,
,,,,,V2_009,18,Female,2024-03-01_12h35.04.051,jersey_experiment_5_v2,2023.2.2,Win32,85.47008547,,,,,,,,,,,,,,,,1171.6751,1173.522,1173.522,1181.7105,return,6.7896,,74.86979167,,,,,,FBP-OG-17.png,0.4,1.2,18,0.25,,,,,,,,,,,,,0,7,7,17,1,,,,,,,,,,,,,,,,,,,,,,,,,,,,
,,,,,V2_009,18,Female,2024-03-01_12h35.04.051,jersey_experiment_5_v2,2023.2.2,Win32,85.47008547,,,,,,,,,,,,,,,,1181.7148,1183.5693,1183.5693,1188.7813,return,4.0101,,94.01041667,,,,,,FBP-RB-19.png,0.45,1.2,45,0.25,,,,,,,,,,,,,0,8,8,44,1,,,,,,,,,,,,,,,,,,,,,,,,,,,,
,,,,,V2_009,18,Female,2024-03-01_12h35.04.051,jersey_experiment_5_v2,2023.2.2,Win32,85.47008547,,,,,,,,,,,,,,,,1188.7816,1190.6402,1190.6403,1193.5934,return,1.0611,,76.171875,,,,,,FBP-RB-18.png,0.43,1.2,39,0.25,,,,,,,,,,,,,0,9,9,38,1,,,,,,,,,,,,,,,,,,,,,,,,,,,,
,,,,,V2_009,18,Female,2024-03-01_12h35.04.051,jersey_experiment_5_v2,2023.2.2,Win32,85.47008547,,,,,,,,,,,,,,,,1193.5936,1195.6875,1195.6875,1201.5937,return,0.9428,,67.70833333,,,,,,FBP-PT-19.png,0.4,1.2,13,0.5,,,,,,,,,,,,,0,10,10,12,1,,,,,,,,,,,,,,,,,,,,,,,,,,,,
,,,,,V2_009,18,Female,2024-03-01_12h35.04.051,jersey_experiment_5_v2,2023.2.2,Win32,85.47008547,,,,,,,,,,,,,,,,1201.5938,1203.4407,1203.4407,1206.0879,return,1.6967,,87.76041667,,,,,,FBP-YG-81.png,0.45,1.2,55,0.25,,,,,,,,,,,,,0,11,11,54,1,,,,,,,,,,,,,,,,,,,,,,,,,,,,
,,,,,V2_009,18,Female,2024-03-01_12h35.04.051,jersey_experiment_5_v2,2023.2.2,Win32,85.47008547,,,,,,,,,,,,,,,,1206.0881,1207.9468,1207.9468,1213.4529,return,2.2831,,49.86979167,,,,,,FBP-YG-81.png,0.37,1.2,52,0.25,,,,,,,,,,,,,0,12,12,51,1,,,,,,,,,,,,,,,,,,,,,,,,,,,,
,,,,,V2_009,18,Female,2024-03-01_12h35.04.051,jersey_experiment_5_v2,2023.2.2,Win32,85.47008547,,,,,,,,,,,,,,,,1213.4532,1215.5587,1215.5588,1218.7589,return,1.3711,,47.265625,,,,,,FBP-PT-19.png,0.37,1.2,12,0.5,,,,,,,,,,,,,0,13,13,11,1,,,,,,,,,,,,,,,,,,,,,,,,,,,,
,,,,,V2_009,18,Female,2024-03-01_12h35.04.051,jersey_experiment_5_v2,2023.2.2,Win32,85.47008547,,,,,,,,,,,,,,,,1218.7591,1220.6061,1220.6062,1222.7589,return,0.8635,,86.84895833,,,,,,FBP-OG-17.png,0.45,1.2,20,0.25,,,,,,,,,,,,,0,14,14,19,1,,,,,,,,,,,,,,,,,,,,,,,,,,,,
,,,,,V2_009,18,Female,2024-03-01_12h35.04.051,jersey_experiment_5_v2,2023.2.2,Win32,85.47008547,,,,,,,,,,,,,,,,1222.7592,1224.6062,1224.6063,1232.5358,return,0.911,,24.86979167,,,,,,FBP-YG-91.png,0.35,1.2,56,0.25,,,,,,,,,,,,,0,15,15,55,1,,,,,,,,,,,,,,,,,,,,,,,,,,,,
,,,,,V2_009,18,Female,2024-03-01_12h35.04.051,jersey_experiment_5_v2,2023.2.2,Win32,85.47008547,,,,,,,,,,,,,,,,1232.5361,1234.3829,1234.383,1237.642,return,1.3559,,79.94791667,,,,,,FBP-OG-17.png,0.43,1.2,19,0.25,,,,,,,,,,,,,0,16,16,18,1,,,,,,,,,,,,,,,,,,,,,,,,,,,,
,,,,,V2_009,18,Female,2024-03-01_12h35.04.051,jersey_experiment_5_v2,2023.2.2,Win32,85.47008547,,,,,,,,,,,,,,,,1237.6422,1239.7362,1239.7363,1257.725,return,16.6463,,14.71354167,,,,,,FBP-PT-18.png,0.35,1.2,6,0.5,,,,,,,,,,,,,0,17,17,5,1,,,,,,,,,,,,,,,,,,,,,,,,,,,,
,,,,,V2_009,18,Female,2024-03-01_12h35.04.051,jersey_experiment_5_v2,2023.2.2,Win32,85.47008547,,,,,,,,,,,,,,,,1257.7252,1259.5722,1259.5722,1264.8547,return,1.3473,,17.83854167,,,,,,FBP-YG-71.png,0.37,1.2,47,0.25,,,,,,,,,,,,,0,18,18,46,1,,,,,,,,,,,,,,,,,,,,,,,,,,,,
,,,,,V2_009,18,Female,2024-03-01_12h35.04.051,jersey_experiment_5_v2,2023.2.2,Win32,85.47008547,,,,,,,,,,,,,,,,1264.8549,1266.7136,1266.7136,1270.2315,return,0.898,,49.73958333,,,,,,FBP-RB-19.png,0.4,1.2,43,0.25,,,,,,,,,,,,,0,19,19,42,1,,,,,,,,,,,,,,,,,,,,,,,,,,,,
,,,,,V2_009,18,Female,2024-03-01_12h35.04.051,jersey_experiment_5_v2,2023.2.2,Win32,85.47008547,,,,,,,,,,,,,,,,1270.2317,1272.0785,1272.0786,1276.008,return,0.7447,,78.515625,,,,,,FBP-YG-71.png,0.45,1.2,50,0.25,,,,,,,,,,,,,0,20,20,49,1,,,,,,,,,,,,,,,,,,,,,,,,,,,,
,,,,,V2_009,18,Female,2024-03-01_12h35.04.051,jersey_experiment_5_v2,2023.2.2,Win32,85.47008547,,,,,,,,,,,,,,,,1276.0083,1277.867,1277.867,1280.373,return,0.6894,,24.73958333,,,,,,FBP-RB-19.png,0.35,1.2,41,0.25,,,,,,,,,,,,,0,21,21,40,1,,,,,,,,,,,,,,,,,,,,,,,,,,,,
,,,,,V2_009,18,Female,2024-03-01_12h35.04.051,jersey_experiment_5_v2,2023.2.2,Win32,85.47008547,,,,,,,,,,,,,,,,1280.3732,1282.22,1282.2201,1285.7025,return,0.7688,,74.73958333,,,,,,FBP-RB-17.png,0.43,1.2,34,0.25,,,,,,,,,,,,,0,22,22,33,1,,,,,,,,,,,,,,,,,,,,,,,,,,,,
,,,,,V2_009,18,Female,2024-03-01_12h35.04.051,jersey_experiment_5_v2,2023.2.2,Win32,85.47008547,,,,,,,,,,,,,,,,1285.7028,1287.5497,1287.5497,1289.7498,return,1.406,,74.73958333,,,,,,FBP-YG-81.png,0.43,1.2,54,0.25,,,,,,,,,,,,,0,23,23,53,1,,,,,,,,,,,,,,,,,,,,,,,,,,,,
,,,,,V2_009,18,Female,2024-03-01_12h35.04.051,jersey_experiment_5_v2,2023.2.2,Win32,85.47008547,,,,,,,,,,,,,,,,1289.7499,1291.5968,1291.5968,1308.6799,return,14.3937,,44.66145833,,,,,,FBP-RB-19.png,0.37,1.2,42,0.25,,,,,,,,,,,,,0,24,24,41,1,,,,,,,,,,,,,,,,,,,,,,,,,,,,
,,,,,V2_009,18,Female,2024-03-01_12h35.04.051,jersey_experiment_5_v2,2023.2.2,Win32,85.47008547,,,,,,,,,,,,,,,,1308.6801,1310.7741,1310.7741,1315.1624,return,3.2261,,75,,,,,,FBP-PT-19.png,0.43,1.2,14,0.5,,,,,,,,,,,,,0,25,25,13,1,,,,,,,,,,,,,,,,,,,,,,,,,,,,
,,,,,V2_009,18,Female,2024-03-01_12h35.04.051,jersey_experiment_5_v2,2023.2.2,Win32,85.47008547,,,,,,,,,,,,,,,,1315.1625,1317.0096,1317.0097,1319.3508,return,1.4993,,75,,,,,,FBP-YG-91.png,0.4,1.2,58,0.25,,,,,,,,,,,,,0,26,26,57,1,,,,,,,,,,,,,,,,,,,,,,,,,,,,
,,,,,V2_009,18,Female,2024-03-01_12h35.04.051,jersey_experiment_5_v2,2023.2.2,Win32,85.47008547,,,,,,,,,,,,,,,,1319.351,1321.2096,1321.2097,1325.5747,return,2.592,,71.09375,,,,,,FBP-RB-18.png,0.4,1.2,38,0.25,,,,,,,,,,,,,0,27,27,37,1,,,,,,,,,,,,,,,,,,,,,,,,,,,,
,,,,,V2_009,18,Female,2024-03-01_12h35.04.051,jersey_experiment_5_v2,2023.2.2,Win32,85.47008547,,,,,,,,,,,,,,,,1325.5749,1327.4336,1327.4336,1336.1867,return,7.3791,,32.68229167,,,,,,FBP-RB-17.png,0.35,1.2,31,0.25,,,,,,,,,,,,,0,28,28,30,1,,,,,,,,,,,,,,,,,,,,,,,,,,,,
,,,,,V2_009,18,Female,2024-03-01_12h35.04.051,jersey_experiment_5_v2,2023.2.2,Win32,85.47008547,,,,,,,,,,,,,,,,1336.1869,1338.2927,1338.2927,1343.693,return,0.766,,30.46875,,,,,,FBP-PT-17.png,0.37,1.2,2,0.5,,,,,,,,,,,,,0,29,29,1,1,,,,,,,,,,,,,,,,,,,,,,,,,,,,
,,,,,V2_009,18,Female,2024-03-01_12h35.04.051,jersey_experiment_5_v2,2023.2.2,Win32,85.47008547,,,,,,,,,,,,,,,,1343.6933,1345.54,1345.5401,1348.399,return,1.3657,,74.73958333,,,,,,FBP-OG-18.png,0.4,1.2,23,0.25,,,,,,,,,,,,,0,30,30,22,1,,,,,,,,,,,,,,,,,,,,,,,,,,,,
,,,,,V2_009,18,Female,2024-03-01_12h35.04.051,jersey_experiment_5_v2,2023.2.2,Win32,85.47008547,,,,,,,,,,,,,,,,1348.3992,1350.4932,1350.4932,1355.3992,return,3.8285,,85.02604167,,,,,,FBP-PT-18.png,0.43,1.2,9,0.5,,,,,,,,,,,,,0,31,31,8,1,,,,,,,,,,,,,,,,,,,,,,,,,,,,
,,,,,V2_009,18,Female,2024-03-01_12h35.04.051,jersey_experiment_5_v2,2023.2.2,Win32,85.47008547,,,,,,,,,,,,,,,,1355.4035,1357.2463,1357.2464,1361.1404,return,2.3718,,20.83333333,,,,,,FBP-OG-18.png,0.35,1.2,21,0.25,,,,,,,,,,,,,0,32,32,20,1,,,,,,,,,,,,,,,,,,,,,,,,,,,,
,,,,,V2_009,18,Female,2024-03-01_12h35.04.051,jersey_experiment_5_v2,2023.2.2,Win32,85.47008547,,,,,,,,,,,,,,,,1361.1407,1362.988,1362.988,1370.5411,return,5.8137,,38.93229167,,,,,,FBP-OG-17.png,0.37,1.2,17,0.25,,,,,,,,,,,,,0,33,33,16,1,,,,,,,,,,,,,,,,,,,,,,,,,,,,
,,,,,V2_009,18,Female,2024-03-01_12h35.04.051,jersey_experiment_5_v2,2023.2.2,Win32,85.47008547,,,,,,,,,,,,,,,,1370.5413,1372.388,1372.388,1374.5529,return,0.5795,,74.73958333,,,,,,FBP-OG-19.png,0.4,1.2,28,0.25,,,,,,,,,,,,,0,34,34,27,1,,,,,,,,,,,,,,,,,,,,,,,,,,,,
,,,,,V2_009,18,Female,2024-03-01_12h35.04.051,jersey_experiment_5_v2,2023.2.2,Win32,85.47008547,,,,,,,,,,,,,,,,1374.5531,1376.4001,1376.4001,1378.3647,return,1.0589,,78.64583333,,,,,,FBP-YG-91.png,0.43,1.2,59,0.25,,,,,,,,,,,,,0,35,35,58,1,,,,,,,,,,,,,,,,,,,,,,,,,,,,
,,,,,V2_009,18,Female,2024-03-01_12h35.04.051,jersey_experiment_5_v2,2023.2.2,Win32,85.47008547,,,,,,,,,,,,,,,,1378.3649,1380.4589,1380.4589,1382.8591,return,1.6597,,83.72395833,,,,,,FBP-PT-17.png,0.43,1.2,4,0.5,,,,,,,,,,,,,0,36,36,3,1,,,,,,,,,,,,,,,,,,,,,,,,,,,,
,,,,,V2_009,18,Female,2024-03-01_12h35.04.051,jersey_experiment_5_v2,2023.2.2,Win32,85.47008547,,,,,,,,,,,,,,,,1382.8592,1384.7063,1384.7063,1388.0946,return,2.6251,,89.71354167,,,,,,FBP-OG-19.png,0.45,1.2,30,0.25,,,,,,,,,,,,,0,37,37,29,1,,,,,,,,,,,,,,,,,,,,,,,,,,,,
,,,,,V2_009,18,Female,2024-03-01_12h35.04.051,jersey_experiment_5_v2,2023.2.2,Win32,85.47008547,,,,,,,,,,,,,,,,1388.0947,1389.9534,1389.9535,1400.5656,return,2.9369,,31.90104167,,,,,,FBP-RB-17.png,0.37,1.2,32,0.25,,,,,,,,,,,,,0,38,38,31,1,,,,,,,,,,,,,,,,,,,,,,,,,,,,
,,,,,V2_009,18,Female,2024-03-01_12h35.04.051,jersey_experiment_5_v2,2023.2.2,Win32,85.47008547,,,,,,,,,,,,,,,,1400.5659,1402.4127,1402.4127,1406.1423,return,1.9778,,21.35416667,,,,,,FBP-YG-71.png,0.35,1.2,46,0.25,,,,,,,,,,,,,0,39,39,45,1,,,,,,,,,,,,,,,,,,,,,,,,,,,,
,,,,,V2_009,18,Female,2024-03-01_12h35.04.051,jersey_experiment_5_v2,2023.2.2,Win32,85.47008547,,,,,,,,,,,,,,,,1406.1425,1407.9894,1407.9894,1410.5659,return,0.654,,75,,,,,,FBP-YG-71.png,0.43,1.2,49,0.25,,,,,,,,,,,,,0,40,40,48,1,,,,,,,,,,,,,,,,,,,,,,,,,,,,
,,,,,V2_009,18,Female,2024-03-01_12h35.04.051,jersey_experiment_5_v2,2023.2.2,Win32,85.47008547,,,,,,,,,,,,,,,,1410.5663,1412.672,1412.672,1414.6013,return,0.5087,,25.26041667,,,,,,FBP-PT-19.png,0.35,1.2,11,0.5,,,,,,,,,,,,,0,41,41,10,1,,,,,,,,,,,,,,,,,,,,,,,,,,,,
,,,,,V2_009,18,Female,2024-03-01_12h35.04.051,jersey_experiment_5_v2,2023.2.2,Win32,85.47008547,,,,,,,,,,,,,,,,1414.6015,1416.4487,1416.4487,1428.4371,return,10.2673,,79.6875,,,,,,FBP-RB-18.png,0.45,1.2,40,0.25,,,,,,,,,,,,,0,42,42,39,1,,,,,,,,,,,,,,,,,,,,,,,,,,,,
,,,,,V2_009,18,Female,2024-03-01_12h35.04.051,jersey_experiment_5_v2,2023.2.2,Win32,85.47008547,,,,,,,,,,,,,,,,1428.4374,1430.2961,1430.2961,1439.8847,return,5.0021,,75.13020833,,,,,,FBP-RB-19.png,0.43,1.2,44,0.25,,,,,,,,,,,,,0,43,43,43,1,,,,,,,,,,,,,,,,,,,,,,,,,,,,
,,,,,V2_009,18,Female,2024-03-01_12h35.04.051,jersey_experiment_5_v2,2023.2.2,Win32,85.47008547,,,,,,,,,,,,,,,,1439.885,1441.7318,1441.7318,1447.7084,return,1.1063,,18.61979167,,,,,,FBP-OG-19.png,0.35,1.2,26,0.25,,,,,,,,,,,,,0,44,44,25,1,,,,,,,,,,,,,,,,,,,,,,,,,,,,
,,,,,V2_009,18,Female,2024-03-01_12h35.04.051,jersey_experiment_5_v2,2023.2.2,Win32,85.47008547,,,,,,,,,,,,,,,,1447.7087,1449.5673,1449.5673,1451.8381,return,0.7199,,75,,,,,,FBP-OG-19.png,0.43,1.2,29,0.25,,,,,,,,,,,,,0,45,45,28,1,,,,,,,,,,,,,,,,,,,,,,,,,,,,
,,,,,V2_009,18,Female,2024-03-01_12h35.04.051,jersey_experiment_5_v2,2023.2.2,Win32,85.47008547,,,,,,,,,,,,,,,,1451.8383,1453.9322,1453.9323,1461.1325,return,1.3653,,22.91666667,,,,,,FBP-PT-17.png,0.35,1.2,1,0.5,,,,,,,,,,,,,0,46,46,0,1,,,,,,,,,,,,,,,,,,,,,,,,,,,,
,,,,,V2_009,18,Female,2024-03-01_12h35.04.051,jersey_experiment_5_v2,2023.2.2,Win32,85.47008547,,,,,,,,,,,,,,,,1461.1328,1462.9798,1462.9798,1466.5562,return,0.9183,,75,,,,,,FBP-RB-17.png,0.4,1.2,33,0.25,,,,,,,,,,,,,0,47,47,32,1,,,,,,,,,,,,,,,,,,,,,,,,,,,,
,,,,,V2_009,18,Female,2024-03-01_12h35.04.051,jersey_experiment_5_v2,2023.2.2,Win32,85.47008547,,,,,,,,,,,,,,,,1466.5565,1468.415,1468.415,1491.3806,return,9.8304,,25,,,,,,FBP-RB-18.png,0.35,1.2,36,0.25,,,,,,,,,,,,,0,48,48,35,1,,,,,,,,,,,,,,,,,,,,,,,,,,,,
,,,,,V2_009,18,Female,2024-03-01_12h35.04.051,jersey_experiment_5_v2,2023.2.2,Win32,85.47008547,,,,,,,,,,,,,,,,1491.3853,1493.4867,1493.4867,1497.0515,return,1.5074,,86.97916667,,,,,,FBP-PT-17.png,0.45,1.2,5,0.5,,,,,,,,,,,,,0,49,49,4,1,,,,,,,,,,,,,,,,,,,,,,,,,,,,
,,,,,V2_009,18,Female,2024-03-01_12h35.04.051,jersey_experiment_5_v2,2023.2.2,Win32,85.47008547,,,,,,,,,,,,,,,,1497.0518,1498.8987,1498.8987,1501.087,return,0.5324,,49.86979167,,,,,,FBP-RB-18.png,0.37,1.2,37,0.25,,,,,,,,,,,,,0,50,50,36,1,,,,,,,,,,,,,,,,,,,,,,,,,,,,
,,,,,V2_009,18,Female,2024-03-01_12h35.04.051,jersey_experiment_5_v2,2023.2.2,Win32,85.47008547,,,,,,,,,,,,,,,,1501.0872,1503.1812,1503.1814,1505.64,return,1.2153,,74.86979167,,,,,,FBP-PT-18.png,0.4,1.2,8,0.5,,,,,,,,,,,,,0,51,51,7,1,,,,,,,,,,,,,,,,,,,,,,,,,,,,
,,,,,V2_009,18,Female,2024-03-01_12h35.04.051,jersey_experiment_5_v2,2023.2.2,Win32,85.47008547,,,,,,,,,,,,,,,,1505.6402,1507.4872,1507.4872,1509.546,return,0.7559,,74.86979167,,,,,,FBP-YG-81.png,0.4,1.2,53,0.25,,,,,,,,,,,,,0,52,52,52,1,,,,,,,,,,,,,,,,,,,,,,,,,,,,
,,,,,V2_009,18,Female,2024-03-01_12h35.04.051,jersey_experiment_5_v2,2023.2.2,Win32,85.47008547,,,,,,,,,,,,,,,,1509.5461,1511.3933,1511.3933,1513.5815,return,1.1896,,78.64583333,,,,,,FBP-YG-71.png,0.4,1.2,48,0.25,,,,,,,,,,,,,0,53,53,47,1,,,,,,,,,,,,,,,,,,,,,,,,,,,,
,,,,,V2_009,18,Female,2024-03-01_12h35.04.051,jersey_experiment_5_v2,2023.2.2,Win32,85.47008547,,,,,,,,,,,,,,,,1513.5818,1515.4406,1515.4406,1517.7228,return,0.5316,,45.18229167,,,,,,FBP-OG-18.png,0.37,1.2,22,0.25,,,,,,,,,,,,,0,54,54,21,1,,,,,,,,,,,,,,,,,,,,,,,,,,,,
,,,,,V2_009,18,Female,2024-03-01_12h35.04.051,jersey_experiment_5_v2,2023.2.2,Win32,85.47008547,,,,,,,,,,,,,,,,1517.7231,1519.8172,1519.8173,1521.3701,return,0.4254,,75,,,,,,FBP-PT-18.png,0.45,1.2,10,0.5,,,,,,,,,,,,,0,55,55,9,1,,,,,,,,,,,,,,,,,,,,,,,,,,,,
,,,,,V2_009,18,Female,2024-03-01_12h35.04.051,jersey_experiment_5_v2,2023.2.2,Win32,85.47008547,,,,,,,,,,,,,,,,1521.3703,1523.4643,1523.4643,1525.3348,return,0.4863,,49.73958333,,,,,,FBP-PT-18.png,0.37,1.2,7,0.5,,,,,,,,,,,,,0,56,56,6,1,,,,,,,,,,,,,,,,,,,,,,,,,,,,
,,,,,V2_009,18,Female,2024-03-01_12h35.04.051,jersey_experiment_5_v2,2023.2.2,Win32,85.47008547,,,,,,,,,,,,,,,,1525.3351,1527.182,1527.1821,1529.2763,return,0.9312,,78.90625,,,,,,FBP-OG-18.png,0.45,1.2,25,0.25,,,,,,,,,,,,,0,57,57,24,1,,,,,,,,,,,,,,,,,,,,,,,,,,,,
,,,,,V2_009,18,Female,2024-03-01_12h35.04.051,jersey_experiment_5_v2,2023.2.2,Win32,85.47008547,,,,,,,,,,,,,,,,1529.2765,1531.1233,1531.1233,1532.6291,return,0.8171,,85.02604167,,,,,,FBP-RB-17.png,0.45,1.2,35,0.25,,,,,,,,,,,,,0,58,58,34,1,,,,,,,,,,,,,,,,,,,,,,,,,,,,
,,,,,V2_009,18,Female,2024-03-01_12h35.04.051,jersey_experiment_5_v2,2023.2.2,Win32,85.47008547,,,,,,,,,,,,,,,,1532.6294,1534.7234,1534.7234,1537.7587,return,1.6472,,82.94270833,,,,,,FBP-PT-19.png,0.45,1.2,15,0.5,,,,,,,,,,,,,0,59,59,14,1,,,,,,,,,,,,,,,,,,,,,,,,,,,,
,,,,,V2_009,18,Female,2024-03-01_12h35.04.051,jersey_experiment_5_v2,2023.2.2,Win32,85.47008547,,,,,,,,,,,,,,,,1537.7604,1539.606,1539.606,1543.4299,return,0.4635,,77.47395833,,,,,,FBP-YG-19.png,0.45,1.2,60,0.25,,,,,,,,,,,,,,,,,,0,0,0,59,1,,,,,,,,,,,,,,,,,,,,,,,
,,,,,V2_009,18,Female,2024-03-01_12h35.04.051,jersey_experiment_5_v2,2023.2.2,Win32,85.47008547,,,,,,,,,,,,,,,,1543.43,1545.5238,1545.5238,1547.9474,return,0.8819,,75.78125,,,,,,FBP-PT-91.png,0.43,1.2,14,0.5,,,,,,,,,,,,,,,,,,0,1,1,13,1,,,,,,,,,,,,,,,,,,,,,,,
,,,,,V2_009,18,Female,2024-03-01_12h35.04.051,jersey_experiment_5_v2,2023.2.2,Win32,85.47008547,,,,,,,,,,,,,,,,1547.9476,1549.7946,1549.7946,1553.5359,return,0.4942,,15.49479167,,,,,,FBP-RB-81.png,0.35,1.2,36,0.25,,,,,,,,,,,,,,,,,,0,2,2,35,1,,,,,,,,,,,,,,,,,,,,,,,
,,,,,V2_009,18,Female,2024-03-01_12h35.04.051,jersey_experiment_5_v2,2023.2.2,Win32,85.47008547,,,,,,,,,,,,,,,,1553.5362,1555.6302,1555.6302,1557.0301,return,0.8067,,15.49479167,,,,,,FBP-PT-91.png,0.37,1.2,12,0.5,,,,,,,,,,,,,,,,,,0,3,3,11,1,,,,,,,,,,,,,,,,,,,,,,,
,,,,,V2_009,18,Female,2024-03-01_12h35.04.051,jersey_experiment_5_v2,2023.2.2,Win32,85.47008547,,,,,,,,,,,,,,,,1557.0303,1558.8773,1558.8773,1562.0068,return,0.3813,,49.73958333,,,,,,FBP-RB-71.png,0.4,1.2,33,0.25,,,,,,,,,,,,,,,,,,0,4,4,32,1,,,,,,,,,,,,,,,,,,,,,,,
,,,,,V2_009,18,Female,2024-03-01_12h35.04.051,jersey_experiment_5_v2,2023.2.2,Win32,85.47008547,,,,,,,,,,,,,,,,1562.0071,1563.8658,1563.8658,1565.9834,return,0.4698,,24.609375,,,,,,FBP-YG-18.png,0.35,1.2,51,0.25,,,,,,,,,,,,,,,,,,0,5,5,50,1,,,,,,,,,,,,,,,,,,,,,,,
,,,,,V2_009,18,Female,2024-03-01_12h35.04.051,jersey_experiment_5_v2,2023.2.2,Win32,85.47008547,,,,,,,,,,,,,,,,1565.9837,1568.0892,1568.0893,1570.2777,return,0.4872,,50.13020833,,,,,,FBP-PT-91.png,0.4,1.2,13,0.5,,,,,,,,,,,,,,,,,,0,6,6,12,1,,,,,,,,,,,,,,,,,,,,,,,
,,,,,V2_009,18,Female,2024-03-01_12h35.04.051,jersey_experiment_5_v2,2023.2.2,Win32,85.47008547,,,,,,,,,,,,,,,,1570.278,1572.3718,1572.3719,1576.0897,return,3.2843,,54.296875,,,,,,FBP-PT-71.png,0.4,1.2,3,0.5,,,,,,,,,,,,,,,,,,0,7,7,2,1,,,,,,,,,,,,,,,,,,,,,,,
,,,,,V2_009,18,Female,2024-03-01_12h35.04.051,jersey_experiment_5_v2,2023.2.2,Win32,85.47008547,,,,,,,,,,,,,,,,1576.0899,1577.9367,1577.9368,1581.0545,return,0.4708,,24.73958333,,,,,,FBP-OG-81.png,0.37,1.2,22,0.25,,,,,,,,,,,,,,,,,,0,8,8,21,1,,,,,,,,,,,,,,,,,,,,,,,
,,,,,V2_009,18,Female,2024-03-01_12h35.04.051,jersey_experiment_5_v2,2023.2.2,Win32,85.47008547,,,,,,,,,,,,,,,,1581.0547,1582.9019,1582.902,1584.8548,return,0.8521,,75.390625,,,,,,FBP-OG-81.png,0.45,1.2,25,0.25,,,,,,,,,,,,,,,,,,0,9,9,24,1,,,,,,,,,,,,,,,,,,,,,,,
,,,,,V2_009,18,Female,2024-03-01_12h35.04.051,jersey_experiment_5_v2,2023.2.2,Win32,85.47008547,,,,,,,,,,,,,,,,1584.855,1586.7017,1586.7017,1592.0902,return,1.6839,,77.47395833,,,,,,FBP-OG-71.png,0.43,1.2,19,0.25,,,,,,,,,,,,,,,,,,0,10,10,18,1,,,,,,,,,,,,,,,,,,,,,,,
,,,,,V2_009,18,Female,2024-03-01_12h35.04.051,jersey_experiment_5_v2,2023.2.2,Win32,85.47008547,,,,,,,,,,,,,,,,1592.0906,1593.9373,1593.9373,1598.7258,return,3.4998,,87.36979167,,,,,,FBP-OG-91.png,0.45,1.2,30,0.25,,,,,,,,,,,,,,,,,,0,11,11,29,1,,,,,,,,,,,,,,,,,,,,,,,
,,,,,V2_009,18,Female,2024-03-01_12h35.04.051,jersey_experiment_5_v2,2023.2.2,Win32,85.47008547,,,,,,,,,,,,,,,,1598.726,1600.5729,1600.573,1603.3024,return,0.7007,,74.86979167,,,,,,FBP-YG-19.png,0.43,1.2,59,0.25,,,,,,,,,,,,,,,,,,0,12,12,58,1,,,,,,,,,,,,,,,,,,,,,,,
,,,,,V2_009,18,Female,2024-03-01_12h35.04.051,jersey_experiment_5_v2,2023.2.2,Win32,85.47008547,,,,,,,,,,,,,,,,1603.3027,1605.3966,1605.3967,1610.3733,return,0.4547,,25.13020833,,,,,,FBP-PT-81.png,0.37,1.2,7,0.5,,,,,,,,,,,,,,,,,,0,13,13,6,1,,,,,,,,,,,,,,,,,,,,,,,
,,,,,V2_009,18,Female,2024-03-01_12h35.04.051,jersey_experiment_5_v2,2023.2.2,Win32,85.47008547,,,,,,,,,,,,,,,,1610.3734,1612.2204,1612.2204,1626.6798,return,5.1685,,62.36979167,,,,,,FBP-YG-17.png,0.37,1.2,47,0.25,,,,,,,,,,,,,,,,,,0,14,14,46,1,,,,,,,,,,,,,,,,,,,,,,,
,,,,,V2_009,18,Female,2024-03-01_12h35.04.051,jersey_experiment_5_v2,2023.2.2,Win32,85.47008547,,,,,,,,,,,,,,,,1626.68,1628.527,1628.527,1630.3505,return,0.4575,,75,,,,,,FBP-YG-17.png,0.43,1.2,49,0.25,,,,,,,,,,,,,,,,,,0,15,15,48,1,,,,,,,,,,,,,,,,,,,,,,,
,,,,,V2_009,18,Female,2024-03-01_12h35.04.051,jersey_experiment_5_v2,2023.2.2,Win32,85.47008547,,,,,,,,,,,,,,,,1630.3507,1632.1977,1632.1977,1633.8801,return,0.4387,,38.15104167,,,,,,FBP-RB-71.png,0.37,1.2,32,0.25,,,,,,,,,,,,,,,,,,0,16,16,31,1,,,,,,,,,,,,,,,,,,,,,,,
,,,,,V2_009,18,Female,2024-03-01_12h35.04.051,jersey_experiment_5_v2,2023.2.2,Win32,85.47008547,,,,,,,,,,,,,,,,1633.8803,1635.7272,1635.7272,1642.2687,return,1.0355,,25.390625,,,,,,FBP-OG-71.png,0.37,1.2,17,0.25,,,,,,,,,,,,,,,,,,0,17,17,16,1,,,,,,,,,,,,,,,,,,,,,,,
,,,,,V2_009,18,Female,2024-03-01_12h35.04.051,jersey_experiment_5_v2,2023.2.2,Win32,85.47008547,,,,,,,,,,,,,,,,1642.269,1644.1157,1644.1157,1647.6452,return,0.8104,,75,,,,,,FBP-RB-81.png,0.4,1.2,38,0.25,,,,,,,,,,,,,,,,,,0,18,18,37,1,,,,,,,,,,,,,,,,,,,,,,,
,,,,,V2_009,18,Female,2024-03-01_12h35.04.051,jersey_experiment_5_v2,2023.2.2,Win32,85.47008547,,,,,,,,,,,,,,,,1647.6454,1649.7394,1649.7394,1652.422,return,1.019,,85.41666667,,,,,,FBP-PT-71.png,0.43,1.2,4,0.5,,,,,,,,,,,,,,,,,,0,19,19,3,1,,,,,,,,,,,,,,,,,,,,,,,
,,,,,V2_009,18,Female,2024-03-01_12h35.04.051,jersey_experiment_5_v2,2023.2.2,Win32,85.47008547,,,,,,,,,,,,,,,,1652.4222,1654.2691,1654.2691,1657.4339,return,0.8975,,87.63020833,,,,,,FBP-RB-71.png,0.45,1.2,35,0.25,,,,,,,,,,,,,,,,,,0,20,20,34,1,,,,,,,,,,,,,,,,,,,,,,,
,,,,,V2_009,18,Female,2024-03-01_12h35.04.051,jersey_experiment_5_v2,2023.2.2,Win32,85.47008547,,,,,,,,,,,,,,,,1657.4341,1659.281,1659.281,1662.3164,return,0.884,,25.13020833,,,,,,FBP-RB-71.png,0.35,1.2,31,0.25,,,,,,,,,,,,,,,,,,0,21,21,30,1,,,,,,,,,,,,,,,,,,,,,,,
,,,,,V2_009,18,Female,2024-03-01_12h35.04.051,jersey_experiment_5_v2,2023.2.2,Win32,85.47008547,,,,,,,,,,,,,,,,1662.3166,1664.1634,1664.1635,1677.0817,return,0.5314,,25.13020833,,,,,,FBP-YG-19.png,0.35,1.2,56,0.25,,,,,,,,,,,,,,,,,,0,22,22,55,1,,,,,,,,,,,,,,,,,,,,,,,
,,,,,V2_009,18,Female,2024-03-01_12h35.04.051,jersey_experiment_5_v2,2023.2.2,Win32,85.47008547,,,,,,,,,,,,,,,,1677.0819,1678.9405,1678.9405,1681.2464,return,0.824,,90.625,,,,,,FBP-RB-71.png,0.43,1.2,34,0.25,,,,,,,,,,,,,,,,,,0,23,23,33,1,,,,,,,,,,,,,,,,,,,,,,,
,,,,,V2_009,18,Female,2024-03-01_12h35.04.051,jersey_experiment_5_v2,2023.2.2,Win32,85.47008547,,,,,,,,,,,,,,,,1681.2467,1683.0936,1683.0937,1684.8584,return,0.5184,,73.95833333,,,,,,FBP-YG-18.png,0.4,1.2,53,0.25,,,,,,,,,,,,,,,,,,0,24,24,52,1,,,,,,,,,,,,,,,,,,,,,,,
,,,,,V2_009,18,Female,2024-03-01_12h35.04.051,jersey_experiment_5_v2,2023.2.2,Win32,85.47008547,,,,,,,,,,,,,,,,1684.8587,1686.7055,1686.7055,1695.6588,return,5.9073,,21.484375,,,,,,FBP-OG-91.png,0.35,1.2,26,0.25,,,,,,,,,,,,,,,,,,0,25,25,25,1,,,,,,,,,,,,,,,,,,,,,,,
,,,,,V2_009,18,Female,2024-03-01_12h35.04.051,jersey_experiment_5_v2,2023.2.2,Win32,85.47008547,,,,,,,,,,,,,,,,1695.6589,1697.5059,1697.5059,1704.9415,return,1.7416,,25.390625,,,,,,FBP-RB-81.png,0.37,1.2,37,0.25,,,,,,,,,,,,,,,,,,0,26,26,36,1,,,,,,,,,,,,,,,,,,,,,,,
,,,,,V2_009,18,Female,2024-03-01_12h35.04.051,jersey_experiment_5_v2,2023.2.2,Win32,85.47008547,,,,,,,,,,,,,,,,1704.9417,1707.0358,1707.0358,1708.7416,return,0.4428,,78.515625,,,,,,FBP-PT-91.png,0.45,1.2,15,0.5,,,,,,,,,,,,,,,,,,0,27,27,14,1,,,,,,,,,,,,,,,,,,,,,,,
,,,,,V2_009,18,Female,2024-03-01_12h35.04.051,jersey_experiment_5_v2,2023.2.2,Win32,85.47008547,,,,,,,,,,,,,,,,1708.7418,1710.8359,1710.8359,1712.8476,return,0.4342,,25.13020833,,,,,,FBP-PT-71.png,0.35,1.2,1,0.5,,,,,,,,,,,,,,,,,,0,28,28,0,1,,,,,,,,,,,,,,,,,,,,,,,
,,,,,V2_009,18,Female,2024-03-01_12h35.04.051,jersey_experiment_5_v2,2023.2.2,Win32,85.47008547,,,,,,,,,,,,,,,,1712.8478,1714.6948,1714.6948,1723.9893,return,7.9964,,39.71354167,,,,,,FBP-YG-18.png,0.37,1.2,52,0.25,,,,,,,,,,,,,,,,,,0,29,29,51,1,,,,,,,,,,,,,,,,,,,,,,,
,,,,,V2_009,18,Female,2024-03-01_12h35.04.051,jersey_experiment_5_v2,2023.2.2,Win32,85.47008547,,,,,,,,,,,,,,,,1723.9895,1726.0836,1726.0836,1728.8601,return,0.8242,,84.11458333,,,,,,FBP-PT-71.png,0.45,1.2,5,0.5,,,,,,,,,,,,,,,,,,0,30,30,4,1,,,,,,,,,,,,,,,,,,,,,,,
,,,,,V2_009,18,Female,2024-03-01_12h35.04.051,jersey_experiment_5_v2,2023.2.2,Win32,85.47008547,,,,,,,,,,,,,,,,1728.8602,1730.7071,1730.7071,1734.0954,return,1.8224,,86.06770833,,,,,,FBP-OG-91.png,0.43,1.2,29,0.25,,,,,,,,,,,,,,,,,,0,31,31,28,1,,,,,,,,,,,,,,,,,,,,,,,
,,,,,V2_009,18,Female,2024-03-01_12h35.04.051,jersey_experiment_5_v2,2023.2.2,Win32,85.47008547,,,,,,,,,,,,,,,,1734.0956,1735.9426,1735.9427,1737.9663,return,1.1997,,86.06770833,,,,,,FBP-YG-17.png,0.45,1.2,50,0.25,,,,,,,,,,,,,,,,,,0,32,32,49,1,,,,,,,,,,,,,,,,,,,,,,,
,,,,,V2_009,18,Female,2024-03-01_12h35.04.051,jersey_experiment_5_v2,2023.2.2,Win32,85.47008547,,,,,,,,,,,,,,,,1737.9666,1739.8133,1739.8133,1741.9664,return,0.6592,,74.86979167,,,,,,FBP-YG-19.png,0.4,1.2,58,0.25,,,,,,,,,,,,,,,,,,0,33,33,57,1,,,,,,,,,,,,,,,,,,,,,,,
,,,,,V2_009,18,Female,2024-03-01_12h35.04.051,jersey_experiment_5_v2,2023.2.2,Win32,85.47008547,,,,,,,,,,,,,,,,1741.9666,1743.8134,1743.8135,1745.743,return,0.8576,,92.05729167,,,,,,FBP-RB-81.png,0.45,1.2,40,0.25,,,,,,,,,,,,,,,,,,0,34,34,39,1,,,,,,,,,,,,,,,,,,,,,,,
,,,,,V2_009,18,Female,2024-03-01_12h35.04.051,jersey_experiment_5_v2,2023.2.2,Win32,85.47008547,,,,,,,,,,,,,,,,1745.7431,1747.8371,1747.8372,1753.4138,return,2.7694,,87.5,,,,,,FBP-PT-81.png,0.45,1.2,10,0.5,,,,,,,,,,,,,,,,,,0,35,35,9,1,,,,,,,,,,,,,,,,,,,,,,,
,,,,,V2_009,18,Female,2024-03-01_12h35.04.051,jersey_experiment_5_v2,2023.2.2,Win32,85.47008547,,,,,,,,,,,,,,,,1753.414,1755.2727,1755.2727,1759.167,return,0.4461,,78.90625,,,,,,FBP-YG-18.png,0.43,1.2,54,0.25,,,,,,,,,,,,,,,,,,0,36,36,53,1,,,,,,,,,,,,,,,,,,,,,,,
,,,,,V2_009,18,Female,2024-03-01_12h35.04.051,jersey_experiment_5_v2,2023.2.2,Win32,85.47008547,,,,,,,,,,,,,,,,1759.1671,1761.014,1761.0141,1772.0733,return,1.8967,,33.07291667,,,,,,FBP-OG-81.png,0.4,1.2,23,0.25,,,,,,,,,,,,,,,,,,0,37,37,22,1,,,,,,,,,,,,,,,,,,,,,,,
,,,,,V2_009,18,Female,2024-03-01_12h35.04.051,jersey_experiment_5_v2,2023.2.2,Win32,85.47008547,,,,,,,,,,,,,,,,1772.0736,1774.1793,1774.1794,1776.5205,return,1.1202,,11.71875,,,,,,FBP-PT-81.png,0.35,1.2,6,0.5,,,,,,,,,,,,,,,,,,0,38,38,5,1,,,,,,,,,,,,,,,,,,,,,,,
,,,,,V2_009,18,Female,2024-03-01_12h35.04.051,jersey_experiment_5_v2,2023.2.2,Win32,85.47008547,,,,,,,,,,,,,,,,1776.5207,1778.3676,1778.3677,1780.2502,return,0.485,,50.13020833,,,,,,FBP-RB-91.png,0.4,1.2,43,0.25,,,,,,,,,,,,,,,,,,0,39,39,42,1,,,,,,,,,,,,,,,,,,,,,,,
,,,,,V2_009,18,Female,2024-03-01_12h35.04.051,jersey_experiment_5_v2,2023.2.2,Win32,85.47008547,,,,,,,,,,,,,,,,1780.2504,1782.356,1782.3561,1784.0738,return,0.9541,,43.75,,,,,,FBP-PT-71.png,0.37,1.2,2,0.5,,,,,,,,,,,,,,,,,,0,40,40,1,1,,,,,,,,,,,,,,,,,,,,,,,
,,,,,V2_009,18,Female,2024-03-01_12h35.04.051,jersey_experiment_5_v2,2023.2.2,Win32,85.47008547,,,,,,,,,,,,,,,,1784.074,1785.9326,1785.9327,1792.6624,return,5.8528,,40.625,,,,,,FBP-OG-71.png,0.35,1.2,16,0.25,,,,,,,,,,,,,,,,,,0,41,41,15,1,,,,,,,,,,,,,,,,,,,,,,,
,,,,,V2_009,18,Female,2024-03-01_12h35.04.051,jersey_experiment_5_v2,2023.2.2,Win32,85.47008547,,,,,,,,,,,,,,,,1792.6626,1794.5095,1794.5096,1834.2874,return,34.2839,,52.60416667,,,,,,FBP-OG-71.png,0.4,1.2,18,0.25,,,,,,,,,,,,,,,,,,0,42,42,17,1,,,,,,,,,,,,,,,,,,,,,,,
,,,,,V2_009,18,Female,2024-03-01_12h35.04.051,jersey_experiment_5_v2,2023.2.2,Win32,85.47008547,,,,,,,,,,,,,,,,1834.2876,1836.1463,1836.1463,1845.3702,return,3.3312,,28.25520833,,,,,,FBP-YG-19.png,0.37,1.2,57,0.25,,,,,,,,,,,,,,,,,,0,43,43,56,1,,,,,,,,,,,,,,,,,,,,,,,
,,,,,V2_009,18,Female,2024-03-01_12h35.04.051,jersey_experiment_5_v2,2023.2.2,Win32,85.47008547,,,,,,,,,,,,,,,,1845.3704,1847.2173,1847.2173,1863.1474,return,9.4124,,25,,,,,,FBP-RB-91.png,0.35,1.2,41,0.25,,,,,,,,,,,,,,,,,,0,44,44,40,1,,,,,,,,,,,,,,,,,,,,,,,
,,,,,V2_009,18,Female,2024-03-01_12h35.04.051,jersey_experiment_5_v2,2023.2.2,Win32,85.47008547,,,,,,,,,,,,,,,,1863.1519,1864.9944,1864.9944,1868.4416,return,0.9093,,76.69270833,,,,,,FBP-RB-91.png,0.43,1.2,44,0.25,,,,,,,,,,,,,,,,,,0,45,45,43,1,,,,,,,,,,,,,,,,,,,,,,,
,,,,,V2_009,18,Female,2024-03-01_12h35.04.051,jersey_experiment_5_v2,2023.2.2,Win32,85.47008547,,,,,,,,,,,,,,,,1868.4419,1870.3005,1870.3005,1872.477,return,0.6219,,25.13020833,,,,,,FBP-OG-81.png,0.35,1.2,21,0.25,,,,,,,,,,,,,,,,,,0,46,46,20,1,,,,,,,,,,,,,,,,,,,,,,,
,,,,,V2_009,18,Female,2024-03-01_12h35.04.051,jersey_experiment_5_v2,2023.2.2,Win32,85.47008547,,,,,,,,,,,,,,,,1872.4772,1874.3242,1874.3242,1876.3949,return,0.7443,,75,,,,,,FBP-RB-81.png,0.43,1.2,39,0.25,,,,,,,,,,,,,,,,,,0,47,47,38,1,,,,,,,,,,,,,,,,,,,,,,,
,,,,,V2_009,18,Female,2024-03-01_12h35.04.051,jersey_experiment_5_v2,2023.2.2,Win32,85.47008547,,,,,,,,,,,,,,,,1876.3952,1878.2419,1878.2419,1879.6773,return,0.5278,,82.94270833,,,,,,FBP-RB-91.png,0.45,1.2,45,0.25,,,,,,,,,,,,,,,,,,0,48,48,44,1,,,,,,,,,,,,,,,,,,,,,,,
,,,,,V2_009,18,Female,2024-03-01_12h35.04.051,jersey_experiment_5_v2,2023.2.2,Win32,85.47008547,,,,,,,,,,,,,,,,1879.6775,1881.5244,1881.5244,1883.4305,return,0.64,,74.86979167,,,,,,FBP-YG-17.png,0.4,1.2,48,0.25,,,,,,,,,,,,,,,,,,0,49,49,47,1,,,,,,,,,,,,,,,,,,,,,,,
,,,,,V2_009,18,Female,2024-03-01_12h35.04.051,jersey_experiment_5_v2,2023.2.2,Win32,85.47008547,,,,,,,,,,,,,,,,1883.4306,1885.5245,1885.5245,1886.7012,return,0.7759,,74.86979167,,,,,,FBP-PT-81.png,0.4,1.2,8,0.5,,,,,,,,,,,,,,,,,,0,50,50,7,1,,,,,,,,,,,,,,,,,,,,,,,
,,,,,V2_009,18,Female,2024-03-01_12h35.04.051,jersey_experiment_5_v2,2023.2.2,Win32,85.47008547,,,,,,,,,,,,,,,,1886.7014,1888.56,1888.56,1906.2665,return,0.7084,,52.21354167,,,,,,FBP-YG-17.png,0.35,1.2,46,0.25,,,,,,,,,,,,,,,,,,0,51,51,45,1,,,,,,,,,,,,,,,,,,,,,,,
,,,,,V2_009,18,Female,2024-03-01_12h35.04.051,jersey_experiment_5_v2,2023.2.2,Win32,85.47008547,,,,,,,,,,,,,,,,1906.2666,1908.3606,1908.3607,1913.6079,return,0.9461,,25.52083333,,,,,,FBP-PT-91.png,0.35,1.2,11,0.5,,,,,,,,,,,,,,,,,,0,52,52,10,1,,,,,,,,,,,,,,,,,,,,,,,
,,,,,V2_009,18,Female,2024-03-01_12h35.04.051,jersey_experiment_5_v2,2023.2.2,Win32,85.47008547,,,,,,,,,,,,,,,,1913.6081,1915.4551,1915.4551,1918.2669,return,0.6375,,46.484375,,,,,,FBP-RB-91.png,0.37,1.2,42,0.25,,,,,,,,,,,,,,,,,,0,53,53,41,1,,,,,,,,,,,,,,,,,,,,,,,
,,,,,V2_009,18,Female,2024-03-01_12h35.04.051,jersey_experiment_5_v2,2023.2.2,Win32,85.47008547,,,,,,,,,,,,,,,,1918.2672,1920.1141,1920.1142,1923.2907,return,0.6021,,86.97916667,,,,,,FBP-YG-18.png,0.45,1.2,55,0.25,,,,,,,,,,,,,,,,,,0,54,54,54,1,,,,,,,,,,,,,,,,,,,,,,,
,,,,,V2_009,18,Female,2024-03-01_12h35.04.051,jersey_experiment_5_v2,2023.2.2,Win32,85.47008547,,,,,,,,,,,,,,,,1923.2908,1925.1495,1925.1496,1936.4088,return,5.7313,,69.01041667,,,,,,FBP-OG-91.png,0.4,1.2,28,0.25,,,,,,,,,,,,,,,,,,0,55,55,27,1,,,,,,,,,,,,,,,,,,,,,,,
,,,,,V2_009,18,Female,2024-03-01_12h35.04.051,jersey_experiment_5_v2,2023.2.2,Win32,85.47008547,,,,,,,,,,,,,,,,1936.413,1938.2676,1938.2676,1960.0215,return,5.5125,,58.72395833,,,,,,FBP-OG-91.png,0.37,1.2,27,0.25,,,,,,,,,,,,,,,,,,0,56,56,26,1,,,,,,,,,,,,,,,,,,,,,,,
,,,,,V2_009,18,Female,2024-03-01_12h35.04.051,jersey_experiment_5_v2,2023.2.2,Win32,85.47008547,,,,,,,,,,,,,,,,1960.0217,1962.1157,1962.1157,1969.0216,return,0.8091,,77.47395833,,,,,,FBP-PT-81.png,0.43,1.2,9,0.5,,,,,,,,,,,,,,,,,,0,57,57,8,1,,,,,,,,,,,,,,,,,,,,,,,
,,,,,V2_009,18,Female,2024-03-01_12h35.04.051,jersey_experiment_5_v2,2023.2.2,Win32,85.47008547,,,,,,,,,,,,,,,,1969.0217,1970.8806,1970.8806,1977.6928,return,1.944,,83.07291667,,,,,,FBP-OG-71.png,0.45,1.2,20,0.25,,,,,,,,,,,,,,,,,,0,58,58,19,1,,,,,,,,,,,,,,,,,,,,,,,
,,,,,V2_009,18,Female,2024-03-01_12h35.04.051,jersey_experiment_5_v2,2023.2.2,Win32,85.47008547,,,,,,,,,,,,,,,,1977.693,1979.5516,1979.5516,1991.9285,return,9.1225,,74.86979167,,,,,,FBP-OG-81.png,0.43,1.2,24,0.25,,,,,,,,,,,,,,,,,,0,59,59,23,1,,,,,,,,,,,,,,,,,,,,,,,
,,,,,V2_009,18,Female,2024-03-01_12h35.04.051,jersey_experiment_5_v2,2023.2.2,Win32,85.47008547,,,,,,,,,,,,,,,,,,,,,,,,,,,,,,,,,,,,,,,,,,,,,,,,,,,,,,,,1991.9333,1999.9172,return,7.9715,,,,,,,,,,,,,,,,,,,
,,,,,V2_009,18,Female,2024-03-01_12h35.04.051,jersey_experiment_5_v2,2023.2.2,Win32,85.47008547,,,,,,,,,,,,,,,,,,,,,,,,,,,,,,,,,,,,,,,,,,,,,,,,,,,,,,,,,,,,,1999.9172,2006.188,1,4.802,return,1.4487,,,,,,,,,,,,
,,,,,V2_009,18,Female,2024-03-01_12h35.04.051,jersey_experiment_5_v2,2023.2.2,Win32,85.47008547,,,,,,,,,,,,,,,,,,,,,,,,,,,,,,,,,,,,,,,,,,,,,,,,,,,,,,,,,,,,,,,,,,,,2006.1881,2054.2021,The effect of color on memory and judgement,right,39.8633,,,,,,
,,,,,V2_009,18,Female,2024-03-01_12h35.04.051,jersey_experiment_5_v2,2023.2.2,Win32,85.47008547,,,,,,,,,,,,,,,,,,,,,,,,,,,,,,,,,,,,,,,,,,,,,,,,,,,,,,,,,,,,,,,,,,,,,,,,,,2054.2021,2065.3197,return,11.109,