requirements.started,requirements.stopped,key_resp_3.keys,key_resp_3.rt,key_resp_3.duration,Subject ID,Age,Gender,date,expName,psychopyVersion,OS,frameRate,instructions1.started,instructions1.stopped,key_resp.keys,key_resp.rt,key_resp.duration,example.started,example.stopped,enter_2.keys,enter_2.rt,enter_2.duration,instructions2.started,instructions2.stopped,enter_3.keys,enter_3.rt,enter_3.duration,image.started,image.stopped,slider_2.started,slider_2.stopped,next.keys,next.rt,next.duration,slider.response,trial_block_1.thisRepN,trial_block_1.thisTrialN,trial_block_1.thisN,trial_block_1.thisIndex,trial_block_1.ran,Path,Width,Height,Index,Duration,trial_block_2.thisRepN,trial_block_2.thisTrialN,trial_block_2.thisN,trial_block_2.thisIndex,trial_block_2.ran,rest_break.started,rest_break.stopped,end_break.started,end_break.stopped,key_resp_5.keys,key_resp_5.rt,key_resp_5.duration,trial_block_3.thisRepN,trial_block_3.thisTrialN,trial_block_3.thisN,trial_block_3.thisIndex,trial_block_3.ran,trial_block_4.thisRepN,trial_block_4.thisTrialN,trial_block_4.thisN,trial_block_4.thisIndex,trial_block_4.ran,questions_intro.started,questions_intro.stopped,enter_12.keys,enter_12.rt,enter_12.duration,question2.started,question2.stopped,question_doingbest.response,question_doingbest.rt,enter_15.keys,enter_15.rt,enter_15.duration,pattern.started,pattern.stopped,pattern_2.text,enter_17.keys,enter_17.rt,enter_17.duration,thankyou.started,thankyou.stopped,enter_14.keys,enter_14.rt,enter_14.duration
1E-04,7.7587,return,7.7478,,V2_006,23,Male,2024-03-01_09h59.14.729,jersey_experiment_5_v2,2023.2.2,Win32,85.47008547,,,,,,,,,,,,,,,,,,,,,,,,,,,,,,,,,,,,,,,,,,,,,,,,,,,,,,,,,,,,,,,,,,,,,,,,,,,,,,
,,,,,V2_006,23,Male,2024-03-01_09h59.14.729,jersey_experiment_5_v2,2023.2.2,Win32,85.47008547,7.7588,13.4453,return,5.6702,,,,,,,,,,,,,,,,,,,,,,,,,,,,,,,,,,,,,,,,,,,,,,,,,,,,,,,,,,,,,,,,,,,,,,,,,,
,,,,,V2_006,23,Male,2024-03-01_09h59.14.729,jersey_experiment_5_v2,2023.2.2,Win32,85.47008547,,,,,,13.4455,18.6646,return,5.192,,,,,,,,,,,,,,,,,,,,,,,,,,,,,,,,,,,,,,,,,,,,,,,,,,,,,,,,,,,,,,,,,,,,,
,,,,,V2_006,23,Male,2024-03-01_09h59.14.729,jersey_experiment_5_v2,2023.2.2,Win32,85.47008547,,,,,,,,,,,18.6647,32.5593,return,13.8826,,,,,,,,,,,,,,,,,,,,,,,,,,,,,,,,,,,,,,,,,,,,,,,,,,,,,,,,,,,,,,,,
,,,,,V2_006,23,Male,2024-03-01_09h59.14.729,jersey_experiment_5_v2,2023.2.2,Win32,85.47008547,,,,,,,,,,,,,,,,32.5664,34.4181,34.4182,39.9948,return,3.4053,,24.609375,0,0,0,8,1,FBP-PT-18.png,0.43,1.2,9,0.25,,,,,,,,,,,,,,,,,,,,,,,,,,,,,,,,,,,,,,,,,,,,,
,,,,,V2_006,23,Male,2024-03-01_09h59.14.729,jersey_experiment_5_v2,2023.2.2,Win32,85.47008547,,,,,,,,,,,,,,,,39.9951,41.8418,41.8419,43.2654,return,0.2496,,75.390625,0,1,1,4,1,FBP-PT-17.png,0.45,1.2,5,0.25,,,,,,,,,,,,,,,,,,,,,,,,,,,,,,,,,,,,,,,,,,,,,
,,,,,V2_006,23,Male,2024-03-01_09h59.14.729,jersey_experiment_5_v2,2023.2.2,Win32,85.47008547,,,,,,,,,,,,,,,,43.2656,45.3597,45.3598,46.0302,return,0.1525,,27.60416667,0,2,2,20,1,FBP-OG-18.png,0.35,1.2,21,0.5,,,,,,,,,,,,,,,,,,,,,,,,,,,,,,,,,,,,,,,,,,,,,
,,,,,V2_006,23,Male,2024-03-01_09h59.14.729,jersey_experiment_5_v2,2023.2.2,Win32,85.47008547,,,,,,,,,,,,,,,,46.0304,47.8891,47.8891,48.6183,return,0.17,,50.78125,0,3,3,11,1,FBP-PT-19.png,0.37,1.2,12,0.25,,,,,,,,,,,,,,,,,,,,,,,,,,,,,,,,,,,,,,,,,,,,,
,,,,,V2_006,23,Male,2024-03-01_09h59.14.729,jersey_experiment_5_v2,2023.2.2,Win32,85.47008547,,,,,,,,,,,,,,,,48.6185,50.4659,50.4659,50.9598,return,0.1653,,64.19270833,0,4,4,7,1,FBP-PT-18.png,0.4,1.2,8,0.25,,,,,,,,,,,,,,,,,,,,,,,,,,,,,,,,,,,,,,,,,,,,,
,,,,,V2_006,23,Male,2024-03-01_09h59.14.729,jersey_experiment_5_v2,2023.2.2,Win32,85.47008547,,,,,,,,,,,,,,,,50.9601,52.8069,52.8069,53.2067,return,0.1118,,70.96354167,0,5,5,14,1,FBP-PT-19.png,0.45,1.2,15,0.25,,,,,,,,,,,,,,,,,,,,,,,,,,,,,,,,,,,,,,,,,,,,,
,,,,,V2_006,23,Male,2024-03-01_09h59.14.729,jersey_experiment_5_v2,2023.2.2,Win32,85.47008547,,,,,,,,,,,,,,,,53.2068,55.3009,55.301,55.7599,return,0.1084,,71.09375,0,6,6,43,1,FBP-RB-19.png,0.43,1.2,44,0.5,,,,,,,,,,,,,,,,,,,,,,,,,,,,,,,,,,,,,,,,,,,,,
,,,,,V2_006,23,Male,2024-03-01_09h59.14.729,jersey_experiment_5_v2,2023.2.2,Win32,85.47008547,,,,,,,,,,,,,,,,55.7601,57.8542,57.8543,58.5247,return,0.0972,,40.36458333,0,7,7,27,1,FBP-OG-19.png,0.4,1.2,28,0.5,,,,,,,,,,,,,,,,,,,,,,,,,,,,,,,,,,,,,,,,,,,,,
,,,,,V2_006,23,Male,2024-03-01_09h59.14.729,jersey_experiment_5_v2,2023.2.2,Win32,85.47008547,,,,,,,,,,,,,,,,58.5249,60.3718,60.3719,60.8895,return,0.1356,,40.36458333,0,8,8,3,1,FBP-PT-17.png,0.43,1.2,4,0.25,,,,,,,,,,,,,,,,,,,,,,,,,,,,,,,,,,,,,,,,,,,,,
,,,,,V2_006,23,Male,2024-03-01_09h59.14.729,jersey_experiment_5_v2,2023.2.2,Win32,85.47008547,,,,,,,,,,,,,,,,60.8897,62.9836,62.9836,63.5131,return,0.1713,,34.63541667,0,9,9,41,1,FBP-RB-19.png,0.37,1.2,42,0.5,,,,,,,,,,,,,,,,,,,,,,,,,,,,,,,,,,,,,,,,,,,,,
,,,,,V2_006,23,Male,2024-03-01_09h59.14.729,jersey_experiment_5_v2,2023.2.2,Win32,85.47008547,,,,,,,,,,,,,,,,63.5133,65.3603,65.3603,65.8308,return,0.1009,,34.63541667,0,10,10,10,1,FBP-PT-19.png,0.35,1.2,11,0.25,,,,,,,,,,,,,,,,,,,,,,,,,,,,,,,,,,,,,,,,,,,,,
,,,,,V2_006,23,Male,2024-03-01_09h59.14.729,jersey_experiment_5_v2,2023.2.2,Win32,85.47008547,,,,,,,,,,,,,,,,65.8308,67.6896,67.6896,68.0779,return,0.0585,,22.91666667,0,11,11,6,1,FBP-PT-18.png,0.37,1.2,7,0.25,,,,,,,,,,,,,,,,,,,,,,,,,,,,,,,,,,,,,,,,,,,,,
,,,,,V2_006,23,Male,2024-03-01_09h59.14.729,jersey_experiment_5_v2,2023.2.2,Win32,85.47008547,,,,,,,,,,,,,,,,68.0781,70.1722,70.1723,70.8428,return,0.1204,,80.33854167,0,12,12,19,1,FBP-OG-17.png,0.45,1.2,20,0.5,,,,,,,,,,,,,,,,,,,,,,,,,,,,,,,,,,,,,,,,,,,,,
,,,,,V2_006,23,Male,2024-03-01_09h59.14.729,jersey_experiment_5_v2,2023.2.2,Win32,85.47008547,,,,,,,,,,,,,,,,70.8431,72.9372,72.9372,73.8076,return,0.0606,,57.29166667,0,13,13,31,1,FBP-RB-17.png,0.37,1.2,32,0.5,,,,,,,,,,,,,,,,,,,,,,,,,,,,,,,,,,,,,,,,,,,,,
,,,,,V2_006,23,Male,2024-03-01_09h59.14.729,jersey_experiment_5_v2,2023.2.2,Win32,85.47008547,,,,,,,,,,,,,,,,73.8077,75.902,75.9021,76.3605,return,0.0399,,79.42708333,0,14,14,44,1,FBP-RB-19.png,0.45,1.2,45,0.5,,,,,,,,,,,,,,,,,,,,,,,,,,,,,,,,,,,,,,,,,,,,,
,,,,,V2_006,23,Male,2024-03-01_09h59.14.729,jersey_experiment_5_v2,2023.2.2,Win32,85.47008547,,,,,,,,,,,,,,,,76.3607,78.4548,78.4549,78.8431,return,0.1908,,77.99479167,0,15,15,48,1,FBP-YG-71.png,0.43,1.2,49,0.5,,,,,,,,,,,,,,,,,,,,,,,,,,,,,,,,,,,,,,,,,,,,,
,,,,,V2_006,23,Male,2024-03-01_09h59.14.729,jersey_experiment_5_v2,2023.2.2,Win32,85.47008547,,,,,,,,,,,,,,,,78.8434,80.9375,80.9375,81.4666,return,0.0524,,25.52083333,0,16,16,40,1,FBP-RB-19.png,0.35,1.2,41,0.5,,,,,,,,,,,,,,,,,,,,,,,,,,,,,,,,,,,,,,,,,,,,,
,,,,,V2_006,23,Male,2024-03-01_09h59.14.729,jersey_experiment_5_v2,2023.2.2,Win32,85.47008547,,,,,,,,,,,,,,,,81.4668,83.561,83.561,83.9492,return,0.0477,,30.98958333,0,17,17,21,1,FBP-OG-18.png,0.37,1.2,22,0.5,,,,,,,,,,,,,,,,,,,,,,,,,,,,,,,,,,,,,,,,,,,,,
,,,,,V2_006,23,Male,2024-03-01_09h59.14.729,jersey_experiment_5_v2,2023.2.2,Win32,85.47008547,,,,,,,,,,,,,,,,83.9494,85.7963,85.7963,86.4314,return,0.1275,,41.53645833,0,18,18,1,1,FBP-PT-17.png,0.37,1.2,2,0.25,,,,,,,,,,,,,,,,,,,,,,,,,,,,,,,,,,,,,,,,,,,,,
,,,,,V2_006,23,Male,2024-03-01_09h59.14.729,jersey_experiment_5_v2,2023.2.2,Win32,85.47008547,,,,,,,,,,,,,,,,86.4315,88.5375,88.5376,89.1023,return,0.1319,,40.36458333,0,19,19,52,1,FBP-YG-81.png,0.4,1.2,53,0.5,,,,,,,,,,,,,,,,,,,,,,,,,,,,,,,,,,,,,,,,,,,,,
,,,,,V2_006,23,Male,2024-03-01_09h59.14.729,jersey_experiment_5_v2,2023.2.2,Win32,85.47008547,,,,,,,,,,,,,,,,89.1024,91.1965,91.1966,91.5966,return,0.0952,,68.22916667,0,20,20,17,1,FBP-OG-17.png,0.4,1.2,18,0.5,,,,,,,,,,,,,,,,,,,,,,,,,,,,,,,,,,,,,,,,,,,,,
,,,,,V2_006,23,Male,2024-03-01_09h59.14.729,jersey_experiment_5_v2,2023.2.2,Win32,85.47008547,,,,,,,,,,,,,,,,91.5968,93.4436,93.4437,94.5613,return,0.0941,,49.73958333,0,21,21,0,1,FBP-PT-17.png,0.35,1.2,1,0.25,,,,,,,,,,,,,,,,,,,,,,,,,,,,,,,,,,,,,,,,,,,,,
,,,,,V2_006,23,Male,2024-03-01_09h59.14.729,jersey_experiment_5_v2,2023.2.2,Win32,85.47008547,,,,,,,,,,,,,,,,94.5616,96.6672,96.6672,97.1379,return,0.0474,,58.33333333,0,22,22,35,1,FBP-RB-18.png,0.35,1.2,36,0.5,,,,,,,,,,,,,,,,,,,,,,,,,,,,,,,,,,,,,,,,,,,,,
,,,,,V2_006,23,Male,2024-03-01_09h59.14.729,jersey_experiment_5_v2,2023.2.2,Win32,85.47008547,,,,,,,,,,,,,,,,97.1381,99.232,99.2321,100.6086,return,0.744,,42.05729167,0,23,23,50,1,FBP-YG-81.png,0.35,1.2,51,0.5,,,,,,,,,,,,,,,,,,,,,,,,,,,,,,,,,,,,,,,,,,,,,
,,,,,V2_006,23,Male,2024-03-01_09h59.14.729,jersey_experiment_5_v2,2023.2.2,Win32,85.47008547,,,,,,,,,,,,,,,,100.6088,102.7028,102.7029,103.1027,return,0.1553,,42.05729167,0,24,24,51,1,FBP-YG-81.png,0.37,1.2,52,0.5,,,,,,,,,,,,,,,,,,,,,,,,,,,,,,,,,,,,,,,,,,,,,
,,,,,V2_006,23,Male,2024-03-01_09h59.14.729,jersey_experiment_5_v2,2023.2.2,Win32,85.47008547,,,,,,,,,,,,,,,,103.1029,105.1971,105.1971,105.6558,return,0.1115,,67.31770833,0,25,25,59,1,FBP-YG-91.png,0.45,1.2,60,0.5,,,,,,,,,,,,,,,,,,,,,,,,,,,,,,,,,,,,,,,,,,,,,
,,,,,V2_006,23,Male,2024-03-01_09h59.14.729,jersey_experiment_5_v2,2023.2.2,Win32,85.47008547,,,,,,,,,,,,,,,,105.656,107.7499,107.75,108.3147,return,0.0284,,39.84375,0,26,26,57,1,FBP-YG-91.png,0.4,1.2,58,0.5,,,,,,,,,,,,,,,,,,,,,,,,,,,,,,,,,,,,,,,,,,,,,
,,,,,V2_006,23,Male,2024-03-01_09h59.14.729,jersey_experiment_5_v2,2023.2.2,Win32,85.47008547,,,,,,,,,,,,,,,,108.3148,110.4089,110.4089,110.7618,return,0.0297,,39.84375,0,27,27,46,1,FBP-YG-71.png,0.37,1.2,47,0.5,,,,,,,,,,,,,,,,,,,,,,,,,,,,,,,,,,,,,,,,,,,,,
,,,,,V2_006,23,Male,2024-03-01_09h59.14.729,jersey_experiment_5_v2,2023.2.2,Win32,85.47008547,,,,,,,,,,,,,,,,110.7619,112.8678,112.8679,113.1855,return,0.1035,,39.84375,0,28,28,15,1,FBP-OG-17.png,0.35,1.2,16,0.5,,,,,,,,,,,,,,,,,,,,,,,,,,,,,,,,,,,,,,,,,,,,,
,,,,,V2_006,23,Male,2024-03-01_09h59.14.729,jersey_experiment_5_v2,2023.2.2,Win32,85.47008547,,,,,,,,,,,,,,,,113.1857,115.2915,115.2916,115.6326,return,0.0235,,39.84375,0,29,29,16,1,FBP-OG-17.png,0.37,1.2,17,0.5,,,,,,,,,,,,,,,,,,,,,,,,,,,,,,,,,,,,,,,,,,,,,
,,,,,V2_006,23,Male,2024-03-01_09h59.14.729,jersey_experiment_5_v2,2023.2.2,Win32,85.47008547,,,,,,,,,,,,,,,,115.6328,117.7268,117.7269,118.1386,return,0.0171,,84.24479167,0,30,30,24,1,FBP-OG-18.png,0.45,1.2,25,0.5,,,,,,,,,,,,,,,,,,,,,,,,,,,,,,,,,,,,,,,,,,,,,
,,,,,V2_006,23,Male,2024-03-01_09h59.14.729,jersey_experiment_5_v2,2023.2.2,Win32,85.47008547,,,,,,,,,,,,,,,,118.1388,120.2446,120.2447,121.3034,return,0.7379,,84.24479167,0,31,31,54,1,FBP-YG-81.png,0.45,1.2,55,0.5,,,,,,,,,,,,,,,,,,,,,,,,,,,,,,,,,,,,,,,,,,,,,
,,,,,V2_006,23,Male,2024-03-01_09h59.14.729,jersey_experiment_5_v2,2023.2.2,Win32,85.47008547,,,,,,,,,,,,,,,,121.3036,123.3977,123.3977,123.786,return,0.0271,,39.58333333,0,32,32,30,1,FBP-RB-17.png,0.35,1.2,31,0.5,,,,,,,,,,,,,,,,,,,,,,,,,,,,,,,,,,,,,,,,,,,,,
,,,,,V2_006,23,Male,2024-03-01_09h59.14.729,jersey_experiment_5_v2,2023.2.2,Win32,85.47008547,,,,,,,,,,,,,,,,123.7862,125.8804,125.8804,126.2684,return,0.0269,,63.02083333,0,33,33,42,1,FBP-RB-19.png,0.4,1.2,43,0.5,,,,,,,,,,,,,,,,,,,,,,,,,,,,,,,,,,,,,,,,,,,,,
,,,,,V2_006,23,Male,2024-03-01_09h59.14.729,jersey_experiment_5_v2,2023.2.2,Win32,85.47008547,,,,,,,,,,,,,,,,126.2687,128.3742,128.3744,128.9743,return,0.0575,,64.0625,0,34,34,29,1,FBP-OG-19.png,0.45,1.2,30,0.5,,,,,,,,,,,,,,,,,,,,,,,,,,,,,,,,,,,,,,,,,,,,,
,,,,,V2_006,23,Male,2024-03-01_09h59.14.729,jersey_experiment_5_v2,2023.2.2,Win32,85.47008547,,,,,,,,,,,,,,,,128.9745,131.0685,131.0686,131.5156,return,0.0135,,34.50520833,0,35,35,55,1,FBP-YG-91.png,0.35,1.2,56,0.5,,,,,,,,,,,,,,,,,,,,,,,,,,,,,,,,,,,,,,,,,,,,,
,,,,,V2_006,23,Male,2024-03-01_09h59.14.729,jersey_experiment_5_v2,2023.2.2,Win32,85.47008547,,,,,,,,,,,,,,,,131.5158,133.3745,133.3745,133.7275,return,0.0333,,38.15104167,0,36,36,12,1,FBP-PT-19.png,0.4,1.2,13,0.25,,,,,,,,,,,,,,,,,,,,,,,,,,,,,,,,,,,,,,,,,,,,,
,,,,,V2_006,23,Male,2024-03-01_09h59.14.729,jersey_experiment_5_v2,2023.2.2,Win32,85.47008547,,,,,,,,,,,,,,,,133.7277,135.8218,135.8218,136.2099,return,0.0481,,63.671875,0,37,37,47,1,FBP-YG-71.png,0.4,1.2,48,0.5,,,,,,,,,,,,,,,,,,,,,,,,,,,,,,,,,,,,,,,,,,,,,
,,,,,V2_006,23,Male,2024-03-01_09h59.14.729,jersey_experiment_5_v2,2023.2.2,Win32,85.47008547,,,,,,,,,,,,,,,,136.2101,138.3042,138.3043,139.2335,return,0.3623,,38.80208333,0,38,38,45,1,FBP-YG-71.png,0.35,1.2,46,0.5,,,,,,,,,,,,,,,,,,,,,,,,,,,,,,,,,,,,,,,,,,,,,
,,,,,V2_006,23,Male,2024-03-01_09h59.14.729,jersey_experiment_5_v2,2023.2.2,Win32,85.47008547,,,,,,,,,,,,,,,,139.2337,141.3278,141.3279,141.7748,return,0.0812,,67.1875,0,39,39,23,1,FBP-OG-18.png,0.43,1.2,24,0.5,,,,,,,,,,,,,,,,,,,,,,,,,,,,,,,,,,,,,,,,,,,,,
,,,,,V2_006,23,Male,2024-03-01_09h59.14.729,jersey_experiment_5_v2,2023.2.2,Win32,85.47008547,,,,,,,,,,,,,,,,141.775,143.8689,143.869,144.2338,return,0.0038,,67.1875,0,40,40,32,1,FBP-RB-17.png,0.4,1.2,33,0.5,,,,,,,,,,,,,,,,,,,,,,,,,,,,,,,,,,,,,,,,,,,,,
,,,,,V2_006,23,Male,2024-03-01_09h59.14.729,jersey_experiment_5_v2,2023.2.2,Win32,85.47008547,,,,,,,,,,,,,,,,144.234,146.0809,146.0809,146.4927,return,0.0618,,80.20833333,0,41,41,9,1,FBP-PT-18.png,0.45,1.2,10,0.25,,,,,,,,,,,,,,,,,,,,,,,,,,,,,,,,,,,,,,,,,,,,,
,,,,,V2_006,23,Male,2024-03-01_09h59.14.729,jersey_experiment_5_v2,2023.2.2,Win32,85.47008547,,,,,,,,,,,,,,,,146.4929,148.5869,148.5869,148.9986,return,0.0327,,68.88020833,0,42,42,33,1,FBP-RB-17.png,0.43,1.2,34,0.5,,,,,,,,,,,,,,,,,,,,,,,,,,,,,,,,,,,,,,,,,,,,,
,,,,,V2_006,23,Male,2024-03-01_09h59.14.729,jersey_experiment_5_v2,2023.2.2,Win32,85.47008547,,,,,,,,,,,,,,,,148.9987,151.0929,151.0929,151.4222,return,0.011,,92.70833333,0,43,43,38,1,FBP-RB-18.png,0.43,1.2,39,0.5,,,,,,,,,,,,,,,,,,,,,,,,,,,,,,,,,,,,,,,,,,,,,
,,,,,V2_006,23,Male,2024-03-01_09h59.14.729,jersey_experiment_5_v2,2023.2.2,Win32,85.47008547,,,,,,,,,,,,,,,,151.4223,153.2694,153.2694,153.7986,return,0.0561,,37.890625,0,44,44,2,1,FBP-PT-17.png,0.4,1.2,3,0.25,,,,,,,,,,,,,,,,,,,,,,,,,,,,,,,,,,,,,,,,,,,,,
,,,,,V2_006,23,Male,2024-03-01_09h59.14.729,jersey_experiment_5_v2,2023.2.2,Win32,85.47008547,,,,,,,,,,,,,,,,153.7988,155.893,155.893,156.4929,return,0.0383,,42.31770833,0,45,45,37,1,FBP-RB-18.png,0.4,1.2,38,0.5,,,,,,,,,,,,,,,,,,,,,,,,,,,,,,,,,,,,,,,,,,,,,
,,,,,V2_006,23,Male,2024-03-01_09h59.14.729,jersey_experiment_5_v2,2023.2.2,Win32,85.47008547,,,,,,,,,,,,,,,,156.4932,158.5874,158.5874,158.9754,return,0.0099,,34.63541667,0,46,46,36,1,FBP-RB-18.png,0.37,1.2,37,0.5,,,,,,,,,,,,,,,,,,,,,,,,,,,,,,,,,,,,,,,,,,,,,
,,,,,V2_006,23,Male,2024-03-01_09h59.14.729,jersey_experiment_5_v2,2023.2.2,Win32,85.47008547,,,,,,,,,,,,,,,,158.9756,161.0816,161.0817,161.5756,return,0.0437,,73.17708333,0,47,47,34,1,FBP-RB-17.png,0.45,1.2,35,0.5,,,,,,,,,,,,,,,,,,,,,,,,,,,,,,,,,,,,,,,,,,,,,
,,,,,V2_006,23,Male,2024-03-01_09h59.14.729,jersey_experiment_5_v2,2023.2.2,Win32,85.47008547,,,,,,,,,,,,,,,,161.5758,163.67,163.67,164.1285,return,0.0096,,34.11458333,0,48,48,56,1,FBP-YG-91.png,0.37,1.2,57,0.5,,,,,,,,,,,,,,,,,,,,,,,,,,,,,,,,,,,,,,,,,,,,,
,,,,,V2_006,23,Male,2024-03-01_09h59.14.729,jersey_experiment_5_v2,2023.2.2,Win32,85.47008547,,,,,,,,,,,,,,,,164.1288,166.2227,166.2227,167.4582,return,0.0482,,27.86458333,0,49,49,25,1,FBP-OG-19.png,0.35,1.2,26,0.5,,,,,,,,,,,,,,,,,,,,,,,,,,,,,,,,,,,,,,,,,,,,,
,,,,,V2_006,23,Male,2024-03-01_09h59.14.729,jersey_experiment_5_v2,2023.2.2,Win32,85.47008547,,,,,,,,,,,,,,,,167.4584,169.3169,169.3169,169.7287,return,0.047,,27.86458333,0,50,50,5,1,FBP-PT-18.png,0.35,1.2,6,0.25,,,,,,,,,,,,,,,,,,,,,,,,,,,,,,,,,,,,,,,,,,,,,
,,,,,V2_006,23,Male,2024-03-01_09h59.14.729,jersey_experiment_5_v2,2023.2.2,Win32,85.47008547,,,,,,,,,,,,,,,,169.7289,171.823,171.823,172.4817,return,0.0095,,72.00520833,0,51,51,18,1,FBP-OG-17.png,0.43,1.2,19,0.5,,,,,,,,,,,,,,,,,,,,,,,,,,,,,,,,,,,,,,,,,,,,,
,,,,,V2_006,23,Male,2024-03-01_09h59.14.729,jersey_experiment_5_v2,2023.2.2,Win32,85.47008547,,,,,,,,,,,,,,,,172.4819,174.5761,174.5762,175.2467,return,0.1081,,34.765625,0,52,52,26,1,FBP-OG-19.png,0.37,1.2,27,0.5,,,,,,,,,,,,,,,,,,,,,,,,,,,,,,,,,,,,,,,,,,,,,
,,,,,V2_006,23,Male,2024-03-01_09h59.14.729,jersey_experiment_5_v2,2023.2.2,Win32,85.47008547,,,,,,,,,,,,,,,,175.2469,177.3409,177.3409,178.0231,return,0.0676,,33.85416667,0,53,53,58,1,FBP-YG-91.png,0.43,1.2,59,0.5,,,,,,,,,,,,,,,,,,,,,,,,,,,,,,,,,,,,,,,,,,,,,
,,,,,V2_006,23,Male,2024-03-01_09h59.14.729,jersey_experiment_5_v2,2023.2.2,Win32,85.47008547,,,,,,,,,,,,,,,,178.0234,180.1175,180.1176,180.6233,return,0.0564,,86.58854167,0,54,54,53,1,FBP-YG-81.png,0.43,1.2,54,0.5,,,,,,,,,,,,,,,,,,,,,,,,,,,,,,,,,,,,,,,,,,,,,
,,,,,V2_006,23,Male,2024-03-01_09h59.14.729,jersey_experiment_5_v2,2023.2.2,Win32,85.47008547,,,,,,,,,,,,,,,,180.6235,182.7293,182.7293,183.0821,return,0.0507,,82.16145833,0,55,55,28,1,FBP-OG-19.png,0.43,1.2,29,0.5,,,,,,,,,,,,,,,,,,,,,,,,,,,,,,,,,,,,,,,,,,,,,
,,,,,V2_006,23,Male,2024-03-01_09h59.14.729,jersey_experiment_5_v2,2023.2.2,Win32,85.47008547,,,,,,,,,,,,,,,,183.0824,184.941,184.941,185.2587,return,0.0287,,82.16145833,0,56,56,13,1,FBP-PT-19.png,0.43,1.2,14,0.25,,,,,,,,,,,,,,,,,,,,,,,,,,,,,,,,,,,,,,,,,,,,,
,,,,,V2_006,23,Male,2024-03-01_09h59.14.729,jersey_experiment_5_v2,2023.2.2,Win32,85.47008547,,,,,,,,,,,,,,,,185.259,187.3648,187.3648,187.8706,return,0.0721,,82.16145833,0,57,57,39,1,FBP-RB-18.png,0.45,1.2,40,0.5,,,,,,,,,,,,,,,,,,,,,,,,,,,,,,,,,,,,,,,,,,,,,
,,,,,V2_006,23,Male,2024-03-01_09h59.14.729,jersey_experiment_5_v2,2023.2.2,Win32,85.47008547,,,,,,,,,,,,,,,,187.8708,189.9766,189.9766,190.3999,return,0.0462,,82.16145833,0,58,58,49,1,FBP-YG-71.png,0.45,1.2,50,0.5,,,,,,,,,,,,,,,,,,,,,,,,,,,,,,,,,,,,,,,,,,,,,
,,,,,V2_006,23,Male,2024-03-01_09h59.14.729,jersey_experiment_5_v2,2023.2.2,Win32,85.47008547,,,,,,,,,,,,,,,,190.4002,192.4945,192.4945,192.9766,return,0.047,,33.07291667,0,59,59,22,1,FBP-OG-18.png,0.4,1.2,23,0.5,,,,,,,,,,,,,,,,,,,,,,,,,,,,,,,,,,,,,,,,,,,,,
,,,,,V2_006,23,Male,2024-03-01_09h59.14.729,jersey_experiment_5_v2,2023.2.2,Win32,85.47008547,,,,,,,,,,,,,,,,192.9784,194.8355,194.8355,195.2711,return,0.0445,,15.75520833,,,,,,FBP-PT-71.png,0.35,1.2,1,0.25,0,0,0,0,1,,,,,,,,,,,,,,,,,,,,,,,,,,,,,,,,,,,,,,,,
,,,,,V2_006,23,Male,2024-03-01_09h59.14.729,jersey_experiment_5_v2,2023.2.2,Win32,85.47008547,,,,,,,,,,,,,,,,195.2713,197.3653,197.3653,198.0474,return,0.0945,,61.19791667,,,,,,FBP-OG-71.png,0.4,1.2,18,0.5,0,1,1,17,1,,,,,,,,,,,,,,,,,,,,,,,,,,,,,,,,,,,,,,,,
,,,,,V2_006,23,Male,2024-03-01_09h59.14.729,jersey_experiment_5_v2,2023.2.2,Win32,85.47008547,,,,,,,,,,,,,,,,198.0478,200.1418,200.1419,200.624,return,0.0099,,13.15104167,,,,,,FBP-RB-91.png,0.35,1.2,41,0.5,0,2,2,40,1,,,,,,,,,,,,,,,,,,,,,,,,,,,,,,,,,,,,,,,,
,,,,,V2_006,23,Male,2024-03-01_09h59.14.729,jersey_experiment_5_v2,2023.2.2,Win32,85.47008547,,,,,,,,,,,,,,,,200.6242,202.73,202.7301,203.3419,return,0.0615,,73.046875,,,,,,FBP-RB-81.png,0.43,1.2,39,0.5,0,3,3,38,1,,,,,,,,,,,,,,,,,,,,,,,,,,,,,,,,,,,,,,,,
,,,,,V2_006,23,Male,2024-03-01_09h59.14.729,jersey_experiment_5_v2,2023.2.2,Win32,85.47008547,,,,,,,,,,,,,,,,203.3421,205.1888,205.1888,205.8242,return,0.0099,,12.36979167,,,,,,FBP-PT-81.png,0.35,1.2,6,0.25,0,4,4,5,1,,,,,,,,,,,,,,,,,,,,,,,,,,,,,,,,,,,,,,,,
,,,,,V2_006,23,Male,2024-03-01_09h59.14.729,jersey_experiment_5_v2,2023.2.2,Win32,85.47008547,,,,,,,,,,,,,,,,205.8244,207.9184,207.9184,208.942,return,0.4839,,58.984375,,,,,,FBP-RB-91.png,0.4,1.2,43,0.5,0,5,5,42,1,,,,,,,,,,,,,,,,,,,,,,,,,,,,,,,,,,,,,,,,
,,,,,V2_006,23,Male,2024-03-01_09h59.14.729,jersey_experiment_5_v2,2023.2.2,Win32,85.47008547,,,,,,,,,,,,,,,,208.9422,210.8008,210.8009,211.248,return,0.0237,,68.48958333,,,,,,FBP-PT-81.png,0.4,1.2,8,0.25,0,6,6,7,1,,,,,,,,,,,,,,,,,,,,,,,,,,,,,,,,,,,,,,,,
,,,,,V2_006,23,Male,2024-03-01_09h59.14.729,jersey_experiment_5_v2,2023.2.2,Win32,85.47008547,,,,,,,,,,,,,,,,211.2482,213.354,213.354,213.7422,return,0.0848,,72.13541667,,,,,,FBP-OG-81.png,0.43,1.2,24,0.5,0,7,7,23,1,,,,,,,,,,,,,,,,,,,,,,,,,,,,,,,,,,,,,,,,
,,,,,V2_006,23,Male,2024-03-01_09h59.14.729,jersey_experiment_5_v2,2023.2.2,Win32,85.47008547,,,,,,,,,,,,,,,,213.7426,215.8481,215.8481,216.4482,return,0.0615,,81.11979167,,,,,,FBP-RB-91.png,0.45,1.2,45,0.5,0,8,8,44,1,,,,,,,,,,,,,,,,,,,,,,,,,,,,,,,,,,,,,,,,
,,,,,V2_006,23,Male,2024-03-01_09h59.14.729,jersey_experiment_5_v2,2023.2.2,Win32,85.47008547,,,,,,,,,,,,,,,,216.4485,218.5424,218.5424,219.2247,return,0.0659,,70.44270833,,,,,,FBP-RB-71.png,0.35,1.2,31,0.5,0,9,9,30,1,,,,,,,,,,,,,,,,,,,,,,,,,,,,,,,,,,,,,,,,
,,,,,V2_006,23,Male,2024-03-01_09h59.14.729,jersey_experiment_5_v2,2023.2.2,Win32,85.47008547,,,,,,,,,,,,,,,,219.2249,221.3189,221.319,221.6718,return,0.0433,,77.99479167,,,,,,FBP-YG-18.png,0.43,1.2,54,0.5,0,10,10,53,1,,,,,,,,,,,,,,,,,,,,,,,,,,,,,,,,,,,,,,,,
,,,,,V2_006,23,Male,2024-03-01_09h59.14.729,jersey_experiment_5_v2,2023.2.2,Win32,85.47008547,,,,,,,,,,,,,,,,221.672,223.519,223.5191,223.978,return,0.0509,,59.50520833,,,,,,FBP-PT-71.png,0.43,1.2,4,0.25,0,11,11,3,1,,,,,,,,,,,,,,,,,,,,,,,,,,,,,,,,,,,,,,,,
,,,,,V2_006,23,Male,2024-03-01_09h59.14.729,jersey_experiment_5_v2,2023.2.2,Win32,85.47008547,,,,,,,,,,,,,,,,223.9782,226.0722,226.0723,226.366,return,0.0722,,67.1875,,,,,,FBP-YG-19.png,0.4,1.2,58,0.5,0,12,12,57,1,,,,,,,,,,,,,,,,,,,,,,,,,,,,,,,,,,,,,,,,
,,,,,V2_006,23,Male,2024-03-01_09h59.14.729,jersey_experiment_5_v2,2023.2.2,Win32,85.47008547,,,,,,,,,,,,,,,,226.3661,228.4722,228.4722,228.8486,return,0.0144,,67.1875,,,,,,FBP-RB-71.png,0.4,1.2,33,0.5,0,13,13,32,1,,,,,,,,,,,,,,,,,,,,,,,,,,,,,,,,,,,,,,,,
,,,,,V2_006,23,Male,2024-03-01_09h59.14.729,jersey_experiment_5_v2,2023.2.2,Win32,85.47008547,,,,,,,,,,,,,,,,228.8489,230.6957,230.6957,231.931,return,0.7459,,73.046875,,,,,,FBP-PT-71.png,0.45,1.2,5,0.25,0,14,14,4,1,,,,,,,,,,,,,,,,,,,,,,,,,,,,,,,,,,,,,,,,
,,,,,V2_006,23,Male,2024-03-01_09h59.14.729,jersey_experiment_5_v2,2023.2.2,Win32,85.47008547,,,,,,,,,,,,,,,,231.9313,233.7782,233.7783,234.1546,return,0.0524,,63.28125,,,,,,FBP-PT-91.png,0.37,1.2,12,0.25,0,15,15,11,1,,,,,,,,,,,,,,,,,,,,,,,,,,,,,,,,,,,,,,,,
,,,,,V2_006,23,Male,2024-03-01_09h59.14.729,jersey_experiment_5_v2,2023.2.2,Win32,85.47008547,,,,,,,,,,,,,,,,234.1548,236.2606,236.2606,237.0724,return,0.0942,,55.078125,,,,,,FBP-YG-18.png,0.4,1.2,53,0.5,0,16,16,52,1,,,,,,,,,,,,,,,,,,,,,,,,,,,,,,,,,,,,,,,,
,,,,,V2_006,23,Male,2024-03-01_09h59.14.729,jersey_experiment_5_v2,2023.2.2,Win32,85.47008547,,,,,,,,,,,,,,,,237.0726,238.9314,238.9314,239.3549,return,0.0049,,88.28125,,,,,,FBP-PT-81.png,0.45,1.2,10,0.25,0,17,17,9,1,,,,,,,,,,,,,,,,,,,,,,,,,,,,,,,,,,,,,,,,
,,,,,V2_006,23,Male,2024-03-01_09h59.14.729,jersey_experiment_5_v2,2023.2.2,Win32,85.47008547,,,,,,,,,,,,,,,,239.3551,241.4491,241.4491,242.3785,return,0.0266,,27.86458333,,,,,,FBP-OG-71.png,0.35,1.2,16,0.5,0,18,18,15,1,,,,,,,,,,,,,,,,,,,,,,,,,,,,,,,,,,,,,,,,
,,,,,V2_006,23,Male,2024-03-01_09h59.14.729,jersey_experiment_5_v2,2023.2.2,Win32,85.47008547,,,,,,,,,,,,,,,,242.3787,244.4729,244.4729,244.9903,return,0.0141,,68.75,,,,,,FBP-RB-71.png,0.45,1.2,35,0.5,0,19,19,34,1,,,,,,,,,,,,,,,,,,,,,,,,,,,,,,,,,,,,,,,,
,,,,,V2_006,23,Male,2024-03-01_09h59.14.729,jersey_experiment_5_v2,2023.2.2,Win32,85.47008547,,,,,,,,,,,,,,,,244.9905,246.8375,246.8376,247.3199,return,0.0203,,18.61979167,,,,,,FBP-PT-91.png,0.35,1.2,11,0.25,0,20,20,10,1,,,,,,,,,,,,,,,,,,,,,,,,,,,,,,,,,,,,,,,,
,,,,,V2_006,23,Male,2024-03-01_09h59.14.729,jersey_experiment_5_v2,2023.2.2,Win32,85.47008547,,,,,,,,,,,,,,,,247.3201,249.4259,249.426,250.0258,return,0.0884,,18.61979167,,,,,,FBP-OG-91.png,0.35,1.2,26,0.5,0,21,21,25,1,,,,,,,,,,,,,,,,,,,,,,,,,,,,,,,,,,,,,,,,
,,,,,V2_006,23,Male,2024-03-01_09h59.14.729,jersey_experiment_5_v2,2023.2.2,Win32,85.47008547,,,,,,,,,,,,,,,,250.026,252.1202,252.1202,252.5083,return,0.0505,,28.515625,,,,,,FBP-OG-81.png,0.4,1.2,23,0.5,0,22,22,22,1,,,,,,,,,,,,,,,,,,,,,,,,,,,,,,,,,,,,,,,,
,,,,,V2_006,23,Male,2024-03-01_09h59.14.729,jersey_experiment_5_v2,2023.2.2,Win32,85.47008547,,,,,,,,,,,,,,,,252.5086,254.6025,254.6025,255.1201,return,0.0564,,74.21875,,,,,,FBP-OG-81.png,0.45,1.2,25,0.5,0,23,23,24,1,,,,,,,,,,,,,,,,,,,,,,,,,,,,,,,,,,,,,,,,
,,,,,V2_006,23,Male,2024-03-01_09h59.14.729,jersey_experiment_5_v2,2023.2.2,Win32,85.47008547,,,,,,,,,,,,,,,,255.1203,256.9791,256.9791,257.3555,return,0.0375,,74.21875,,,,,,FBP-PT-81.png,0.43,1.2,9,0.25,0,24,24,8,1,,,,,,,,,,,,,,,,,,,,,,,,,,,,,,,,,,,,,,,,
,,,,,V2_006,23,Male,2024-03-01_09h59.14.729,jersey_experiment_5_v2,2023.2.2,Win32,85.47008547,,,,,,,,,,,,,,,,257.3556,259.2028,259.2029,259.5908,return,0.0417,,60.546875,,,,,,FBP-PT-81.png,0.37,1.2,7,0.25,0,25,25,6,1,,,,,,,,,,,,,,,,,,,,,,,,,,,,,,,,,,,,,,,,
,,,,,V2_006,23,Male,2024-03-01_09h59.14.729,jersey_experiment_5_v2,2023.2.2,Win32,85.47008547,,,,,,,,,,,,,,,,259.5911,261.6852,261.6852,262.2147,return,0.0306,,76.43229167,,,,,,FBP-RB-81.png,0.4,1.2,38,0.5,0,26,26,37,1,,,,,,,,,,,,,,,,,,,,,,,,,,,,,,,,,,,,,,,,
,,,,,V2_006,23,Male,2024-03-01_09h59.14.729,jersey_experiment_5_v2,2023.2.2,Win32,85.47008547,,,,,,,,,,,,,,,,262.2149,264.3088,264.3089,264.8616,return,0.0588,,55.33854167,,,,,,FBP-RB-81.png,0.35,1.2,36,0.5,0,27,27,35,1,,,,,,,,,,,,,,,,,,,,,,,,,,,,,,,,,,,,,,,,
,,,,,V2_006,23,Male,2024-03-01_09h59.14.729,jersey_experiment_5_v2,2023.2.2,Win32,85.47008547,,,,,,,,,,,,,,,,264.8619,266.9678,266.9679,267.9324,return,0.4953,,83.46354167,,,,,,FBP-OG-71.png,0.45,1.2,20,0.5,0,28,28,19,1,,,,,,,,,,,,,,,,,,,,,,,,,,,,,,,,,,,,,,,,
,,,,,V2_006,23,Male,2024-03-01_09h59.14.729,jersey_experiment_5_v2,2023.2.2,Win32,85.47008547,,,,,,,,,,,,,,,,267.9327,270.0267,270.0267,270.4266,return,0.0167,,68.09895833,,,,,,FBP-OG-71.png,0.43,1.2,19,0.5,0,29,29,18,1,,,,,,,,,,,,,,,,,,,,,,,,,,,,,,,,,,,,,,,,
,,,,,V2_006,23,Male,2024-03-01_09h59.14.729,jersey_experiment_5_v2,2023.2.2,Win32,85.47008547,,,,,,,,,,,,,,,,270.4267,272.2855,272.2856,272.7443,return,0.0169,,58.07291667,,,,,,FBP-PT-71.png,0.4,1.2,3,0.25,0,30,30,2,1,,,,,,,,,,,,,,,,,,,,,,,,,,,,,,,,,,,,,,,,
,,,,,V2_006,23,Male,2024-03-01_09h59.14.729,jersey_experiment_5_v2,2023.2.2,Win32,85.47008547,,,,,,,,,,,,,,,,272.7445,274.8505,274.8505,275.2975,return,0.0704,,45.05208333,,,,,,FBP-RB-71.png,0.43,1.2,34,0.5,0,31,31,33,1,,,,,,,,,,,,,,,,,,,,,,,,,,,,,,,,,,,,,,,,
,,,,,V2_006,23,Male,2024-03-01_09h59.14.729,jersey_experiment_5_v2,2023.2.2,Win32,85.47008547,,,,,,,,,,,,,,,,275.2977,277.3917,277.3918,277.7446,return,0.0141,,69.921875,,,,,,FBP-YG-17.png,0.45,1.2,50,0.5,0,32,32,49,1,,,,,,,,,,,,,,,,,,,,,,,,,,,,,,,,,,,,,,,,
,,,,,V2_006,23,Male,2024-03-01_09h59.14.729,jersey_experiment_5_v2,2023.2.2,Win32,85.47008547,,,,,,,,,,,,,,,,277.7449,279.8505,279.8505,280.4152,return,0.0243,,30.078125,,,,,,FBP-YG-19.png,0.37,1.2,57,0.5,0,33,33,56,1,,,,,,,,,,,,,,,,,,,,,,,,,,,,,,,,,,,,,,,,
,,,,,V2_006,23,Male,2024-03-01_09h59.14.729,jersey_experiment_5_v2,2023.2.2,Win32,85.47008547,,,,,,,,,,,,,,,,280.4153,282.5094,282.5094,282.8387,return,0.0184,,29.03645833,,,,,,FBP-RB-81.png,0.45,1.2,40,0.5,0,34,34,39,1,,,,,,,,,,,,,,,,,,,,,,,,,,,,,,,,,,,,,,,,
,,,,,V2_006,23,Male,2024-03-01_09h59.14.729,jersey_experiment_5_v2,2023.2.2,Win32,85.47008547,,,,,,,,,,,,,,,,282.8389,284.933,284.933,285.3448,return,0.0376,,62.76041667,,,,,,FBP-OG-91.png,0.45,1.2,30,0.5,0,35,35,29,1,,,,,,,,,,,,,,,,,,,,,,,,,,,,,,,,,,,,,,,,
,,,,,V2_006,23,Male,2024-03-01_09h59.14.729,jersey_experiment_5_v2,2023.2.2,Win32,85.47008547,,,,,,,,,,,,,,,,285.3451,287.4392,287.4392,287.8038,return,0.0274,,41.66666667,,,,,,FBP-OG-91.png,0.43,1.2,29,0.5,0,36,36,28,1,,,,,,,,,,,,,,,,,,,,,,,,,,,,,,,,,,,,,,,,
,,,,,V2_006,23,Male,2024-03-01_09h59.14.729,jersey_experiment_5_v2,2023.2.2,Win32,85.47008547,,,,,,,,,,,,,,,,287.804,289.898,289.898,290.2156,return,0.0198,,24.34895833,,,,,,FBP-RB-71.png,0.37,1.2,32,0.5,0,37,37,31,1,,,,,,,,,,,,,,,,,,,,,,,,,,,,,,,,,,,,,,,,
,,,,,V2_006,23,Male,2024-03-01_09h59.14.729,jersey_experiment_5_v2,2023.2.2,Win32,85.47008547,,,,,,,,,,,,,,,,290.2158,292.0744,292.0745,293.1921,return,0.6761,,18.61979167,,,,,,FBP-PT-71.png,0.37,1.2,2,0.25,0,38,38,1,1,,,,,,,,,,,,,,,,,,,,,,,,,,,,,,,,,,,,,,,,
,,,,,V2_006,23,Male,2024-03-01_09h59.14.729,jersey_experiment_5_v2,2023.2.2,Win32,85.47008547,,,,,,,,,,,,,,,,293.1923,295.2863,295.2864,295.9805,return,0.048,,23.17708333,,,,,,FBP-OG-81.png,0.37,1.2,22,0.5,0,39,39,21,1,,,,,,,,,,,,,,,,,,,,,,,,,,,,,,,,,,,,,,,,
,,,,,V2_006,23,Male,2024-03-01_09h59.14.729,jersey_experiment_5_v2,2023.2.2,Win32,85.47008547,,,,,,,,,,,,,,,,295.9807,298.0748,298.0748,299.8629,return,1.1598,,14.19270833,,,,,,FBP-YG-17.png,0.4,1.2,48,0.5,0,40,40,47,1,,,,,,,,,,,,,,,,,,,,,,,,,,,,,,,,,,,,,,,,
,,,,,V2_006,23,Male,2024-03-01_09h59.14.729,jersey_experiment_5_v2,2023.2.2,Win32,85.47008547,,,,,,,,,,,,,,,,299.863,301.9689,301.9689,302.3807,return,0.0712,,25,,,,,,FBP-OG-71.png,0.37,1.2,17,0.5,0,41,41,16,1,,,,,,,,,,,,,,,,,,,,,,,,,,,,,,,,,,,,,,,,
,,,,,V2_006,23,Male,2024-03-01_09h59.14.729,jersey_experiment_5_v2,2023.2.2,Win32,85.47008547,,,,,,,,,,,,,,,,302.381,304.475,304.475,304.8279,return,0.0015,,25,,,,,,FBP-RB-91.png,0.37,1.2,42,0.5,0,42,42,41,1,,,,,,,,,,,,,,,,,,,,,,,,,,,,,,,,,,,,,,,,
,,,,,V2_006,23,Male,2024-03-01_09h59.14.729,jersey_experiment_5_v2,2023.2.2,Win32,85.47008547,,,,,,,,,,,,,,,,304.8281,306.9338,306.9339,307.4397,return,0.0944,,83.72395833,,,,,,FBP-YG-19.png,0.45,1.2,60,0.5,0,43,43,59,1,,,,,,,,,,,,,,,,,,,,,,,,,,,,,,,,,,,,,,,,
,,,,,V2_006,23,Male,2024-03-01_09h59.14.729,jersey_experiment_5_v2,2023.2.2,Win32,85.47008547,,,,,,,,,,,,,,,,307.44,309.534,309.534,309.8632,return,0.1616,,70.05208333,,,,,,FBP-RB-91.png,0.43,1.2,44,0.5,0,44,44,43,1,,,,,,,,,,,,,,,,,,,,,,,,,,,,,,,,,,,,,,,,
,,,,,V2_006,23,Male,2024-03-01_09h59.14.729,jersey_experiment_5_v2,2023.2.2,Win32,85.47008547,,,,,,,,,,,,,,,,309.8635,311.9694,311.9694,312.2988,return,0.0143,,70.05208333,,,,,,FBP-YG-19.png,0.43,1.2,59,0.5,0,45,45,58,1,,,,,,,,,,,,,,,,,,,,,,,,,,,,,,,,,,,,,,,,
,,,,,V2_006,23,Male,2024-03-01_09h59.14.729,jersey_experiment_5_v2,2023.2.2,Win32,85.47008547,,,,,,,,,,,,,,,,312.2988,314.4047,314.4048,314.8282,return,0.0014,,33.85416667,,,,,,FBP-YG-17.png,0.35,1.2,46,0.5,0,46,46,45,1,,,,,,,,,,,,,,,,,,,,,,,,,,,,,,,,,,,,,,,,
,,,,,V2_006,23,Male,2024-03-01_09h59.14.729,jersey_experiment_5_v2,2023.2.2,Win32,85.47008547,,,,,,,,,,,,,,,,314.8285,316.9341,316.9342,317.7695,return,0.4742,,28.25520833,,,,,,FBP-OG-91.png,0.4,1.2,28,0.5,0,47,47,27,1,,,,,,,,,,,,,,,,,,,,,,,,,,,,,,,,,,,,,,,,
,,,,,V2_006,23,Male,2024-03-01_09h59.14.729,jersey_experiment_5_v2,2023.2.2,Win32,85.47008547,,,,,,,,,,,,,,,,317.7698,319.8754,319.8754,321.1932,return,0.1009,,26.953125,,,,,,FBP-YG-18.png,0.37,1.2,52,0.5,0,48,48,51,1,,,,,,,,,,,,,,,,,,,,,,,,,,,,,,,,,,,,,,,,
,,,,,V2_006,23,Male,2024-03-01_09h59.14.729,jersey_experiment_5_v2,2023.2.2,Win32,85.47008547,,,,,,,,,,,,,,,,321.1934,323.2992,323.2993,324.0639,return,0.457,,30.98958333,,,,,,FBP-OG-81.png,0.35,1.2,21,0.5,0,49,49,20,1,,,,,,,,,,,,,,,,,,,,,,,,,,,,,,,,,,,,,,,,
,,,,,V2_006,23,Male,2024-03-01_09h59.14.729,jersey_experiment_5_v2,2023.2.2,Win32,85.47008547,,,,,,,,,,,,,,,,324.064,325.9228,325.9229,326.4287,return,0.1185,,68.61979167,,,,,,FBP-PT-91.png,0.43,1.2,14,0.25,0,50,50,13,1,,,,,,,,,,,,,,,,,,,,,,,,,,,,,,,,,,,,,,,,
,,,,,V2_006,23,Male,2024-03-01_09h59.14.729,jersey_experiment_5_v2,2023.2.2,Win32,85.47008547,,,,,,,,,,,,,,,,326.4289,328.2759,328.2759,328.77,return,0.0944,,58.85416667,,,,,,FBP-PT-91.png,0.4,1.2,13,0.25,0,51,51,12,1,,,,,,,,,,,,,,,,,,,,,,,,,,,,,,,,,,,,,,,,
,,,,,V2_006,23,Male,2024-03-01_09h59.14.729,jersey_experiment_5_v2,2023.2.2,Win32,85.47008547,,,,,,,,,,,,,,,,328.7702,330.8759,330.8759,331.2171,return,0.0328,,58.85416667,,,,,,FBP-YG-18.png,0.45,1.2,55,0.5,0,52,52,54,1,,,,,,,,,,,,,,,,,,,,,,,,,,,,,,,,,,,,,,,,
,,,,,V2_006,23,Male,2024-03-01_09h59.14.729,jersey_experiment_5_v2,2023.2.2,Win32,85.47008547,,,,,,,,,,,,,,,,331.2173,333.3113,333.3113,334.0642,return,0.409,,31.11979167,,,,,,FBP-YG-17.png,0.37,1.2,47,0.5,0,53,53,46,1,,,,,,,,,,,,,,,,,,,,,,,,,,,,,,,,,,,,,,,,
,,,,,V2_006,23,Male,2024-03-01_09h59.14.729,jersey_experiment_5_v2,2023.2.2,Win32,85.47008547,,,,,,,,,,,,,,,,334.0644,336.1585,336.1586,336.6055,return,0.0022,,74.21875,,,,,,FBP-YG-17.png,0.43,1.2,49,0.5,0,54,54,48,1,,,,,,,,,,,,,,,,,,,,,,,,,,,,,,,,,,,,,,,,
,,,,,V2_006,23,Male,2024-03-01_09h59.14.729,jersey_experiment_5_v2,2023.2.2,Win32,85.47008547,,,,,,,,,,,,,,,,336.6057,338.7114,338.7115,339.3115,return,0.0569,,30.98958333,,,,,,FBP-YG-18.png,0.35,1.2,51,0.5,0,55,55,50,1,,,,,,,,,,,,,,,,,,,,,,,,,,,,,,,,,,,,,,,,
,,,,,V2_006,23,Male,2024-03-01_09h59.14.729,jersey_experiment_5_v2,2023.2.2,Win32,85.47008547,,,,,,,,,,,,,,,,339.3117,341.4176,341.4176,342.0175,return,0.0471,,32.29166667,,,,,,FBP-OG-91.png,0.37,1.2,27,0.5,0,56,56,26,1,,,,,,,,,,,,,,,,,,,,,,,,,,,,,,,,,,,,,,,,
,,,,,V2_006,23,Male,2024-03-01_09h59.14.729,jersey_experiment_5_v2,2023.2.2,Win32,85.47008547,,,,,,,,,,,,,,,,342.0177,344.1117,344.1117,344.441,return,0.0399,,23.95833333,,,,,,FBP-RB-81.png,0.37,1.2,37,0.5,0,57,57,36,1,,,,,,,,,,,,,,,,,,,,,,,,,,,,,,,,,,,,,,,,
,,,,,V2_006,23,Male,2024-03-01_09h59.14.729,jersey_experiment_5_v2,2023.2.2,Win32,85.47008547,,,,,,,,,,,,,,,,344.4413,346.5471,346.5471,346.8177,return,0.0471,,23.95833333,,,,,,FBP-YG-19.png,0.35,1.2,56,0.5,0,58,58,55,1,,,,,,,,,,,,,,,,,,,,,,,,,,,,,,,,,,,,,,,,
,,,,,V2_006,23,Male,2024-03-01_09h59.14.729,jersey_experiment_5_v2,2023.2.2,Win32,85.47008547,,,,,,,,,,,,,,,,346.818,348.6648,348.6649,349.9826,return,0.414,,90.10416667,,,,,,FBP-PT-91.png,0.45,1.2,15,0.25,0,59,59,14,1,,,,,,,,,,,,,,,,,,,,,,,,,,,,,,,,,,,,,,,,
,,,,,V2_006,23,Male,2024-03-01_09h59.14.729,jersey_experiment_5_v2,2023.2.2,Win32,85.47008547,,,,,,,,,,,,,,,,,,,,,,,,,,,,,,,,,,,,,,,349.9829,469.9755,,,,,,,,,,,,,,,,,,,,,,,,,,,,,,,,,,,,,,
,,,,,V2_006,23,Male,2024-03-01_09h59.14.729,jersey_experiment_5_v2,2023.2.2,Win32,85.47008547,,,,,,,,,,,,,,,,,,,,,,,,,,,,,,,,,,,,,,,,,469.9755,796.1288,return,326.141,,,,,,,,,,,,,,,,,,,,,,,,,,,,,,,,,,
,,,,,V2_006,23,Male,2024-03-01_09h59.14.729,jersey_experiment_5_v2,2023.2.2,Win32,85.47008547,,,,,,,,,,,,,,,,796.135,798.2343,798.2343,799.7285,return,0.5179,,64.97395833,,,,,,FBP-PT-18.png,0.45,1.2,10,0.5,,,,,,,,,,,,,0,0,0,9,1,,,,,,,,,,,,,,,,,,,,,,,,,,,,
,,,,,V2_006,23,Male,2024-03-01_09h59.14.729,jersey_experiment_5_v2,2023.2.2,Win32,85.47008547,,,,,,,,,,,,,,,,799.7288,801.5757,801.5757,802.305,return,0.0328,,36.97916667,,,,,,FBP-OG-19.png,0.35,1.2,26,0.25,,,,,,,,,,,,,0,1,1,25,1,,,,,,,,,,,,,,,,,,,,,,,,,,,,
,,,,,V2_006,23,Male,2024-03-01_09h59.14.729,jersey_experiment_5_v2,2023.2.2,Win32,85.47008547,,,,,,,,,,,,,,,,802.3052,804.1639,804.164,804.7522,return,0.0099,,73.69791667,,,,,,FBP-RB-19.png,0.45,1.2,45,0.25,,,,,,,,,,,,,0,2,2,44,1,,,,,,,,,,,,,,,,,,,,,,,,,,,,
,,,,,V2_006,23,Male,2024-03-01_09h59.14.729,jersey_experiment_5_v2,2023.2.2,Win32,85.47008547,,,,,,,,,,,,,,,,804.7524,806.6111,806.6111,807.6112,return,0.6282,,63.671875,,,,,,FBP-RB-17.png,0.4,1.2,33,0.25,,,,,,,,,,,,,0,3,3,32,1,,,,,,,,,,,,,,,,,,,,,,,,,,,,
,,,,,V2_006,23,Male,2024-03-01_09h59.14.729,jersey_experiment_5_v2,2023.2.2,Win32,85.47008547,,,,,,,,,,,,,,,,807.6114,809.4582,809.4582,809.8817,return,0.1,,75.91145833,,,,,,FBP-YG-81.png,0.45,1.2,55,0.25,,,,,,,,,,,,,0,4,4,54,1,,,,,,,,,,,,,,,,,,,,,,,,,,,,
,,,,,V2_006,23,Male,2024-03-01_09h59.14.729,jersey_experiment_5_v2,2023.2.2,Win32,85.47008547,,,,,,,,,,,,,,,,809.882,811.7291,811.7291,812.129,return,0.0235,,70.3125,,,,,,FBP-YG-91.png,0.43,1.2,59,0.25,,,,,,,,,,,,,0,5,5,58,1,,,,,,,,,,,,,,,,,,,,,,,,,,,,
,,,,,V2_006,23,Male,2024-03-01_09h59.14.729,jersey_experiment_5_v2,2023.2.2,Win32,85.47008547,,,,,,,,,,,,,,,,812.1292,814.2232,814.2232,814.8114,return,0.002,,40.234375,,,,,,FBP-PT-17.png,0.43,1.2,4,0.5,,,,,,,,,,,,,0,6,6,3,1,,,,,,,,,,,,,,,,,,,,,,,,,,,,
,,,,,V2_006,23,Male,2024-03-01_09h59.14.729,jersey_experiment_5_v2,2023.2.2,Win32,85.47008547,,,,,,,,,,,,,,,,814.8116,816.9172,816.9173,817.1997,return,0.0802,,24.86979167,,,,,,FBP-PT-18.png,0.35,1.2,6,0.5,,,,,,,,,,,,,0,7,7,5,1,,,,,,,,,,,,,,,,,,,,,,,,,,,,
,,,,,V2_006,23,Male,2024-03-01_09h59.14.729,jersey_experiment_5_v2,2023.2.2,Win32,85.47008547,,,,,,,,,,,,,,,,817.1998,819.2939,819.2939,819.6468,return,0.0337,,91.92708333,,,,,,FBP-PT-19.png,0.43,1.2,14,0.5,,,,,,,,,,,,,0,8,8,13,1,,,,,,,,,,,,,,,,,,,,,,,,,,,,
,,,,,V2_006,23,Male,2024-03-01_09h59.14.729,jersey_experiment_5_v2,2023.2.2,Win32,85.47008547,,,,,,,,,,,,,,,,819.6469,821.494,821.494,821.8468,return,0.0208,,79.81770833,,,,,,FBP-RB-17.png,0.45,1.2,35,0.25,,,,,,,,,,,,,0,9,9,34,1,,,,,,,,,,,,,,,,,,,,,,,,,,,,
,,,,,V2_006,23,Male,2024-03-01_09h59.14.729,jersey_experiment_5_v2,2023.2.2,Win32,85.47008547,,,,,,,,,,,,,,,,821.8471,823.7059,823.7059,824.094,return,0.011,,79.81770833,,,,,,FBP-OG-17.png,0.43,1.2,19,0.25,,,,,,,,,,,,,0,10,10,18,1,,,,,,,,,,,,,,,,,,,,,,,,,,,,
,,,,,V2_006,23,Male,2024-03-01_09h59.14.729,jersey_experiment_5_v2,2023.2.2,Win32,85.47008547,,,,,,,,,,,,,,,,824.0942,825.9412,825.9412,826.5883,return,0.0272,,38.54166667,,,,,,FBP-RB-18.png,0.37,1.2,37,0.25,,,,,,,,,,,,,0,11,11,36,1,,,,,,,,,,,,,,,,,,,,,,,,,,,,
,,,,,V2_006,23,Male,2024-03-01_09h59.14.729,jersey_experiment_5_v2,2023.2.2,Win32,85.47008547,,,,,,,,,,,,,,,,826.5886,828.4471,828.4472,828.7531,return,0.0003,,38.54166667,,,,,,FBP-OG-17.png,0.4,1.2,18,0.25,,,,,,,,,,,,,0,12,12,17,1,,,,,,,,,,,,,,,,,,,,,,,,,,,,
,,,,,V2_006,23,Male,2024-03-01_09h59.14.729,jersey_experiment_5_v2,2023.2.2,Win32,85.47008547,,,,,,,,,,,,,,,,828.7531,830.6003,830.6004,831.1767,return,0.0399,,45.703125,,,,,,FBP-OG-19.png,0.4,1.2,28,0.25,,,,,,,,,,,,,0,13,13,27,1,,,,,,,,,,,,,,,,,,,,,,,,,,,,
,,,,,V2_006,23,Male,2024-03-01_09h59.14.729,jersey_experiment_5_v2,2023.2.2,Win32,85.47008547,,,,,,,,,,,,,,,,831.1768,833.0355,833.0355,833.3414,return,0.0261,,63.54166667,,,,,,FBP-YG-81.png,0.43,1.2,54,0.25,,,,,,,,,,,,,0,14,14,53,1,,,,,,,,,,,,,,,,,,,,,,,,,,,,
,,,,,V2_006,23,Male,2024-03-01_09h59.14.729,jersey_experiment_5_v2,2023.2.2,Win32,85.47008547,,,,,,,,,,,,,,,,833.3416,835.4475,835.4475,835.8476,return,0.0302,,34.11458333,,,,,,FBP-PT-19.png,0.37,1.2,12,0.5,,,,,,,,,,,,,0,15,15,11,1,,,,,,,,,,,,,,,,,,,,,,,,,,,,
,,,,,V2_006,23,Male,2024-03-01_09h59.14.729,jersey_experiment_5_v2,2023.2.2,Win32,85.47008547,,,,,,,,,,,,,,,,835.8477,837.7063,837.7063,838.271,return,0.0614,,71.484375,,,,,,FBP-RB-18.png,0.45,1.2,40,0.25,,,,,,,,,,,,,0,16,16,39,1,,,,,,,,,,,,,,,,,,,,,,,,,,,,
,,,,,V2_006,23,Male,2024-03-01_09h59.14.729,jersey_experiment_5_v2,2023.2.2,Win32,85.47008547,,,,,,,,,,,,,,,,838.2712,840.1182,840.1182,840.8006,return,0.0559,,61.328125,,,,,,FBP-YG-91.png,0.37,1.2,57,0.25,,,,,,,,,,,,,0,17,17,56,1,,,,,,,,,,,,,,,,,,,,,,,,,,,,
,,,,,V2_006,23,Male,2024-03-01_09h59.14.729,jersey_experiment_5_v2,2023.2.2,Win32,85.47008547,,,,,,,,,,,,,,,,840.8007,842.8947,842.8947,843.5183,return,0.3529,,35.02604167,,,,,,FBP-PT-17.png,0.35,1.2,1,0.5,,,,,,,,,,,,,0,18,18,0,1,,,,,,,,,,,,,,,,,,,,,,,,,,,,
,,,,,V2_006,23,Male,2024-03-01_09h59.14.729,jersey_experiment_5_v2,2023.2.2,Win32,85.47008547,,,,,,,,,,,,,,,,843.5186,845.3773,845.3773,846.2948,return,0.3974,,63.41145833,,,,,,FBP-OG-18.png,0.45,1.2,25,0.25,,,,,,,,,,,,,0,19,19,24,1,,,,,,,,,,,,,,,,,,,,,,,,,,,,
,,,,,V2_006,23,Male,2024-03-01_09h59.14.729,jersey_experiment_5_v2,2023.2.2,Win32,85.47008547,,,,,,,,,,,,,,,,846.295,848.1538,848.1538,848.895,return,0.283,,39.453125,,,,,,FBP-YG-91.png,0.35,1.2,56,0.25,,,,,,,,,,,,,0,20,20,55,1,,,,,,,,,,,,,,,,,,,,,,,,,,,,
,,,,,V2_006,23,Male,2024-03-01_09h59.14.729,jersey_experiment_5_v2,2023.2.2,Win32,85.47008547,,,,,,,,,,,,,,,,848.8951,851.001,851.001,851.648,return,0.0568,,37.5,,,,,,FBP-PT-17.png,0.37,1.2,2,0.5,,,,,,,,,,,,,0,21,21,1,1,,,,,,,,,,,,,,,,,,,,,,,,,,,,
,,,,,V2_006,23,Male,2024-03-01_09h59.14.729,jersey_experiment_5_v2,2023.2.2,Win32,85.47008547,,,,,,,,,,,,,,,,851.6481,853.4952,853.4952,853.8363,return,0.0035,,37.5,,,,,,FBP-OG-18.png,0.35,1.2,21,0.25,,,,,,,,,,,,,0,22,22,20,1,,,,,,,,,,,,,,,,,,,,,,,,,,,,
,,,,,V2_006,23,Male,2024-03-01_09h59.14.729,jersey_experiment_5_v2,2023.2.2,Win32,85.47008547,,,,,,,,,,,,,,,,853.8365,855.6952,855.6952,855.9306,return,0.0147,,37.5,,,,,,FBP-RB-19.png,0.4,1.2,43,0.25,,,,,,,,,,,,,0,23,23,42,1,,,,,,,,,,,,,,,,,,,,,,,,,,,,
,,,,,V2_006,23,Male,2024-03-01_09h59.14.729,jersey_experiment_5_v2,2023.2.2,Win32,85.47008547,,,,,,,,,,,,,,,,855.9308,857.7776,857.7777,858.1542,return,0.0173,,37.5,,,,,,FBP-YG-71.png,0.35,1.2,46,0.25,,,,,,,,,,,,,0,24,24,45,1,,,,,,,,,,,,,,,,,,,,,,,,,,,,
,,,,,V2_006,23,Male,2024-03-01_09h59.14.729,jersey_experiment_5_v2,2023.2.2,Win32,85.47008547,,,,,,,,,,,,,,,,858.1544,860.0131,860.0131,860.4484,return,0.0563,,44.40104167,,,,,,FBP-OG-17.png,0.37,1.2,17,0.25,,,,,,,,,,,,,0,25,25,16,1,,,,,,,,,,,,,,,,,,,,,,,,,,,,
,,,,,V2_006,23,Male,2024-03-01_09h59.14.729,jersey_experiment_5_v2,2023.2.2,Win32,85.47008547,,,,,,,,,,,,,,,,860.4485,862.2955,862.2956,862.7191,return,0.0377,,44.40104167,,,,,,FBP-OG-19.png,0.37,1.2,27,0.25,,,,,,,,,,,,,0,26,26,26,1,,,,,,,,,,,,,,,,,,,,,,,,,,,,
,,,,,V2_006,23,Male,2024-03-01_09h59.14.729,jersey_experiment_5_v2,2023.2.2,Win32,85.47008547,,,,,,,,,,,,,,,,862.7192,864.578,864.578,864.9427,return,0.0575,,72.52604167,,,,,,FBP-OG-17.png,0.45,1.2,20,0.25,,,,,,,,,,,,,0,27,27,19,1,,,,,,,,,,,,,,,,,,,,,,,,,,,,
,,,,,V2_006,23,Male,2024-03-01_09h59.14.729,jersey_experiment_5_v2,2023.2.2,Win32,85.47008547,,,,,,,,,,,,,,,,864.9428,866.7901,866.7902,867.4487,return,0.3486,,40.88541667,,,,,,FBP-RB-19.png,0.37,1.2,42,0.25,,,,,,,,,,,,,0,28,28,41,1,,,,,,,,,,,,,,,,,,,,,,,,,,,,
,,,,,V2_006,23,Male,2024-03-01_09h59.14.729,jersey_experiment_5_v2,2023.2.2,Win32,85.47008547,,,,,,,,,,,,,,,,867.449,869.2957,869.2957,869.9782,return,0.3116,,32.8125,,,,,,FBP-YG-81.png,0.35,1.2,51,0.25,,,,,,,,,,,,,0,29,29,50,1,,,,,,,,,,,,,,,,,,,,,,,,,,,,
,,,,,V2_006,23,Male,2024-03-01_09h59.14.729,jersey_experiment_5_v2,2023.2.2,Win32,85.47008547,,,,,,,,,,,,,,,,869.9784,871.8369,871.837,872.1429,return,0.0102,,32.8125,,,,,,FBP-RB-18.png,0.35,1.2,36,0.25,,,,,,,,,,,,,0,30,30,35,1,,,,,,,,,,,,,,,,,,,,,,,,,,,,
,,,,,V2_006,23,Male,2024-03-01_09h59.14.729,jersey_experiment_5_v2,2023.2.2,Win32,85.47008547,,,,,,,,,,,,,,,,872.143,873.9901,873.9901,874.3312,return,0.0045,,72.265625,,,,,,FBP-YG-91.png,0.4,1.2,58,0.25,,,,,,,,,,,,,0,31,31,57,1,,,,,,,,,,,,,,,,,,,,,,,,,,,,
,,,,,V2_006,23,Male,2024-03-01_09h59.14.729,jersey_experiment_5_v2,2023.2.2,Win32,85.47008547,,,,,,,,,,,,,,,,874.3314,876.4255,876.4255,876.7195,return,0.0377,,79.81770833,,,,,,FBP-PT-19.png,0.45,1.2,15,0.5,,,,,,,,,,,,,0,32,32,14,1,,,,,,,,,,,,,,,,,,,,,,,,,,,,
,,,,,V2_006,23,Male,2024-03-01_09h59.14.729,jersey_experiment_5_v2,2023.2.2,Win32,85.47008547,,,,,,,,,,,,,,,,876.7197,878.5666,878.5667,878.8254,return,0.0399,,69.66145833,,,,,,FBP-RB-17.png,0.43,1.2,34,0.25,,,,,,,,,,,,,0,33,33,33,1,,,,,,,,,,,,,,,,,,,,,,,,,,,,
,,,,,V2_006,23,Male,2024-03-01_09h59.14.729,jersey_experiment_5_v2,2023.2.2,Win32,85.47008547,,,,,,,,,,,,,,,,878.8256,880.9315,880.9315,881.4845,return,0.0126,,36.19791667,,,,,,FBP-PT-19.png,0.4,1.2,13,0.5,,,,,,,,,,,,,0,34,34,12,1,,,,,,,,,,,,,,,,,,,,,,,,,,,,
,,,,,V2_006,23,Male,2024-03-01_09h59.14.729,jersey_experiment_5_v2,2023.2.2,Win32,85.47008547,,,,,,,,,,,,,,,,881.4847,883.3317,883.3318,883.6727,return,0.0071,,61.84895833,,,,,,FBP-YG-91.png,0.45,1.2,60,0.25,,,,,,,,,,,,,0,35,35,59,1,,,,,,,,,,,,,,,,,,,,,,,,,,,,
,,,,,V2_006,23,Male,2024-03-01_09h59.14.729,jersey_experiment_5_v2,2023.2.2,Win32,85.47008547,,,,,,,,,,,,,,,,883.6729,885.52,885.52,885.8491,return,0.0183,,59.765625,,,,,,FBP-YG-71.png,0.43,1.2,49,0.25,,,,,,,,,,,,,0,36,36,48,1,,,,,,,,,,,,,,,,,,,,,,,,,,,,
,,,,,V2_006,23,Male,2024-03-01_09h59.14.729,jersey_experiment_5_v2,2023.2.2,Win32,85.47008547,,,,,,,,,,,,,,,,885.8493,887.708,887.7081,888.367,return,0.3298,,71.74479167,,,,,,FBP-OG-19.png,0.45,1.2,30,0.25,,,,,,,,,,,,,0,37,37,29,1,,,,,,,,,,,,,,,,,,,,,,,,,,,,
,,,,,V2_006,23,Male,2024-03-01_09h59.14.729,jersey_experiment_5_v2,2023.2.2,Win32,85.47008547,,,,,,,,,,,,,,,,888.3672,890.473,890.473,890.6965,return,0.0191,,71.74479167,,,,,,FBP-PT-17.png,0.45,1.2,5,0.5,,,,,,,,,,,,,0,38,38,4,1,,,,,,,,,,,,,,,,,,,,,,,,,,,,
,,,,,V2_006,23,Male,2024-03-01_09h59.14.729,jersey_experiment_5_v2,2023.2.2,Win32,85.47008547,,,,,,,,,,,,,,,,890.6968,892.8025,892.8026,893.3906,return,0.001,,53.38541667,,,,,,FBP-PT-18.png,0.4,1.2,8,0.5,,,,,,,,,,,,,0,39,39,7,1,,,,,,,,,,,,,,,,,,,,,,,,,,,,
,,,,,V2_006,23,Male,2024-03-01_09h59.14.729,jersey_experiment_5_v2,2023.2.2,Win32,85.47008547,,,,,,,,,,,,,,,,893.3908,895.2497,895.2497,895.6496,return,0.0098,,61.06770833,,,,,,FBP-RB-19.png,0.43,1.2,44,0.25,,,,,,,,,,,,,0,40,40,43,1,,,,,,,,,,,,,,,,,,,,,,,,,,,,
,,,,,V2_006,23,Male,2024-03-01_09h59.14.729,jersey_experiment_5_v2,2023.2.2,Win32,85.47008547,,,,,,,,,,,,,,,,895.65,897.7438,897.7438,898.1204,return,0.0073,,59.765625,,,,,,FBP-PT-18.png,0.43,1.2,9,0.5,,,,,,,,,,,,,0,41,41,8,1,,,,,,,,,,,,,,,,,,,,,,,,,,,,
,,,,,V2_006,23,Male,2024-03-01_09h59.14.729,jersey_experiment_5_v2,2023.2.2,Win32,85.47008547,,,,,,,,,,,,,,,,898.1206,899.9675,899.9676,900.3205,return,0.0007,,59.765625,,,,,,FBP-OG-19.png,0.43,1.2,29,0.25,,,,,,,,,,,,,0,42,42,28,1,,,,,,,,,,,,,,,,,,,,,,,,,,,,
,,,,,V2_006,23,Male,2024-03-01_09h59.14.729,jersey_experiment_5_v2,2023.2.2,Win32,85.47008547,,,,,,,,,,,,,,,,900.3207,902.1794,902.1794,902.7206,return,0.071,,25.78125,,,,,,FBP-YG-71.png,0.37,1.2,47,0.25,,,,,,,,,,,,,0,43,43,46,1,,,,,,,,,,,,,,,,,,,,,,,,,,,,
,,,,,V2_006,23,Male,2024-03-01_09h59.14.729,jersey_experiment_5_v2,2023.2.2,Win32,85.47008547,,,,,,,,,,,,,,,,902.7208,904.5676,904.5676,905.3677,return,0.3708,,17.578125,,,,,,FBP-OG-17.png,0.35,1.2,16,0.25,,,,,,,,,,,,,0,44,44,15,1,,,,,,,,,,,,,,,,,,,,,,,,,,,,
,,,,,V2_006,23,Male,2024-03-01_09h59.14.729,jersey_experiment_5_v2,2023.2.2,Win32,85.47008547,,,,,,,,,,,,,,,,905.3678,907.2149,907.2149,907.5323,return,0.003,,28.77604167,,,,,,FBP-YG-81.png,0.37,1.2,52,0.25,,,,,,,,,,,,,0,45,45,51,1,,,,,,,,,,,,,,,,,,,,,,,,,,,,
,,,,,V2_006,23,Male,2024-03-01_09h59.14.729,jersey_experiment_5_v2,2023.2.2,Win32,85.47008547,,,,,,,,,,,,,,,,907.5325,909.3796,909.3797,909.7913,return,0.0096,,49.08854167,,,,,,FBP-OG-18.png,0.4,1.2,23,0.25,,,,,,,,,,,,,0,46,46,22,1,,,,,,,,,,,,,,,,,,,,,,,,,,,,
,,,,,V2_006,23,Male,2024-03-01_09h59.14.729,jersey_experiment_5_v2,2023.2.2,Win32,85.47008547,,,,,,,,,,,,,,,,909.7916,911.6386,911.6388,912.0737,return,0.0294,,68.61979167,,,,,,FBP-OG-18.png,0.43,1.2,24,0.25,,,,,,,,,,,,,0,47,47,23,1,,,,,,,,,,,,,,,,,,,,,,,,,,,,
,,,,,V2_006,23,Male,2024-03-01_09h59.14.729,jersey_experiment_5_v2,2023.2.2,Win32,85.47008547,,,,,,,,,,,,,,,,912.0738,913.9209,913.921,914.9914,return,0.668,,50.390625,,,,,,FBP-YG-71.png,0.4,1.2,48,0.25,,,,,,,,,,,,,0,48,48,47,1,,,,,,,,,,,,,,,,,,,,,,,,,,,,
,,,,,V2_006,23,Male,2024-03-01_09h59.14.729,jersey_experiment_5_v2,2023.2.2,Win32,85.47008547,,,,,,,,,,,,,,,,914.9918,916.8502,916.8503,917.1446,return,0.0049,,50.390625,,,,,,FBP-RB-17.png,0.37,1.2,32,0.25,,,,,,,,,,,,,0,49,49,31,1,,,,,,,,,,,,,,,,,,,,,,,,,,,,
,,,,,V2_006,23,Male,2024-03-01_09h59.14.729,jersey_experiment_5_v2,2023.2.2,Win32,85.47008547,,,,,,,,,,,,,,,,917.1448,919.2505,919.2505,919.5329,return,0.05,,37.63020833,,,,,,FBP-PT-17.png,0.4,1.2,3,0.5,,,,,,,,,,,,,0,50,50,2,1,,,,,,,,,,,,,,,,,,,,,,,,,,,,
,,,,,V2_006,23,Male,2024-03-01_09h59.14.729,jersey_experiment_5_v2,2023.2.2,Win32,85.47008547,,,,,,,,,,,,,,,,919.5331,921.3801,921.3802,922.0978,return,0.3393,,17.31770833,,,,,,FBP-RB-17.png,0.35,1.2,31,0.25,,,,,,,,,,,,,0,51,51,30,1,,,,,,,,,,,,,,,,,,,,,,,,,,,,
,,,,,V2_006,23,Male,2024-03-01_09h59.14.729,jersey_experiment_5_v2,2023.2.2,Win32,85.47008547,,,,,,,,,,,,,,,,922.098,923.945,923.945,924.2508,return,0.0259,,30.46875,,,,,,FBP-YG-81.png,0.4,1.2,53,0.25,,,,,,,,,,,,,0,52,52,52,1,,,,,,,,,,,,,,,,,,,,,,,,,,,,
,,,,,V2_006,23,Male,2024-03-01_09h59.14.729,jersey_experiment_5_v2,2023.2.2,Win32,85.47008547,,,,,,,,,,,,,,,,924.251,926.1096,926.1096,926.5919,return,0.0238,,63.671875,,,,,,FBP-RB-18.png,0.43,1.2,39,0.25,,,,,,,,,,,,,0,53,53,38,1,,,,,,,,,,,,,,,,,,,,,,,,,,,,
,,,,,V2_006,23,Male,2024-03-01_09h59.14.729,jersey_experiment_5_v2,2023.2.2,Win32,85.47008547,,,,,,,,,,,,,,,,926.5922,928.4507,928.4507,928.8744,return,0.0522,,63.671875,,,,,,FBP-YG-71.png,0.45,1.2,50,0.25,,,,,,,,,,,,,0,54,54,49,1,,,,,,,,,,,,,,,,,,,,,,,,,,,,
,,,,,V2_006,23,Male,2024-03-01_09h59.14.729,jersey_experiment_5_v2,2023.2.2,Win32,85.47008547,,,,,,,,,,,,,,,,928.8745,930.7215,930.7216,931.4626,return,0.3149,,32.68229167,,,,,,FBP-RB-18.png,0.4,1.2,38,0.25,,,,,,,,,,,,,0,55,55,37,1,,,,,,,,,,,,,,,,,,,,,,,,,,,,
,,,,,V2_006,23,Male,2024-03-01_09h59.14.729,jersey_experiment_5_v2,2023.2.2,Win32,85.47008547,,,,,,,,,,,,,,,,931.4628,933.5569,933.5569,934.0394,return,0.0297,,30.46875,,,,,,FBP-PT-18.png,0.37,1.2,7,0.5,,,,,,,,,,,,,0,56,56,6,1,,,,,,,,,,,,,,,,,,,,,,,,,,,,
,,,,,V2_006,23,Male,2024-03-01_09h59.14.729,jersey_experiment_5_v2,2023.2.2,Win32,85.47008547,,,,,,,,,,,,,,,,934.0396,935.8981,935.8982,936.4629,return,0.0379,,7.682291667,,,,,,FBP-RB-19.png,0.35,1.2,41,0.25,,,,,,,,,,,,,0,57,57,40,1,,,,,,,,,,,,,,,,,,,,,,,,,,,,
,,,,,V2_006,23,Male,2024-03-01_09h59.14.729,jersey_experiment_5_v2,2023.2.2,Win32,85.47008547,,,,,,,,,,,,,,,,936.4631,938.31,938.3101,938.7336,return,0.0112,,7.682291667,,,,,,FBP-OG-18.png,0.37,1.2,22,0.25,,,,,,,,,,,,,0,58,58,21,1,,,,,,,,,,,,,,,,,,,,,,,,,,,,
,,,,,V2_006,23,Male,2024-03-01_09h59.14.729,jersey_experiment_5_v2,2023.2.2,Win32,85.47008547,,,,,,,,,,,,,,,,938.7338,940.8277,940.8277,941.063,return,0.0792,,7.682291667,,,,,,FBP-PT-19.png,0.35,1.2,11,0.5,,,,,,,,,,,,,0,59,59,10,1,,,,,,,,,,,,,,,,,,,,,,,,,,,,
,,,,,V2_006,23,Male,2024-03-01_09h59.14.729,jersey_experiment_5_v2,2023.2.2,Win32,85.47008547,,,,,,,,,,,,,,,,941.0645,942.9102,942.9102,943.4161,return,0.0643,,15.36458333,,,,,,FBP-OG-71.png,0.37,1.2,17,0.25,,,,,,,,,,,,,,,,,,0,0,0,16,1,,,,,,,,,,,,,,,,,,,,,,,
,,,,,V2_006,23,Male,2024-03-01_09h59.14.729,jersey_experiment_5_v2,2023.2.2,Win32,85.47008547,,,,,,,,,,,,,,,,943.4164,945.2633,945.2634,945.6399,return,0.02,,33.46354167,,,,,,FBP-YG-18.png,0.4,1.2,53,0.25,,,,,,,,,,,,,,,,,,0,1,1,52,1,,,,,,,,,,,,,,,,,,,,,,,
,,,,,V2_006,23,Male,2024-03-01_09h59.14.729,jersey_experiment_5_v2,2023.2.2,Win32,85.47008547,,,,,,,,,,,,,,,,945.6401,947.4987,947.4987,948.2163,return,0.3695,,71.875,,,,,,FBP-YG-18.png,0.45,1.2,55,0.25,,,,,,,,,,,,,,,,,,0,2,2,54,1,,,,,,,,,,,,,,,,,,,,,,,
,,,,,V2_006,23,Male,2024-03-01_09h59.14.729,jersey_experiment_5_v2,2023.2.2,Win32,85.47008547,,,,,,,,,,,,,,,,948.2165,950.3104,950.3104,950.6046,return,0.0713,,71.875,,,,,,FBP-PT-81.png,0.43,1.2,9,0.5,,,,,,,,,,,,,,,,,,0,3,3,8,1,,,,,,,,,,,,,,,,,,,,,,,
,,,,,V2_006,23,Male,2024-03-01_09h59.14.729,jersey_experiment_5_v2,2023.2.2,Win32,85.47008547,,,,,,,,,,,,,,,,950.6049,952.6989,952.699,953.3107,return,0.1888,,27.60416667,,,,,,FBP-PT-71.png,0.35,1.2,1,0.5,,,,,,,,,,,,,,,,,,0,4,4,0,1,,,,,,,,,,,,,,,,,,,,,,,
,,,,,V2_006,23,Male,2024-03-01_09h59.14.729,jersey_experiment_5_v2,2023.2.2,Win32,85.47008547,,,,,,,,,,,,,,,,953.311,955.1578,955.1578,955.5695,return,0.0473,,34.11458333,,,,,,FBP-OG-91.png,0.35,1.2,26,0.25,,,,,,,,,,,,,,,,,,0,5,5,25,1,,,,,,,,,,,,,,,,,,,,,,,
,,,,,V2_006,23,Male,2024-03-01_09h59.14.729,jersey_experiment_5_v2,2023.2.2,Win32,85.47008547,,,,,,,,,,,,,,,,955.5697,957.4167,957.4168,957.9814,return,0.0351,,41.53645833,,,,,,FBP-YG-17.png,0.4,1.2,48,0.25,,,,,,,,,,,,,,,,,,0,6,6,47,1,,,,,,,,,,,,,,,,,,,,,,,
,,,,,V2_006,23,Male,2024-03-01_09h59.14.729,jersey_experiment_5_v2,2023.2.2,Win32,85.47008547,,,,,,,,,,,,,,,,957.9815,960.0756,960.0756,960.558,return,0.0615,,69.79166667,,,,,,FBP-PT-91.png,0.45,1.2,15,0.5,,,,,,,,,,,,,,,,,,0,7,7,14,1,,,,,,,,,,,,,,,,,,,,,,,
,,,,,V2_006,23,Male,2024-03-01_09h59.14.729,jersey_experiment_5_v2,2023.2.2,Win32,85.47008547,,,,,,,,,,,,,,,,960.5581,962.405,962.405,962.9227,return,0.0285,,69.79166667,,,,,,FBP-OG-71.png,0.35,1.2,16,0.25,,,,,,,,,,,,,,,,,,0,8,8,15,1,,,,,,,,,,,,,,,,,,,,,,,
,,,,,V2_006,23,Male,2024-03-01_09h59.14.729,jersey_experiment_5_v2,2023.2.2,Win32,85.47008547,,,,,,,,,,,,,,,,962.9228,964.7701,964.7701,965.4993,return,0.3317,,17.1875,,,,,,FBP-YG-18.png,0.35,1.2,51,0.25,,,,,,,,,,,,,,,,,,0,9,9,50,1,,,,,,,,,,,,,,,,,,,,,,,
,,,,,V2_006,23,Male,2024-03-01_09h59.14.729,jersey_experiment_5_v2,2023.2.2,Win32,85.47008547,,,,,,,,,,,,,,,,965.4995,967.3465,967.3465,967.7345,return,0.0211,,39.97395833,,,,,,FBP-RB-71.png,0.4,1.2,33,0.25,,,,,,,,,,,,,,,,,,0,10,10,32,1,,,,,,,,,,,,,,,,,,,,,,,
,,,,,V2_006,23,Male,2024-03-01_09h59.14.729,jersey_experiment_5_v2,2023.2.2,Win32,85.47008547,,,,,,,,,,,,,,,,967.7348,969.8289,969.8289,970.476,return,0.1449,,39.97395833,,,,,,FBP-PT-71.png,0.4,1.2,3,0.5,,,,,,,,,,,,,,,,,,0,11,11,2,1,,,,,,,,,,,,,,,,,,,,,,,
,,,,,V2_006,23,Male,2024-03-01_09h59.14.729,jersey_experiment_5_v2,2023.2.2,Win32,85.47008547,,,,,,,,,,,,,,,,970.4762,972.5701,972.5701,972.9231,return,0.1223,,41.27604167,,,,,,FBP-PT-91.png,0.4,1.2,13,0.5,,,,,,,,,,,,,,,,,,0,12,12,12,1,,,,,,,,,,,,,,,,,,,,,,,
,,,,,V2_006,23,Male,2024-03-01_09h59.14.729,jersey_experiment_5_v2,2023.2.2,Win32,85.47008547,,,,,,,,,,,,,,,,972.9232,975.0173,975.0174,975.4056,return,0.0003,,66.27604167,,,,,,FBP-PT-71.png,0.43,1.2,4,0.5,,,,,,,,,,,,,,,,,,0,13,13,3,1,,,,,,,,,,,,,,,,,,,,,,,
,,,,,V2_006,23,Male,2024-03-01_09h59.14.729,jersey_experiment_5_v2,2023.2.2,Win32,85.47008547,,,,,,,,,,,,,,,,975.4057,977.2527,977.2528,977.6644,return,0.0377,,22.39583333,,,,,,FBP-YG-17.png,0.35,1.2,46,0.25,,,,,,,,,,,,,,,,,,0,14,14,45,1,,,,,,,,,,,,,,,,,,,,,,,
,,,,,V2_006,23,Male,2024-03-01_09h59.14.729,jersey_experiment_5_v2,2023.2.2,Win32,85.47008547,,,,,,,,,,,,,,,,977.6645,979.5117,979.5117,979.9821,return,0.0583,,62.63020833,,,,,,FBP-RB-91.png,0.43,1.2,44,0.25,,,,,,,,,,,,,,,,,,0,15,15,43,1,,,,,,,,,,,,,,,,,,,,,,,
,,,,,V2_006,23,Male,2024-03-01_09h59.14.729,jersey_experiment_5_v2,2023.2.2,Win32,85.47008547,,,,,,,,,,,,,,,,979.9824,981.8294,981.8295,982.3586,return,0.0186,,16.40625,,,,,,FBP-YG-19.png,0.35,1.2,56,0.25,,,,,,,,,,,,,,,,,,0,16,16,55,1,,,,,,,,,,,,,,,,,,,,,,,
,,,,,V2_006,23,Male,2024-03-01_09h59.14.729,jersey_experiment_5_v2,2023.2.2,Win32,85.47008547,,,,,,,,,,,,,,,,982.3588,984.453,984.4531,984.8647,return,0.0154,,36.58854167,,,,,,FBP-PT-81.png,0.4,1.2,8,0.5,,,,,,,,,,,,,,,,,,0,17,17,7,1,,,,,,,,,,,,,,,,,,,,,,,
,,,,,V2_006,23,Male,2024-03-01_09h59.14.729,jersey_experiment_5_v2,2023.2.2,Win32,85.47008547,,,,,,,,,,,,,,,,984.8651,986.7236,986.7236,987.0883,return,0.0239,,36.58854167,,,,,,FBP-OG-91.png,0.4,1.2,28,0.25,,,,,,,,,,,,,,,,,,0,18,18,27,1,,,,,,,,,,,,,,,,,,,,,,,
,,,,,V2_006,23,Male,2024-03-01_09h59.14.729,jersey_experiment_5_v2,2023.2.2,Win32,85.47008547,,,,,,,,,,,,,,,,987.0885,988.9356,988.9357,989.3237,return,0.0276,,16.53645833,,,,,,FBP-RB-91.png,0.35,1.2,41,0.25,,,,,,,,,,,,,,,,,,0,19,19,40,1,,,,,,,,,,,,,,,,,,,,,,,
,,,,,V2_006,23,Male,2024-03-01_09h59.14.729,jersey_experiment_5_v2,2023.2.2,Win32,85.47008547,,,,,,,,,,,,,,,,989.3239,991.171,991.1711,991.6885,return,0.0522,,63.41145833,,,,,,FBP-RB-81.png,0.43,1.2,39,0.25,,,,,,,,,,,,,,,,,,0,20,20,38,1,,,,,,,,,,,,,,,,,,,,,,,
,,,,,V2_006,23,Male,2024-03-01_09h59.14.729,jersey_experiment_5_v2,2023.2.2,Win32,85.47008547,,,,,,,,,,,,,,,,991.6887,993.5357,993.5358,993.9827,return,0.0338,,19.27083333,,,,,,FBP-RB-81.png,0.37,1.2,37,0.25,,,,,,,,,,,,,,,,,,0,21,21,36,1,,,,,,,,,,,,,,,,,,,,,,,
,,,,,V2_006,23,Male,2024-03-01_09h59.14.729,jersey_experiment_5_v2,2023.2.2,Win32,85.47008547,,,,,,,,,,,,,,,,993.9828,995.8414,995.8415,996.5593,return,0.0139,,84.89583333,,,,,,FBP-RB-81.png,0.45,1.2,40,0.25,,,,,,,,,,,,,,,,,,0,22,22,39,1,,,,,,,,,,,,,,,,,,,,,,,
,,,,,V2_006,23,Male,2024-03-01_09h59.14.729,jersey_experiment_5_v2,2023.2.2,Win32,85.47008547,,,,,,,,,,,,,,,,996.5595,998.6651,998.6652,999.1476,return,0.0157,,12.23958333,,,,,,FBP-PT-91.png,0.35,1.2,11,0.5,,,,,,,,,,,,,,,,,,0,23,23,10,1,,,,,,,,,,,,,,,,,,,,,,,
,,,,,V2_006,23,Male,2024-03-01_09h59.14.729,jersey_experiment_5_v2,2023.2.2,Win32,85.47008547,,,,,,,,,,,,,,,,999.1477,1000.9946,1000.9947,1001.3595,return,0.0144,,26.953125,,,,,,FBP-RB-71.png,0.35,1.2,31,0.25,,,,,,,,,,,,,,,,,,0,24,24,30,1,,,,,,,,,,,,,,,,,,,,,,,
,,,,,V2_006,23,Male,2024-03-01_09h59.14.729,jersey_experiment_5_v2,2023.2.2,Win32,85.47008547,,,,,,,,,,,,,,,,1001.3597,1003.2065,1003.2066,1003.7242,return,0.0505,,70.57291667,,,,,,FBP-YG-19.png,0.45,1.2,60,0.25,,,,,,,,,,,,,,,,,,0,25,25,59,1,,,,,,,,,,,,,,,,,,,,,,,
,,,,,V2_006,23,Male,2024-03-01_09h59.14.729,jersey_experiment_5_v2,2023.2.2,Win32,85.47008547,,,,,,,,,,,,,,,,1003.7245,1005.5715,1005.5715,1006.042,return,0.0041,,19.27083333,,,,,,FBP-OG-91.png,0.37,1.2,27,0.25,,,,,,,,,,,,,,,,,,0,26,26,26,1,,,,,,,,,,,,,,,,,,,,,,,
,,,,,V2_006,23,Male,2024-03-01_09h59.14.729,jersey_experiment_5_v2,2023.2.2,Win32,85.47008547,,,,,,,,,,,,,,,,1006.0422,1007.8893,1007.8893,1008.2422,return,0.0236,,27.60416667,,,,,,FBP-RB-71.png,0.37,1.2,32,0.25,,,,,,,,,,,,,,,,,,0,27,27,31,1,,,,,,,,,,,,,,,,,,,,,,,
,,,,,V2_006,23,Male,2024-03-01_09h59.14.729,jersey_experiment_5_v2,2023.2.2,Win32,85.47008547,,,,,,,,,,,,,,,,1008.2423,1010.3363,1010.3364,1010.7481,return,0.0154,,78.515625,,,,,,FBP-PT-91.png,0.43,1.2,14,0.5,,,,,,,,,,,,,,,,,,0,28,28,13,1,,,,,,,,,,,,,,,,,,,,,,,
,,,,,V2_006,23,Male,2024-03-01_09h59.14.729,jersey_experiment_5_v2,2023.2.2,Win32,85.47008547,,,,,,,,,,,,,,,,1010.7482,1012.6068,1012.6069,1013.0657,return,0.0531,,81.77083333,,,,,,FBP-YG-18.png,0.43,1.2,54,0.25,,,,,,,,,,,,,,,,,,0,29,29,53,1,,,,,,,,,,,,,,,,,,,,,,,
,,,,,V2_006,23,Male,2024-03-01_09h59.14.729,jersey_experiment_5_v2,2023.2.2,Win32,85.47008547,,,,,,,,,,,,,,,,1013.0659,1014.913,1014.913,1015.1835,return,0.0003,,69.140625,,,,,,FBP-RB-91.png,0.45,1.2,45,0.25,,,,,,,,,,,,,,,,,,0,30,30,44,1,,,,,,,,,,,,,,,,,,,,,,,
,,,,,V2_006,23,Male,2024-03-01_09h59.14.729,jersey_experiment_5_v2,2023.2.2,Win32,85.47008547,,,,,,,,,,,,,,,,1015.1836,1017.0423,1017.0423,1017.76,return,0.3669,,31.640625,,,,,,FBP-OG-81.png,0.37,1.2,22,0.25,,,,,,,,,,,,,,,,,,0,31,31,21,1,,,,,,,,,,,,,,,,,,,,,,,
,,,,,V2_006,23,Male,2024-03-01_09h59.14.729,jersey_experiment_5_v2,2023.2.2,Win32,85.47008547,,,,,,,,,,,,,,,,1017.7602,1019.6073,1019.6073,1020.0661,return,0.0465,,85.15625,,,,,,FBP-YG-17.png,0.45,1.2,50,0.25,,,,,,,,,,,,,,,,,,0,32,32,49,1,,,,,,,,,,,,,,,,,,,,,,,
,,,,,V2_006,23,Male,2024-03-01_09h59.14.729,jersey_experiment_5_v2,2023.2.2,Win32,85.47008547,,,,,,,,,,,,,,,,1020.0662,1022.1602,1022.1602,1023.0072,return,0.5323,,35.02604167,,,,,,FBP-PT-81.png,0.37,1.2,7,0.5,,,,,,,,,,,,,,,,,,0,33,33,6,1,,,,,,,,,,,,,,,,,,,,,,,
,,,,,V2_006,23,Male,2024-03-01_09h59.14.729,jersey_experiment_5_v2,2023.2.2,Win32,85.47008547,,,,,,,,,,,,,,,,1023.0074,1024.8663,1024.8664,1025.1604,return,0.0073,,52.34375,,,,,,FBP-RB-81.png,0.4,1.2,38,0.25,,,,,,,,,,,,,,,,,,0,34,34,37,1,,,,,,,,,,,,,,,,,,,,,,,
,,,,,V2_006,23,Male,2024-03-01_09h59.14.729,jersey_experiment_5_v2,2023.2.2,Win32,85.47008547,,,,,,,,,,,,,,,,1025.1606,1027.0075,1027.0075,1027.7251,return,0.4024,,65.234375,,,,,,FBP-OG-81.png,0.43,1.2,24,0.25,,,,,,,,,,,,,,,,,,0,35,35,23,1,,,,,,,,,,,,,,,,,,,,,,,
,,,,,V2_006,23,Male,2024-03-01_09h59.14.729,jersey_experiment_5_v2,2023.2.2,Win32,85.47008547,,,,,,,,,,,,,,,,1027.7253,1029.5724,1029.5724,1029.9487,return,0.0269,,41.40625,,,,,,FBP-OG-81.png,0.4,1.2,23,0.25,,,,,,,,,,,,,,,,,,0,36,36,22,1,,,,,,,,,,,,,,,,,,,,,,,
,,,,,V2_006,23,Male,2024-03-01_09h59.14.729,jersey_experiment_5_v2,2023.2.2,Win32,85.47008547,,,,,,,,,,,,,,,,1029.9489,1031.7958,1031.7959,1032.384,return,0.0096,,56.11979167,,,,,,FBP-RB-91.png,0.37,1.2,42,0.25,,,,,,,,,,,,,,,,,,0,37,37,41,1,,,,,,,,,,,,,,,,,,,,,,,
,,,,,V2_006,23,Male,2024-03-01_09h59.14.729,jersey_experiment_5_v2,2023.2.2,Win32,85.47008547,,,,,,,,,,,,,,,,1032.3842,1034.2314,1034.2314,1034.7019,return,0.0005,,43.09895833,,,,,,FBP-OG-71.png,0.43,1.2,19,0.25,,,,,,,,,,,,,,,,,,0,38,38,18,1,,,,,,,,,,,,,,,,,,,,,,,
,,,,,V2_006,23,Male,2024-03-01_09h59.14.729,jersey_experiment_5_v2,2023.2.2,Win32,85.47008547,,,,,,,,,,,,,,,,1034.702,1036.5607,1036.5607,1036.9725,return,0.0271,,65.36458333,,,,,,FBP-YG-17.png,0.43,1.2,49,0.25,,,,,,,,,,,,,,,,,,0,39,39,48,1,,,,,,,,,,,,,,,,,,,,,,,
,,,,,V2_006,23,Male,2024-03-01_09h59.14.729,jersey_experiment_5_v2,2023.2.2,Win32,85.47008547,,,,,,,,,,,,,,,,1036.9727,1038.8313,1038.8313,1039.1607,return,0.0157,,65.36458333,,,,,,FBP-YG-19.png,0.43,1.2,59,0.25,,,,,,,,,,,,,,,,,,0,40,40,58,1,,,,,,,,,,,,,,,,,,,,,,,
,,,,,V2_006,23,Male,2024-03-01_09h59.14.729,jersey_experiment_5_v2,2023.2.2,Win32,85.47008547,,,,,,,,,,,,,,,,1039.1608,1041.255,1041.2551,1041.5844,return,0.0316,,63.28125,,,,,,FBP-PT-81.png,0.45,1.2,10,0.5,,,,,,,,,,,,,,,,,,0,41,41,9,1,,,,,,,,,,,,,,,,,,,,,,,
,,,,,V2_006,23,Male,2024-03-01_09h59.14.729,jersey_experiment_5_v2,2023.2.2,Win32,85.47008547,,,,,,,,,,,,,,,,1041.5846,1043.4316,1043.4316,1043.961,return,0.0403,,36.328125,,,,,,FBP-YG-19.png,0.37,1.2,57,0.25,,,,,,,,,,,,,,,,,,0,42,42,56,1,,,,,,,,,,,,,,,,,,,,,,,
,,,,,V2_006,23,Male,2024-03-01_09h59.14.729,jersey_experiment_5_v2,2023.2.2,Win32,85.47008547,,,,,,,,,,,,,,,,1043.9612,1045.8198,1045.8199,1046.3494,return,0.0004,,61.58854167,,,,,,FBP-OG-81.png,0.45,1.2,25,0.25,,,,,,,,,,,,,,,,,,0,43,43,24,1,,,,,,,,,,,,,,,,,,,,,,,
,,,,,V2_006,23,Male,2024-03-01_09h59.14.729,jersey_experiment_5_v2,2023.2.2,Win32,85.47008547,,,,,,,,,,,,,,,,1046.3495,1048.2082,1048.2083,1048.5612,return,0.0231,,61.58854167,,,,,,FBP-OG-91.png,0.43,1.2,29,0.25,,,,,,,,,,,,,,,,,,0,44,44,28,1,,,,,,,,,,,,,,,,,,,,,,,
,,,,,V2_006,23,Male,2024-03-01_09h59.14.729,jersey_experiment_5_v2,2023.2.2,Win32,85.47008547,,,,,,,,,,,,,,,,1048.5613,1050.4083,1050.4083,1050.7847,return,0.0094,,59.375,,,,,,FBP-OG-71.png,0.4,1.2,18,0.25,,,,,,,,,,,,,,,,,,0,45,45,17,1,,,,,,,,,,,,,,,,,,,,,,,
,,,,,V2_006,23,Male,2024-03-01_09h59.14.729,jersey_experiment_5_v2,2023.2.2,Win32,85.47008547,,,,,,,,,,,,,,,,1050.7849,1052.8789,1052.879,1053.4555,return,0.0237,,50.91145833,,,,,,FBP-PT-71.png,0.45,1.2,5,0.5,,,,,,,,,,,,,,,,,,0,46,46,4,1,,,,,,,,,,,,,,,,,,,,,,,
,,,,,V2_006,23,Male,2024-03-01_09h59.14.729,jersey_experiment_5_v2,2023.2.2,Win32,85.47008547,,,,,,,,,,,,,,,,1053.4558,1055.3143,1055.3144,1055.6085,return,0.0169,,56.77083333,,,,,,FBP-RB-71.png,0.45,1.2,35,0.25,,,,,,,,,,,,,,,,,,0,47,47,34,1,,,,,,,,,,,,,,,,,,,,,,,
,,,,,V2_006,23,Male,2024-03-01_09h59.14.729,jersey_experiment_5_v2,2023.2.2,Win32,85.47008547,,,,,,,,,,,,,,,,1055.6087,1057.4557,1057.4557,1058.1851,return,0.3573,,59.63541667,,,,,,FBP-RB-71.png,0.43,1.2,34,0.25,,,,,,,,,,,,,,,,,,0,48,48,33,1,,,,,,,,,,,,,,,,,,,,,,,
,,,,,V2_006,23,Male,2024-03-01_09h59.14.729,jersey_experiment_5_v2,2023.2.2,Win32,85.47008547,,,,,,,,,,,,,,,,1058.1853,1060.2909,1060.291,1061.1615,return,0.3686,,35.80729167,,,,,,FBP-PT-71.png,0.37,1.2,2,0.5,,,,,,,,,,,,,,,,,,0,49,49,1,1,,,,,,,,,,,,,,,,,,,,,,,
,,,,,V2_006,23,Male,2024-03-01_09h59.14.729,jersey_experiment_5_v2,2023.2.2,Win32,85.47008547,,,,,,,,,,,,,,,,1061.1617,1063.0204,1063.0205,1063.9852,return,0.0945,,31.38020833,,,,,,FBP-YG-18.png,0.37,1.2,52,0.25,,,,,,,,,,,,,,,,,,0,50,50,51,1,,,,,,,,,,,,,,,,,,,,,,,
,,,,,V2_006,23,Male,2024-03-01_09h59.14.729,jersey_experiment_5_v2,2023.2.2,Win32,85.47008547,,,,,,,,,,,,,,,,1063.9854,1065.8324,1065.8324,1066.4559,return,0.3004,,36.328125,,,,,,FBP-OG-91.png,0.45,1.2,30,0.25,,,,,,,,,,,,,,,,,,0,51,51,29,1,,,,,,,,,,,,,,,,,,,,,,,
,,,,,V2_006,23,Male,2024-03-01_09h59.14.729,jersey_experiment_5_v2,2023.2.2,Win32,85.47008547,,,,,,,,,,,,,,,,1066.4561,1068.562,1068.5621,1069.2443,return,0.321,,30.859375,,,,,,FBP-PT-91.png,0.37,1.2,12,0.5,,,,,,,,,,,,,,,,,,0,52,52,11,1,,,,,,,,,,,,,,,,,,,,,,,
,,,,,V2_006,23,Male,2024-03-01_09h59.14.729,jersey_experiment_5_v2,2023.2.2,Win32,85.47008547,,,,,,,,,,,,,,,,1069.2446,1071.103,1071.103,1071.5619,return,0.0528,,30.859375,,,,,,FBP-OG-71.png,0.45,1.2,20,0.25,,,,,,,,,,,,,,,,,,0,53,53,19,1,,,,,,,,,,,,,,,,,,,,,,,
,,,,,V2_006,23,Male,2024-03-01_09h59.14.729,jersey_experiment_5_v2,2023.2.2,Win32,85.47008547,,,,,,,,,,,,,,,,1071.5621,1073.4091,1073.4092,1074.2328,return,0.3955,,20.05208333,,,,,,FBP-RB-81.png,0.35,1.2,36,0.25,,,,,,,,,,,,,,,,,,0,54,54,35,1,,,,,,,,,,,,,,,,,,,,,,,
,,,,,V2_006,23,Male,2024-03-01_09h59.14.729,jersey_experiment_5_v2,2023.2.2,Win32,85.47008547,,,,,,,,,,,,,,,,1074.2329,1076.3387,1076.3387,1076.7034,return,0.0141,,21.484375,,,,,,FBP-PT-81.png,0.35,1.2,6,0.5,,,,,,,,,,,,,,,,,,0,55,55,5,1,,,,,,,,,,,,,,,,,,,,,,,
,,,,,V2_006,23,Male,2024-03-01_09h59.14.729,jersey_experiment_5_v2,2023.2.2,Win32,85.47008547,,,,,,,,,,,,,,,,1076.7037,1078.5505,1078.5505,1078.8917,return,0.0025,,23.046875,,,,,,FBP-RB-91.png,0.4,1.2,43,0.25,,,,,,,,,,,,,,,,,,0,56,56,42,1,,,,,,,,,,,,,,,,,,,,,,,
,,,,,V2_006,23,Male,2024-03-01_09h59.14.729,jersey_experiment_5_v2,2023.2.2,Win32,85.47008547,,,,,,,,,,,,,,,,1078.892,1080.7506,1080.7507,1081.2446,return,0.0478,,16.015625,,,,,,FBP-OG-81.png,0.35,1.2,21,0.25,,,,,,,,,,,,,,,,,,0,57,57,20,1,,,,,,,,,,,,,,,,,,,,,,,
,,,,,V2_006,23,Male,2024-03-01_09h59.14.729,jersey_experiment_5_v2,2023.2.2,Win32,85.47008547,,,,,,,,,,,,,,,,1081.2449,1083.1036,1083.1037,1083.5153,return,0.004,,32.421875,,,,,,FBP-YG-19.png,0.4,1.2,58,0.25,,,,,,,,,,,,,,,,,,0,58,58,57,1,,,,,,,,,,,,,,,,,,,,,,,
,,,,,V2_006,23,Male,2024-03-01_09h59.14.729,jersey_experiment_5_v2,2023.2.2,Win32,85.47008547,,,,,,,,,,,,,,,,1083.5156,1085.3625,1085.3625,1085.7743,return,0.0014,,32.421875,,,,,,FBP-YG-17.png,0.37,1.2,47,0.25,,,,,,,,,,,,,,,,,,0,59,59,46,1,,,,,,,,,,,,,,,,,,,,,,,
,,,,,V2_006,23,Male,2024-03-01_09h59.14.729,jersey_experiment_5_v2,2023.2.2,Win32,85.47008547,,,,,,,,,,,,,,,,,,,,,,,,,,,,,,,,,,,,,,,,,,,,,,,,,,,,,,,,1085.7746,1087.3863,return,1.603,,,,,,,,,,,,,,,,,,,
,,,,,V2_006,23,Male,2024-03-01_09h59.14.729,jersey_experiment_5_v2,2023.2.2,Win32,85.47008547,,,,,,,,,,,,,,,,,,,,,,,,,,,,,,,,,,,,,,,,,,,,,,,,,,,,,,,,,,,,,1087.3864,1090.8334,1,2.6605,return,0.7625,,,,,,,,,,,,
,,,,,V2_006,23,Male,2024-03-01_09h59.14.729,jersey_experiment_5_v2,2023.2.2,Win32,85.47008547,,,,,,,,,,,,,,,,,,,,,,,,,,,,,,,,,,,,,,,,,,,,,,,,,,,,,,,,,,,,,,,,,,,,1090.8336,1143.5812,"first thought it might be about race, but that might be a distractor. i think might have something to do with display time of stim? ",right,46.5608,,,,,,
,,,,,V2_006,23,Male,2024-03-01_09h59.14.729,jersey_experiment_5_v2,2023.2.2,Win32,85.47008547,,,,,,,,,,,,,,,,,,,,,,,,,,,,,,,,,,,,,,,,,,,,,,,,,,,,,,,,,,,,,,,,,,,,,,,,,,1143.5813,1146.3296,return,2.7412,